timestamp,ax,ay,az
1631018753906,-0.828125,0.328125,0.4375
1631018753937,-0.828125,0.328125,0.4375
1631018753968,-0.84375,0.328125,0.4375
1631018754000,-0.84375,0.328125,0.421875
1631018754031,-0.84375,0.328125,0.4375
1631018754062,-0.84375,0.328125,0.4375
1631018754093,-0.84375,0.328125,0.4375
1631018754125,-0.84375,0.328125,0.4375
1631018754156,-0.84375,0.328125,0.4375
1631018754187,-0.84375,0.328125,0.4375
1631018754218,-0.828125,0.328125,0.4375
1631018754250,-0.828125,0.328125,0.4375
1631018754281,-0.859375,0.34375,0.421875
1631018754312,-0.828125,0.3125,0.4375
1631018754343,-0.828125,0.3125,0.4375
1631018754375,-0.8125,0.3125,0.453125
1631018754406,-0.8125,0.3125,0.46875
1631018754437,-0.8125,0.296875,0.484375
1631018754468,-0.828125,0.28125,0.46875
1631018754500,-0.84375,0.296875,0.453125
1631018754531,-0.828125,0.3125,0.4375
1631018754562,-0.828125,0.296875,0.421875
1631018754593,-0.84375,0.28125,0.421875
1631018754625,-0.84375,0.3125,0.421875
1631018754656,-0.875,0.296875,0.40625
1631018754687,-0.859375,0.328125,0.375
1631018754718,-0.875,0.359375,0.28125
1631018754750,-0.890625,0.359375,0.265625
1631018754781,-0.890625,0.375,0.28125
1631018754812,-0.890625,0.375,0.28125
1631018754843,-0.90625,0.359375,0.265625
1631018754875,-0.9375,0.359375,0.203125
1631018754906,-0.9375,0.390625,0.1875
1631018754937,-0.921875,0.375,0.234375
1631018754968,-0.890625,0.359375,0.296875
1631018755000,-0.90625,0.328125,0.265625
1631018755031,-0.921875,0.328125,0.28125
1631018755062,-0.90625,0.3125,0.265625
1631018755093,-0.875,0.328125,0.296875
1631018755125,-0.90625,0.328125,0.265625
1631018755156,-0.921875,0.34375,0.25
1631018755187,-0.90625,0.34375,0.265625
1631018755218,-0.890625,0.34375,0.265625
1631018755250,-0.90625,0.34375,0.265625
1631018755281,-0.90625,0.359375,0.265625
1631018755312,-0.890625,0.34375,0.3125
1631018755343,-0.9375,0.359375,0.25
1631018755375,-0.921875,0.375,0.296875
1631018755406,-1.0,0.390625,0.328125
1631018755437,-0.90625,0.359375,0.359375
1631018755468,-0.9375,0.328125,0.296875
1631018755500,-0.8125,0.375,0.53125
1631018755531,-0.890625,0.375,0.546875
1631018755562,-0.421875,0.40625,0.640625
1631018755593,-0.640625,0.25,0.625
1631018755625,-0.640625,0.25,0.609375
1631018755656,-0.6875,0.21875,0.53125
1631018755687,-0.6875,0.1875,0.5
1631018755718,-0.71875,0.125,0.515625
1631018755750,-0.71875,0.09375,0.53125
1631018755781,-0.734375,0.109375,0.578125
1631018755812,-1.03125,0.171875,0.703125
1631018755843,-0.703125,0.171875,0.6875
1631018755875,-0.515625,0.203125,0.71875
1631018755906,-0.6875,0.1875,0.640625
1631018755937,-0.71875,0.1875,0.640625
1631018755968,-0.65625,0.265625,0.6875
1631018756000,-0.6875,0.296875,0.71875
1631018756031,-0.75,0.28125,0.703125
1631018756062,-0.734375,0.296875,0.65625
1631018756093,-0.71875,0.28125,0.640625
1631018756125,-0.703125,0.28125,0.640625
1631018756156,-0.65625,0.296875,0.6875
1631018756187,-0.671875,0.296875,0.6875
1631018756218,-0.703125,0.296875,0.65625
1631018756250,-0.671875,0.296875,0.671875
1631018756281,-0.625,0.28125,0.71875
1631018756312,-0.609375,0.28125,0.71875
1631018756343,-0.625,0.28125,0.703125
1631018756375,-0.625,0.28125,0.71875
1631018756406,-0.625,0.28125,0.71875
1631018756437,-0.609375,0.28125,0.71875
1631018756468,-0.640625,0.265625,0.703125
1631018756500,-0.640625,0.265625,0.703125
1631018756531,-0.625,0.28125,0.71875
1631018756562,-0.625,0.265625,0.703125
1631018756593,-0.625,0.265625,0.703125
1631018756625,-0.625,0.28125,0.71875
1631018756656,-0.625,0.28125,0.71875
1631018756687,-0.640625,0.265625,0.703125
1631018756718,-0.625,0.28125,0.71875
1631018756750,-0.640625,0.28125,0.703125
1631018756781,-0.640625,0.28125,0.703125
1631018756812,-0.640625,0.265625,0.703125
1631018756843,-0.625,0.28125,0.703125
1631018756875,-0.640625,0.265625,0.703125
1631018756906,-0.65625,0.265625,0.703125
1631018756937,-0.640625,0.265625,0.703125
1631018756968,-0.640625,0.28125,0.703125
1631018757000,-0.640625,0.28125,0.703125
1631018757031,-0.640625,0.28125,0.703125
1631018757062,-0.640625,0.28125,0.703125
1631018757093,-0.640625,0.265625,0.703125
1631018757125,-0.640625,0.28125,0.703125
1631018757156,-0.640625,0.265625,0.703125
1631018757187,-0.65625,0.28125,0.703125
1631018757218,-0.625,0.28125,0.703125
1631018757250,-0.640625,0.265625,0.703125
1631018757281,-0.640625,0.28125,0.703125
1631018757312,-0.640625,0.265625,0.703125
1631018757343,-0.640625,0.265625,0.703125
1631018757375,-0.640625,0.265625,0.703125
1631018757406,-0.640625,0.28125,0.703125
1631018757437,-0.640625,0.265625,0.703125
1631018757468,-0.640625,0.28125,0.703125
1631018757500,-0.640625,0.28125,0.703125
1631018757531,-0.640625,0.265625,0.703125
1631018757562,-0.640625,0.265625,0.703125
1631018757593,-0.640625,0.28125,0.703125
1631018757625,-0.640625,0.265625,0.703125
1631018757656,-0.640625,0.28125,0.703125
1631018757687,-0.640625,0.28125,0.703125
1631018757718,-0.640625,0.28125,0.703125
1631018757750,-0.640625,0.265625,0.703125
1631018757781,-0.640625,0.265625,0.703125
1631018757812,-0.640625,0.265625,0.703125
1631018757843,-0.640625,0.265625,0.703125
1631018757875,-0.640625,0.265625,0.703125
1631018757906,-0.640625,0.265625,0.703125
1631018757937,-0.640625,0.265625,0.703125
1631018757968,-0.640625,0.265625,0.703125
1631018758000,-0.640625,0.265625,0.703125
1631018758031,-0.625,0.265625,0.703125
1631018758062,-0.625,0.265625,0.703125
1631018758093,-0.640625,0.265625,0.703125
1631018758125,-0.640625,0.265625,0.703125
1631018758156,-0.625,0.265625,0.703125
1631018758187,-0.640625,0.265625,0.703125
1631018758218,-0.640625,0.265625,0.703125
1631018758250,-0.625,0.28125,0.71875
1631018758281,-0.625,0.265625,0.703125
1631018758312,-0.640625,0.28125,0.703125
1631018758343,-0.625,0.28125,0.703125
1631018758375,-0.640625,0.28125,0.703125
1631018758406,-0.640625,0.265625,0.703125
1631018758437,-0.640625,0.28125,0.703125
1631018758468,-0.640625,0.265625,0.71875
1631018758500,-0.625,0.265625,0.71875
1631018758531,-0.609375,0.265625,0.734375
1631018758562,-0.609375,0.265625,0.734375
1631018758593,-0.625,0.265625,0.71875
1631018758625,-0.640625,0.265625,0.703125
1631018758656,-0.625,0.265625,0.671875
1631018758687,-0.640625,0.28125,0.671875
1631018758718,-0.671875,0.28125,0.671875
1631018758750,-0.640625,0.296875,0.6875
1631018758781,-0.640625,0.3125,0.71875
1631018758812,-0.625,0.296875,0.71875
1631018758843,-0.625,0.265625,0.734375
1631018758875,-0.609375,0.25,0.734375
1631018758906,-0.609375,0.25,0.734375
1631018758937,-0.625,0.25,0.734375
1631018758968,-0.609375,0.265625,0.734375
1631018759000,-0.609375,0.28125,0.71875
1631018759031,-0.640625,0.28125,0.6875
1631018759062,-0.640625,0.28125,0.6875
1631018759093,-0.640625,0.28125,0.6875
1631018759125,-0.640625,0.28125,0.703125
1631018759156,-0.609375,0.28125,0.71875
1631018759187,-0.609375,0.28125,0.734375
1631018759218,-0.609375,0.28125,0.734375
1631018759250,-0.609375,0.265625,0.734375
1631018759281,-0.609375,0.265625,0.734375
1631018759312,-0.609375,0.265625,0.734375
1631018759343,-0.625,0.265625,0.71875
1631018759375,-0.640625,0.28125,0.71875
1631018759406,-0.65625,0.28125,0.6875
1631018759437,-0.625,0.28125,0.703125
1631018759468,-0.65625,0.28125,0.703125
1631018759500,-0.546875,0.28125,0.75
1631018759531,-0.546875,0.296875,0.765625
1631018759562,-0.546875,0.296875,0.78125
1631018759593,-0.546875,0.28125,0.78125
1631018759625,-0.53125,0.265625,0.78125
1631018759656,-0.515625,0.265625,0.796875
1631018759687,-0.53125,0.25,0.765625
1631018759718,-0.53125,0.28125,0.765625
1631018759750,-0.59375,0.296875,0.75
1631018759781,-0.578125,0.296875,0.75
1631018759812,-0.578125,0.3125,0.765625
1631018759843,-0.59375,0.296875,0.75
1631018759875,-0.59375,0.296875,0.734375
1631018759906,-0.5,0.28125,0.796875
1631018759937,-0.53125,0.28125,0.78125
1631018759968,-0.546875,0.28125,0.78125
1631018760000,-0.515625,0.28125,0.78125
1631018760031,-0.515625,0.28125,0.796875
1631018760062,-0.53125,0.28125,0.78125
1631018760093,-0.546875,0.28125,0.78125
1631018760125,-0.546875,0.28125,0.78125
1631018760156,-0.546875,0.28125,0.78125
1631018760187,-0.53125,0.28125,0.78125
1631018760218,-0.546875,0.28125,0.765625
1631018760250,-0.5625,0.28125,0.765625
1631018760281,-0.546875,0.28125,0.78125
1631018760312,-0.5625,0.28125,0.765625
1631018760343,-0.546875,0.28125,0.765625
1631018760375,-0.5625,0.28125,0.765625
1631018760406,-0.546875,0.28125,0.765625
1631018760437,-0.5625,0.28125,0.765625
1631018760468,-0.5625,0.28125,0.765625
1631018760500,-0.5625,0.28125,0.765625
1631018760531,-0.5625,0.28125,0.765625
1631018760562,-0.5625,0.28125,0.765625
1631018760593,-0.546875,0.28125,0.765625
1631018760625,-0.546875,0.28125,0.765625
1631018760656,-0.546875,0.28125,0.765625
1631018760687,-0.5625,0.28125,0.765625
1631018760718,-0.546875,0.28125,0.765625
1631018760750,-0.5625,0.28125,0.765625
1631018760781,-0.5625,0.28125,0.765625
1631018760812,-0.5625,0.28125,0.765625
1631018760843,-0.546875,0.28125,0.765625
1631018760875,-0.5625,0.28125,0.765625
1631018760906,-0.546875,0.28125,0.765625
1631018760937,-0.546875,0.28125,0.765625
1631018760968,-0.546875,0.28125,0.765625
1631018761000,-0.5625,0.28125,0.765625
1631018761031,-0.5625,0.28125,0.765625
1631018761062,-0.5625,0.28125,0.765625
1631018761093,-0.5625,0.28125,0.765625
1631018761125,-0.546875,0.28125,0.765625
1631018761156,-0.5625,0.28125,0.765625
1631018761187,-0.5625,0.28125,0.765625
1631018761218,-0.5625,0.28125,0.75
1631018761250,-0.5625,0.28125,0.765625
1631018761281,-0.5625,0.28125,0.765625
1631018761312,-0.578125,0.28125,0.75
1631018761343,-0.578125,0.28125,0.75
1631018761375,-0.5625,0.28125,0.765625
1631018761406,-0.5625,0.28125,0.765625
1631018761437,-0.5625,0.28125,0.75
1631018761468,-0.5625,0.28125,0.765625
1631018761500,-0.5625,0.28125,0.75
1631018761531,-0.5625,0.28125,0.75
1631018761562,-0.5625,0.28125,0.75
1631018761593,-0.5625,0.28125,0.765625
1631018761625,-0.5625,0.28125,0.75
1631018761656,-0.5625,0.265625,0.765625
1631018761687,-0.578125,0.296875,0.765625
1631018761718,-0.5625,0.28125,0.765625
1631018761750,-0.5625,0.265625,0.75
1631018761781,-0.59375,0.28125,0.75
1631018761812,-0.578125,0.28125,0.75
1631018761843,-0.5625,0.265625,0.734375
1631018761875,-0.484375,0.28125,0.8125
1631018761906,-0.59375,0.28125,0.734375
1631018761937,-0.609375,0.265625,0.71875
1631018761968,-0.671875,0.28125,0.703125
1631018762000,-0.65625,0.28125,0.703125
1631018762031,-0.6875,0.25,0.671875
1631018762062,-0.640625,0.265625,0.703125
1631018762093,-0.6875,0.25,0.65625
1631018762125,-0.6875,0.265625,0.703125
1631018762156,-0.625,0.265625,0.734375
1631018762187,-0.796875,0.3125,0.609375
1631018762218,-0.796875,0.3125,0.421875
1631018762250,-0.78125,0.28125,0.390625
1631018762281,-0.828125,0.21875,0.46875
1631018762312,-0.90625,0.25,0.4375
1631018762343,-0.90625,0.140625,0.375
1631018762375,-1.140625,0.09375,0.234375
1631018762406,-1.15625,0.046875,0.15625
1631018762437,-1.03125,0.0625,0.1875
1631018762468,-0.984375,0.0625,0.15625
1631018762500,-0.859375,0.109375,0.15625
1631018762531,-0.953125,0.140625,0.125
1631018762562,-0.984375,0.140625,0.09375
1631018762593,-0.90625,0.140625,0.1875
1631018762625,-0.875,0.09375,0.203125
1631018762656,-0.921875,0.125,0.203125
1631018762687,-0.84375,0.15625,0.28125
1631018762718,-0.84375,0.15625,0.3125
1631018762750,-0.875,0.1875,0.4375
1631018762781,-0.984375,0.1875,0.46875
1631018762812,-0.8125,0.1875,0.640625
1631018762843,-0.484375,0.21875,1.015625
1631018762875,-0.4375,0.25,0.96875
1631018762906,-0.703125,0.25,0.625
1631018762937,-0.859375,0.265625,0.5625
1631018762968,-0.84375,0.28125,0.578125
1631018763000,-0.71875,0.25,0.640625
1631018763031,-0.75,0.234375,0.625
1631018763062,-0.71875,0.203125,0.625
1631018763093,-0.75,0.15625,0.5625
1631018763125,-0.71875,0.171875,0.625
1631018763156,-0.703125,0.171875,0.65625
1631018763187,-0.71875,0.203125,0.640625
1631018763218,-0.75,0.296875,0.578125
1631018763250,-0.796875,0.3125,0.5625
1631018763281,-0.78125,0.3125,0.5625
1631018763312,-0.8125,0.296875,0.515625
1631018763343,-0.8125,0.25,0.5625
1631018763375,-0.765625,0.234375,0.5625
1631018763406,-0.765625,0.265625,0.578125
1631018763437,-0.78125,0.265625,0.5625
1631018763468,-0.765625,0.3125,0.5625
1631018763500,-0.75,0.3125,0.59375
1631018763531,-0.765625,0.28125,0.578125
1631018763562,-0.78125,0.25,0.5625
1631018763593,-0.78125,0.21875,0.546875
1631018763625,-0.703125,0.25,0.609375
1631018763656,-0.75,0.25,0.578125
1631018763687,-0.71875,0.296875,0.640625
1631018763718,-0.828125,0.28125,0.515625
1631018763750,-0.765625,0.34375,0.5625
1631018763781,-0.75,0.34375,0.578125
1631018763812,-0.765625,0.296875,0.578125
1631018763843,-0.765625,0.265625,0.578125
1631018763875,-0.734375,0.265625,0.59375
1631018763906,-0.734375,0.265625,0.59375
1631018763937,-0.71875,0.265625,0.609375
1631018763968,-0.765625,0.28125,0.578125
1631018764000,-0.765625,0.28125,0.578125
1631018764031,-0.75,0.28125,0.59375
1631018764062,-0.75,0.28125,0.59375
1631018764093,-0.75,0.28125,0.59375
1631018764125,-0.734375,0.28125,0.59375
1631018764156,-0.75,0.28125,0.59375
1631018764187,-0.75,0.28125,0.59375
1631018764218,-0.75,0.28125,0.59375
1631018764250,-0.75,0.28125,0.578125
1631018764281,-0.75,0.28125,0.59375
1631018764312,-0.75,0.28125,0.609375
1631018764343,-0.75,0.28125,0.59375
1631018764375,-0.765625,0.28125,0.578125
1631018764406,-0.75,0.28125,0.59375
1631018764437,-0.75,0.28125,0.59375
1631018764468,-0.75,0.28125,0.59375
1631018764500,-0.75,0.28125,0.59375
1631018764531,-0.75,0.28125,0.59375
1631018764562,-0.75,0.28125,0.59375
1631018764593,-0.75,0.28125,0.59375
1631018764625,-0.75,0.28125,0.59375
1631018764656,-0.75,0.28125,0.59375
1631018764687,-0.75,0.28125,0.59375
1631018764718,-0.75,0.28125,0.578125
1631018764750,-0.75,0.28125,0.59375
1631018764781,-0.75,0.28125,0.59375
1631018764812,-0.75,0.28125,0.59375
1631018764843,-0.75,0.28125,0.59375
1631018764875,-0.75,0.28125,0.59375
1631018764906,-0.734375,0.28125,0.59375
1631018764937,-0.75,0.28125,0.59375
1631018764968,-0.75,0.28125,0.59375
1631018765000,-0.75,0.28125,0.59375
1631018765031,-0.75,0.28125,0.59375
1631018765062,-0.75,0.28125,0.59375
1631018765093,-0.75,0.28125,0.59375
1631018765125,-0.75,0.28125,0.59375
1631018765156,-0.75,0.28125,0.59375
1631018765187,-0.75,0.28125,0.59375
1631018765218,-0.75,0.28125,0.59375
1631018765250,-0.75,0.28125,0.59375
1631018765281,-0.75,0.28125,0.578125
1631018765312,-0.75,0.28125,0.59375
1631018765343,-0.75,0.28125,0.59375
1631018765375,-0.75,0.28125,0.59375
1631018765406,-0.75,0.28125,0.59375
1631018765437,-0.75,0.265625,0.59375
1631018765468,-0.75,0.28125,0.59375
1631018765500,-0.75,0.265625,0.578125
1631018765531,-0.75,0.265625,0.578125
1631018765562,-0.75,0.265625,0.59375
1631018765593,-0.734375,0.265625,0.59375
1631018765625,-0.734375,0.28125,0.59375
1631018765656,-0.765625,0.28125,0.609375
1631018765687,-0.75,0.296875,0.609375
1631018765718,-0.71875,0.296875,0.59375
1631018765750,-0.75,0.296875,0.578125
1631018765781,-0.75,0.28125,0.59375
1631018765812,-0.75,0.265625,0.625
1631018765843,-0.71875,0.265625,0.609375
1631018765875,-0.765625,0.265625,0.59375
1631018765906,-0.75,0.265625,0.59375
1631018765937,-0.71875,0.265625,0.59375
1631018765968,-0.734375,0.265625,0.59375
1631018766000,-0.75,0.28125,0.625
1631018766031,-0.734375,0.296875,0.625
1631018766062,-0.765625,0.28125,0.578125
1631018766093,-0.71875,0.28125,0.625
1631018766125,-0.734375,0.28125,0.609375
1631018766156,-0.75,0.28125,0.59375
1631018766187,-0.734375,0.28125,0.59375
1631018766218,-0.734375,0.28125,0.625
1631018766250,-0.734375,0.28125,0.625
1631018766281,-0.75,0.265625,0.609375
1631018766312,-0.75,0.265625,0.609375
1631018766343,-0.75,0.265625,0.609375
1631018766375,-0.75,0.265625,0.609375
1631018766406,-0.734375,0.265625,0.59375
1631018766437,-0.734375,0.265625,0.609375
1631018766468,-0.734375,0.265625,0.609375
1631018766500,-0.734375,0.265625,0.59375
1631018766531,-0.734375,0.265625,0.609375
1631018766562,-0.75,0.28125,0.609375
1631018766593,-0.734375,0.265625,0.609375
1631018766625,-0.734375,0.265625,0.625
1631018766656,-0.734375,0.265625,0.609375
1631018766687,-0.734375,0.265625,0.609375
1631018766718,-0.734375,0.265625,0.625
1631018766750,-0.734375,0.265625,0.625
1631018766781,-0.71875,0.265625,0.625
1631018766812,-0.734375,0.265625,0.625
1631018766843,-0.734375,0.28125,0.609375
1631018766875,-0.734375,0.28125,0.625
1631018766906,-0.71875,0.265625,0.609375
1631018766937,-0.734375,0.265625,0.609375
1631018766968,-0.734375,0.265625,0.625
1631018767000,-0.734375,0.265625,0.625
1631018767031,-0.71875,0.265625,0.625
1631018767062,-0.734375,0.265625,0.625
1631018767093,-0.75,0.265625,0.59375
1631018767125,-0.75,0.265625,0.609375
1631018767156,-0.71875,0.265625,0.625
1631018767187,-0.734375,0.265625,0.625
1631018767218,-0.734375,0.265625,0.609375
1631018767250,-0.734375,0.265625,0.625
1631018767281,-0.734375,0.265625,0.625
1631018767312,-0.734375,0.265625,0.609375
1631018767343,-0.734375,0.265625,0.609375
1631018767375,-0.734375,0.265625,0.625
1631018767406,-0.734375,0.265625,0.625
1631018767437,-0.734375,0.265625,0.625
1631018767468,-0.734375,0.265625,0.609375
1631018767500,-0.71875,0.265625,0.609375
1631018767531,-0.734375,0.265625,0.625
1631018767562,-0.734375,0.265625,0.625
1631018767593,-0.734375,0.265625,0.625
1631018767625,-0.734375,0.265625,0.625
1631018767656,-0.734375,0.25,0.625
1631018767687,-0.734375,0.265625,0.625
1631018767718,-0.734375,0.265625,0.625
1631018767750,-0.734375,0.265625,0.625
1631018767781,-0.734375,0.265625,0.625
1631018767812,-0.734375,0.265625,0.625
1631018767843,-0.734375,0.265625,0.609375
1631018767875,-0.734375,0.265625,0.625
1631018767906,-0.734375,0.265625,0.625
1631018767937,-0.734375,0.265625,0.625
1631018767968,-0.734375,0.265625,0.625
1631018768000,-0.734375,0.265625,0.625
1631018768031,-0.734375,0.265625,0.625
1631018768062,-0.734375,0.265625,0.625
1631018768093,-0.734375,0.265625,0.625
1631018768125,-0.734375,0.265625,0.625
1631018768156,-0.71875,0.25,0.625
1631018768187,-0.734375,0.265625,0.625
1631018768218,-0.71875,0.265625,0.625
1631018768250,-0.734375,0.265625,0.625
1631018768281,-0.734375,0.265625,0.625
1631018768312,-0.734375,0.265625,0.625
1631018768343,-0.734375,0.265625,0.625
1631018768375,-0.734375,0.265625,0.625
1631018768406,-0.734375,0.265625,0.625
1631018768437,-0.734375,0.25,0.625
1631018768468,-0.71875,0.265625,0.625
1631018768500,-0.734375,0.265625,0.625
1631018768531,-0.734375,0.265625,0.625
1631018768562,-0.734375,0.265625,0.625
1631018768593,-0.734375,0.265625,0.609375
1631018768625,-0.734375,0.265625,0.625
1631018768656,-0.71875,0.265625,0.625
1631018768687,-0.71875,0.265625,0.625
1631018768718,-0.71875,0.265625,0.625
1631018768750,-0.71875,0.265625,0.625
1631018768781,-0.71875,0.265625,0.625
1631018768812,-0.71875,0.265625,0.625
1631018768843,-0.71875,0.265625,0.625
1631018768875,-0.71875,0.265625,0.625
1631018768906,-0.71875,0.265625,0.625
1631018768937,-0.71875,0.265625,0.625
1631018768968,-0.71875,0.265625,0.625
1631018769000,-0.71875,0.265625,0.625
1631018769031,-0.71875,0.265625,0.625
1631018769062,-0.71875,0.265625,0.625
1631018769093,-0.71875,0.265625,0.625
1631018769125,-0.71875,0.265625,0.625
1631018769156,-0.71875,0.265625,0.625
1631018769187,-0.71875,0.265625,0.625
1631018769218,-0.71875,0.265625,0.625
1631018769250,-0.71875,0.265625,0.625
1631018769281,-0.71875,0.265625,0.625
1631018769312,-0.71875,0.265625,0.625
1631018769343,-0.71875,0.265625,0.625
1631018769375,-0.71875,0.265625,0.625
1631018769406,-0.71875,0.265625,0.625
1631018769437,-0.71875,0.265625,0.625
1631018769468,-0.71875,0.265625,0.625
1631018769500,-0.71875,0.265625,0.625
1631018769531,-0.71875,0.265625,0.625
1631018769562,-0.71875,0.265625,0.625
1631018769593,-0.71875,0.265625,0.640625
1631018769625,-0.71875,0.265625,0.625
1631018769656,-0.71875,0.265625,0.625
1631018769687,-0.71875,0.265625,0.625
1631018769718,-0.71875,0.265625,0.640625
1631018769750,-0.71875,0.25,0.625
1631018769781,-0.71875,0.265625,0.625
1631018769812,-0.71875,0.25,0.625
1631018769843,-0.71875,0.265625,0.640625
1631018769875,-0.71875,0.265625,0.625
1631018769906,-0.71875,0.265625,0.640625
1631018769937,-0.71875,0.265625,0.640625
1631018769968,-0.71875,0.265625,0.640625
1631018770000,-0.71875,0.265625,0.640625
1631018770031,-0.71875,0.25,0.625
1631018770062,-0.71875,0.25,0.625
1631018770093,-0.71875,0.265625,0.625
1631018770125,-0.71875,0.265625,0.640625
1631018770156,-0.71875,0.265625,0.625
1631018770187,-0.71875,0.265625,0.625
1631018770218,-0.71875,0.265625,0.625
1631018770250,-0.71875,0.265625,0.625
1631018770281,-0.71875,0.265625,0.625
1631018770312,-0.71875,0.265625,0.625
1631018770343,-0.71875,0.265625,0.640625
1631018770375,-0.71875,0.265625,0.640625
1631018770406,-0.71875,0.265625,0.640625
1631018770437,-0.71875,0.265625,0.625
1631018770468,-0.71875,0.265625,0.625
1631018770500,-0.71875,0.25,0.625
1631018770531,-0.71875,0.25,0.640625
1631018770562,-0.71875,0.25,0.625
1631018770593,-0.71875,0.265625,0.625
1631018770625,-0.71875,0.265625,0.625
1631018770656,-0.71875,0.265625,0.640625
1631018770687,-0.71875,0.25,0.640625
1631018770718,-0.71875,0.265625,0.625
1631018770750,-0.71875,0.265625,0.625
1631018770781,-0.71875,0.25,0.625
1631018770812,-0.71875,0.25,0.625
1631018770843,-0.71875,0.265625,0.625
1631018770875,-0.71875,0.265625,0.625
1631018770906,-0.71875,0.265625,0.640625
1631018770937,-0.71875,0.265625,0.640625
1631018770968,-0.71875,0.265625,0.625
1631018771000,-0.71875,0.25,0.625
1631018771031,-0.71875,0.25,0.625
1631018771062,-0.71875,0.265625,0.625
1631018771093,-0.71875,0.25,0.640625
1631018771125,-0.71875,0.25,0.640625
1631018771156,-0.71875,0.265625,0.640625
1631018771187,-0.71875,0.25,0.640625
1631018771218,-0.71875,0.25,0.640625
1631018771250,-0.71875,0.25,0.625
1631018771281,-0.71875,0.265625,0.625
1631018771312,-0.71875,0.265625,0.640625
1631018771343,-0.71875,0.25,0.625
1631018771375,-0.71875,0.25,0.640625
1631018771406,-0.71875,0.25,0.625
1631018771437,-0.71875,0.265625,0.640625
1631018771468,-0.71875,0.25,0.640625
1631018771500,-0.71875,0.25,0.640625
1631018771531,-0.71875,0.265625,0.640625
1631018771562,-0.71875,0.25,0.640625
1631018771593,-0.71875,0.265625,0.640625
1631018771625,-0.71875,0.25,0.640625
1631018771656,-0.71875,0.25,0.640625
1631018771687,-0.71875,0.265625,0.640625
1631018771718,-0.71875,0.25,0.640625
1631018771750,-0.71875,0.25,0.640625
1631018771781,-0.71875,0.25,0.640625
1631018771812,-0.71875,0.25,0.640625
1631018771843,-0.71875,0.25,0.625
1631018771875,-0.71875,0.265625,0.640625
1631018771906,-0.71875,0.25,0.640625
1631018771937,-0.71875,0.25,0.640625
1631018771968,-0.71875,0.265625,0.640625
1631018772000,-0.71875,0.265625,0.640625
1631018772031,-0.71875,0.25,0.640625
1631018772062,-0.71875,0.25,0.640625
1631018772093,-0.71875,0.25,0.640625
1631018772125,-0.71875,0.25,0.640625
1631018772156,-0.71875,0.265625,0.640625
1631018772187,-0.71875,0.25,0.640625
1631018772218,-0.71875,0.25,0.640625
1631018772250,-0.71875,0.25,0.640625
1631018772281,-0.71875,0.25,0.640625
1631018772312,-0.71875,0.25,0.640625
1631018772343,-0.71875,0.25,0.640625
1631018772375,-0.71875,0.25,0.640625
1631018772406,-0.71875,0.25,0.640625
1631018772437,-0.71875,0.25,0.640625
1631018772468,-0.71875,0.25,0.640625
1631018772500,-0.71875,0.25,0.640625
1631018772531,-0.71875,0.25,0.640625
1631018772562,-0.71875,0.265625,0.640625
1631018772593,-0.71875,0.25,0.640625
1631018772625,-0.71875,0.25,0.640625
1631018772656,-0.71875,0.25,0.640625
1631018772687,-0.71875,0.25,0.640625
1631018772718,-0.71875,0.25,0.640625
1631018772750,-0.71875,0.25,0.640625
1631018772781,-0.71875,0.25,0.640625
1631018772812,-0.71875,0.25,0.640625
1631018772843,-0.71875,0.25,0.640625
1631018772875,-0.71875,0.25,0.640625
1631018772906,-0.71875,0.25,0.640625
1631018772937,-0.71875,0.25,0.640625
1631018772968,-0.71875,0.25,0.640625
1631018773000,-0.71875,0.25,0.640625
1631018773031,-0.71875,0.25,0.640625
1631018773062,-0.71875,0.25,0.640625
1631018773093,-0.71875,0.25,0.640625
1631018773125,-0.71875,0.25,0.640625
1631018773156,-0.71875,0.25,0.640625
1631018773187,-0.71875,0.25,0.640625
1631018773218,-0.71875,0.25,0.640625
1631018773250,-0.71875,0.25,0.640625
1631018773281,-0.71875,0.25,0.640625
1631018773312,-0.71875,0.25,0.640625
1631018773343,-0.71875,0.25,0.640625
1631018773375,-0.71875,0.265625,0.640625
1631018773406,-0.71875,0.25,0.640625
1631018773437,-0.71875,0.25,0.640625
1631018773468,-0.71875,0.25,0.640625
1631018773500,-0.71875,0.265625,0.640625
1631018773531,-0.71875,0.25,0.640625
1631018773562,-0.71875,0.25,0.640625
1631018773593,-0.71875,0.25,0.640625
1631018773625,-0.71875,0.25,0.640625
1631018773656,-0.71875,0.25,0.640625
1631018773687,-0.71875,0.265625,0.640625
1631018773718,-0.71875,0.25,0.625
1631018773750,-0.71875,0.25,0.640625
1631018773781,-0.71875,0.25,0.640625
1631018773812,-0.71875,0.25,0.640625
1631018773843,-0.71875,0.25,0.640625
1631018773875,-0.71875,0.25,0.640625
1631018773906,-0.71875,0.25,0.640625
1631018773937,-0.71875,0.25,0.640625
1631018773968,-0.71875,0.25,0.640625
1631018774000,-0.71875,0.25,0.640625
1631018774031,-0.71875,0.25,0.640625
1631018774062,-0.71875,0.25,0.640625
1631018774093,-0.71875,0.25,0.640625
1631018774125,-0.71875,0.25,0.640625
1631018774156,-0.71875,0.25,0.640625
1631018774187,-0.71875,0.25,0.640625
1631018774218,-0.71875,0.25,0.640625
1631018774250,-0.71875,0.265625,0.640625
1631018774281,-0.71875,0.25,0.640625
1631018774312,-0.71875,0.25,0.640625
1631018774343,-0.71875,0.25,0.640625
1631018774375,-0.71875,0.25,0.640625
1631018774406,-0.71875,0.25,0.640625
1631018774437,-0.71875,0.25,0.640625
1631018774468,-0.71875,0.25,0.640625
1631018774500,-0.71875,0.25,0.640625
1631018774531,-0.71875,0.25,0.640625
1631018774562,-0.71875,0.25,0.640625
1631018774593,-0.71875,0.25,0.640625
1631018774625,-0.71875,0.25,0.640625
1631018774656,-0.703125,0.25,0.640625
1631018774687,-0.71875,0.25,0.640625
1631018774718,-0.71875,0.25,0.640625
1631018774750,-0.71875,0.25,0.640625
1631018774781,-0.71875,0.25,0.640625
1631018774812,-0.71875,0.25,0.640625
1631018774843,-0.71875,0.25,0.640625
1631018774875,-0.703125,0.25,0.640625
1631018774906,-0.71875,0.265625,0.640625
1631018774937,-0.703125,0.25,0.640625
1631018774968,-0.703125,0.25,0.640625
1631018775000,-0.703125,0.25,0.640625
1631018775031,-0.71875,0.25,0.640625
1631018775062,-0.703125,0.25,0.640625
1631018775093,-0.71875,0.25,0.640625
1631018775125,-0.703125,0.25,0.640625
1631018775156,-0.703125,0.25,0.640625
1631018775187,-0.71875,0.25,0.640625
1631018775218,-0.703125,0.25,0.640625
1631018775250,-0.703125,0.25,0.640625
1631018775281,-0.703125,0.25,0.640625
1631018775312,-0.71875,0.25,0.640625
1631018775343,-0.703125,0.25,0.640625
1631018775375,-0.703125,0.25,0.640625
1631018775406,-0.703125,0.25,0.640625
1631018775437,-0.703125,0.25,0.640625
1631018775468,-0.703125,0.25,0.640625
1631018775500,-0.71875,0.25,0.640625
1631018775531,-0.703125,0.25,0.640625
1631018775562,-0.703125,0.25,0.640625
1631018775593,-0.703125,0.25,0.640625
1631018775625,-0.703125,0.25,0.640625
1631018775656,-0.71875,0.25,0.640625
1631018775687,-0.703125,0.25,0.640625
1631018775718,-0.71875,0.25,0.640625
1631018775750,-0.71875,0.25,0.640625
1631018775781,-0.71875,0.25,0.640625
1631018775812,-0.703125,0.25,0.640625
1631018775843,-0.71875,0.25,0.640625
1631018775875,-0.703125,0.25,0.65625
1631018775906,-0.703125,0.25,0.640625
1631018775937,-0.71875,0.25,0.640625
1631018775968,-0.71875,0.25,0.640625
1631018776000,-0.71875,0.25,0.640625
1631018776031,-0.71875,0.25,0.640625
1631018776062,-0.71875,0.25,0.640625
1631018776093,-0.71875,0.25,0.640625
1631018776125,-0.703125,0.25,0.640625
1631018776156,-0.71875,0.25,0.640625
1631018776187,-0.71875,0.25,0.640625
1631018776218,-0.71875,0.25,0.640625
1631018776250,-0.71875,0.25,0.640625
1631018776281,-0.71875,0.25,0.640625
1631018776312,-0.71875,0.25,0.640625
1631018776343,-0.71875,0.25,0.640625
1631018776375,-0.71875,0.25,0.640625
1631018776406,-0.703125,0.25,0.640625
1631018776437,-0.71875,0.25,0.640625
1631018776468,-0.71875,0.25,0.640625
1631018776500,-0.703125,0.25,0.640625
1631018776531,-0.71875,0.25,0.640625
1631018776562,-0.71875,0.25,0.640625
1631018776593,-0.71875,0.25,0.640625
1631018776625,-0.71875,0.25,0.640625
1631018776656,-0.71875,0.25,0.640625
1631018776687,-0.71875,0.25,0.640625
1631018776718,-0.71875,0.25,0.640625
1631018776750,-0.71875,0.25,0.640625
1631018776781,-0.71875,0.25,0.640625
1631018776812,-0.703125,0.25,0.640625
1631018776843,-0.71875,0.25,0.640625
1631018776875,-0.71875,0.25,0.640625
1631018776906,-0.71875,0.25,0.640625
1631018776937,-0.71875,0.25,0.640625
1631018776968,-0.703125,0.25,0.65625
1631018777000,-0.703125,0.25,0.65625
1631018777031,-0.71875,0.25,0.640625
1631018777062,-0.703125,0.25,0.640625
1631018777093,-0.703125,0.25,0.640625
1631018777125,-0.703125,0.25,0.640625
1631018777156,-0.71875,0.25,0.640625
1631018777187,-0.703125,0.25,0.640625
1631018777218,-0.71875,0.25,0.640625
1631018777250,-0.703125,0.25,0.640625
1631018777281,-0.71875,0.25,0.640625
1631018777312,-0.71875,0.25,0.640625
1631018777343,-0.703125,0.25,0.640625
1631018777375,-0.71875,0.25,0.640625
1631018777406,-0.703125,0.25,0.640625
1631018777437,-0.703125,0.25,0.65625
1631018777468,-0.703125,0.25,0.640625
1631018777500,-0.703125,0.25,0.65625
1631018777531,-0.703125,0.25,0.640625
1631018777562,-0.703125,0.25,0.65625
1631018777593,-0.71875,0.25,0.640625
1631018777625,-0.703125,0.25,0.640625
1631018777656,-0.703125,0.265625,0.640625
1631018777687,-0.703125,0.25,0.65625
1631018777718,-0.71875,0.25,0.640625
1631018777750,-0.703125,0.25,0.65625
1631018777781,-0.703125,0.25,0.65625
1631018777812,-0.703125,0.25,0.640625
1631018777843,-0.71875,0.25,0.640625
1631018777875,-0.703125,0.25,0.640625
1631018777906,-0.703125,0.25,0.640625
1631018777937,-0.703125,0.25,0.640625
1631018777968,-0.71875,0.25,0.640625
1631018778000,-0.703125,0.25,0.65625
1631018778031,-0.703125,0.25,0.640625
1631018778062,-0.71875,0.25,0.640625
1631018778093,-0.71875,0.25,0.640625
1631018778125,-0.703125,0.25,0.640625
1631018778156,-0.703125,0.25,0.640625
1631018778187,-0.703125,0.25,0.65625
1631018778218,-0.703125,0.25,0.640625
1631018778250,-0.703125,0.25,0.640625
1631018778281,-0.71875,0.25,0.640625
1631018778312,-0.71875,0.25,0.640625
1631018778343,-0.71875,0.25,0.640625
1631018778375,-0.71875,0.25,0.640625
1631018778406,-0.71875,0.25,0.640625
1631018778437,-0.71875,0.25,0.640625
1631018778468,-0.703125,0.25,0.640625
1631018778500,-0.703125,0.25,0.65625
1631018778531,-0.703125,0.25,0.640625
1631018778562,-0.703125,0.25,0.640625
1631018778593,-0.703125,0.25,0.640625
1631018778625,-0.71875,0.25,0.640625
1631018778656,-0.71875,0.25,0.640625
1631018778687,-0.71875,0.25,0.640625
1631018778718,-0.703125,0.25,0.640625
1631018778750,-0.703125,0.25,0.640625
1631018778781,-0.703125,0.25,0.640625
1631018778812,-0.703125,0.25,0.65625
1631018778843,-0.71875,0.25,0.640625
1631018778875,-0.71875,0.25,0.640625
1631018778906,-0.703125,0.25,0.640625
1631018778937,-0.71875,0.25,0.65625
1631018778968,-0.703125,0.25,0.640625
1631018779000,-0.71875,0.25,0.640625
1631018779031,-0.71875,0.25,0.640625
1631018779062,-0.71875,0.25,0.640625
1631018779093,-0.703125,0.25,0.640625
1631018779125,-0.703125,0.25,0.640625
1631018779156,-0.703125,0.25,0.65625
1631018779187,-0.71875,0.25,0.65625
1631018779218,-0.703125,0.25,0.640625
1631018779250,-0.71875,0.25,0.640625
1631018779281,-0.703125,0.25,0.640625
1631018779312,-0.71875,0.25,0.640625
1631018779343,-0.703125,0.25,0.640625
1631018779375,-0.703125,0.25,0.640625
1631018779406,-0.703125,0.25,0.640625
1631018779437,-0.703125,0.25,0.640625
1631018779468,-0.703125,0.25,0.640625
1631018779500,-0.703125,0.25,0.640625
1631018779531,-0.703125,0.25,0.640625
1631018779562,-0.703125,0.25,0.640625
1631018779593,-0.71875,0.25,0.65625
1631018779625,-0.703125,0.25,0.640625
1631018779656,-0.703125,0.25,0.65625
1631018779687,-0.703125,0.25,0.65625
1631018779718,-0.703125,0.25,0.65625
1631018779750,-0.703125,0.25,0.640625
1631018779781,-0.703125,0.25,0.640625
1631018779812,-0.703125,0.25,0.65625
1631018779843,-0.703125,0.25,0.65625
1631018779875,-0.703125,0.25,0.65625
1631018779906,-0.703125,0.25,0.65625
1631018779937,-0.703125,0.25,0.65625
1631018779968,-0.703125,0.25,0.640625
1631018780000,-0.703125,0.25,0.640625
1631018780031,-0.703125,0.25,0.65625
1631018780062,-0.703125,0.25,0.65625
1631018780093,-0.703125,0.25,0.65625
1631018780125,-0.703125,0.25,0.65625
1631018780156,-0.703125,0.25,0.65625
1631018780187,-0.703125,0.25,0.640625
1631018780218,-0.703125,0.25,0.65625
1631018780250,-0.703125,0.25,0.640625
1631018780281,-0.703125,0.25,0.65625
1631018780312,-0.703125,0.25,0.65625
1631018780343,-0.703125,0.25,0.65625
1631018780375,-0.703125,0.25,0.65625
1631018780406,-0.703125,0.25,0.640625
1631018780437,-0.703125,0.25,0.65625
1631018780468,-0.703125,0.25,0.65625
1631018780500,-0.703125,0.25,0.640625
1631018780531,-0.71875,0.25,0.640625
1631018780562,-0.703125,0.25,0.640625
1631018780593,-0.703125,0.25,0.640625
1631018780625,-0.703125,0.25,0.640625
1631018780656,-0.71875,0.25,0.65625
1631018780687,-0.71875,0.25,0.65625
1631018780718,-0.703125,0.25,0.640625
1631018780750,-0.703125,0.25,0.640625
1631018780781,-0.703125,0.25,0.65625
1631018780812,-0.71875,0.25,0.640625
1631018780843,-0.71875,0.25,0.640625
1631018780875,-0.703125,0.25,0.640625
1631018780906,-0.703125,0.25,0.640625
1631018780937,-0.71875,0.25,0.640625
1631018780968,-0.71875,0.25,0.640625
1631018781000,-0.71875,0.25,0.640625
1631018781031,-0.71875,0.25,0.640625
1631018781062,-0.71875,0.25,0.640625
1631018781093,-0.71875,0.25,0.65625
1631018781125,-0.703125,0.25,0.640625
1631018781156,-0.703125,0.25,0.640625
1631018781187,-0.71875,0.25,0.640625
1631018781218,-0.703125,0.25,0.640625
1631018781250,-0.71875,0.25,0.640625
1631018781281,-0.71875,0.25,0.640625
1631018781312,-0.71875,0.25,0.640625
1631018781343,-0.703125,0.25,0.640625
1631018781375,-0.71875,0.25,0.65625
1631018781406,-0.703125,0.25,0.640625
1631018781437,-0.71875,0.25,0.640625
1631018781468,-0.703125,0.25,0.640625
1631018781500,-0.703125,0.25,0.640625
1631018781531,-0.71875,0.25,0.640625
1631018781562,-0.71875,0.25,0.640625
1631018781593,-0.703125,0.25,0.640625
1631018781625,-0.71875,0.25,0.640625
1631018781656,-0.703125,0.25,0.640625
1631018781687,-0.71875,0.25,0.640625
1631018781718,-0.703125,0.25,0.640625
1631018781750,-0.703125,0.25,0.640625
1631018781781,-0.703125,0.25,0.65625
1631018781812,-0.71875,0.25,0.640625
1631018781843,-0.703125,0.25,0.65625
1631018781875,-0.703125,0.25,0.65625
1631018781906,-0.71875,0.25,0.65625
1631018781937,-0.71875,0.25,0.640625
1631018781968,-0.703125,0.25,0.640625
1631018782000,-0.71875,0.25,0.640625
1631018782031,-0.703125,0.25,0.640625
1631018782062,-0.703125,0.25,0.640625
1631018782093,-0.703125,0.25,0.65625
1631018782125,-0.703125,0.25,0.640625
1631018782156,-0.703125,0.25,0.640625
1631018782187,-0.703125,0.25,0.640625
1631018782218,-0.703125,0.25,0.640625
1631018782250,-0.703125,0.25,0.640625
1631018782281,-0.703125,0.25,0.640625
1631018782312,-0.703125,0.25,0.65625
1631018782343,-0.703125,0.25,0.640625
1631018782375,-0.703125,0.25,0.65625
1631018782406,-0.703125,0.25,0.640625
1631018782437,-0.703125,0.25,0.640625
1631018782468,-0.703125,0.25,0.640625
1631018782500,-0.703125,0.25,0.640625
1631018782531,-0.703125,0.25,0.65625
1631018782562,-0.703125,0.25,0.65625
1631018782593,-0.703125,0.25,0.640625
1631018782625,-0.703125,0.25,0.640625
1631018782656,-0.703125,0.25,0.640625
1631018782687,-0.703125,0.25,0.640625
1631018782718,-0.703125,0.25,0.640625
1631018782750,-0.703125,0.25,0.640625
1631018782781,-0.703125,0.25,0.65625
1631018782812,-0.703125,0.25,0.65625
1631018782843,-0.703125,0.25,0.65625
1631018782875,-0.703125,0.25,0.640625
1631018782906,-0.703125,0.25,0.65625
1631018782937,-0.703125,0.25,0.65625
1631018782968,-0.703125,0.25,0.65625
1631018783000,-0.703125,0.25,0.65625
1631018783031,-0.703125,0.25,0.640625
1631018783062,-0.703125,0.25,0.640625
1631018783093,-0.703125,0.25,0.640625
1631018783125,-0.703125,0.25,0.640625
1631018783156,-0.703125,0.25,0.640625
1631018783187,-0.71875,0.25,0.640625
1631018783218,-0.703125,0.25,0.65625
1631018783250,-0.703125,0.25,0.65625
1631018783281,-0.71875,0.25,0.640625
1631018783312,-0.703125,0.25,0.65625
1631018783343,-0.703125,0.25,0.640625
1631018783375,-0.703125,0.25,0.640625
1631018783406,-0.703125,0.25,0.640625
1631018783437,-0.703125,0.25,0.65625
1631018783468,-0.703125,0.25,0.640625
1631018783500,-0.71875,0.25,0.640625
1631018783531,-0.71875,0.25,0.640625
1631018783562,-0.703125,0.25,0.65625
1631018783593,-0.703125,0.25,0.640625
1631018783625,-0.703125,0.25,0.640625
1631018783656,-0.703125,0.25,0.640625
1631018783687,-0.71875,0.25,0.640625
1631018783718,-0.703125,0.25,0.65625
1631018783750,-0.71875,0.25,0.640625
1631018783781,-0.71875,0.25,0.640625
1631018783812,-0.71875,0.25,0.640625
1631018783843,-0.71875,0.25,0.640625
1631018783875,-0.703125,0.25,0.65625
1631018783906,-0.71875,0.25,0.640625
1631018783937,-0.71875,0.25,0.640625
1631018783968,-0.71875,0.25,0.640625
1631018784000,-0.703125,0.25,0.640625
1631018784031,-0.71875,0.25,0.65625
1631018784062,-0.71875,0.25,0.640625
1631018784093,-0.703125,0.25,0.65625
1631018784125,-0.71875,0.25,0.640625
1631018784156,-0.703125,0.25,0.640625
1631018784187,-0.71875,0.25,0.640625
1631018784218,-0.71875,0.25,0.640625
1631018784250,-0.703125,0.25,0.65625
1631018784281,-0.703125,0.25,0.640625
1631018784312,-0.703125,0.25,0.640625
1631018784343,-0.703125,0.25,0.640625
1631018784375,-0.71875,0.25,0.65625
1631018784406,-0.703125,0.25,0.65625
1631018784437,-0.71875,0.25,0.640625
1631018784468,-0.703125,0.25,0.65625
1631018784500,-0.703125,0.25,0.640625
1631018784531,-0.703125,0.25,0.640625
1631018784562,-0.703125,0.25,0.640625
1631018784593,-0.703125,0.25,0.640625
1631018784625,-0.703125,0.25,0.640625
1631018784656,-0.703125,0.25,0.640625
1631018784687,-0.703125,0.25,0.640625
1631018784718,-0.703125,0.25,0.640625
1631018784750,-0.703125,0.25,0.640625
1631018784781,-0.703125,0.25,0.65625
1631018784812,-0.703125,0.25,0.640625
1631018784843,-0.703125,0.25,0.640625
1631018784875,-0.703125,0.25,0.65625
1631018784906,-0.703125,0.25,0.640625
1631018784937,-0.703125,0.25,0.640625
1631018784968,-0.703125,0.25,0.640625
1631018785000,-0.703125,0.25,0.640625
1631018785031,-0.703125,0.25,0.65625
1631018785062,-0.703125,0.25,0.640625
1631018785093,-0.703125,0.25,0.65625
1631018785125,-0.703125,0.25,0.65625
1631018785156,-0.703125,0.25,0.65625
1631018785187,-0.703125,0.25,0.640625
1631018785218,-0.703125,0.25,0.65625
1631018785250,-0.703125,0.25,0.640625
1631018785281,-0.703125,0.25,0.65625
1631018785312,-0.703125,0.25,0.65625
1631018785343,-0.703125,0.25,0.65625
1631018785375,-0.703125,0.25,0.640625
1631018785406,-0.703125,0.25,0.640625
1631018785437,-0.703125,0.25,0.640625
1631018785468,-0.703125,0.25,0.65625
1631018785500,-0.703125,0.25,0.65625
1631018785531,-0.703125,0.25,0.640625
1631018785562,-0.703125,0.25,0.640625
1631018785593,-0.703125,0.25,0.640625
1631018785625,-0.703125,0.25,0.640625
1631018785656,-0.71875,0.25,0.65625
1631018785687,-0.703125,0.25,0.65625
1631018785718,-0.703125,0.25,0.640625
1631018785750,-0.703125,0.25,0.65625
1631018785781,-0.703125,0.25,0.65625
1631018785812,-0.703125,0.25,0.65625
1631018785843,-0.71875,0.25,0.640625
1631018785875,-0.703125,0.25,0.640625
1631018785906,-0.703125,0.25,0.640625
1631018785937,-0.703125,0.25,0.65625
1631018785968,-0.71875,0.25,0.640625
1631018786000,-0.703125,0.25,0.640625
1631018786031,-0.71875,0.25,0.640625
1631018786062,-0.703125,0.25,0.640625
1631018786093,-0.71875,0.25,0.640625
1631018786125,-0.703125,0.25,0.640625
1631018786156,-0.703125,0.25,0.640625
1631018786187,-0.703125,0.25,0.65625
1631018786218,-0.703125,0.25,0.640625
1631018786250,-0.71875,0.25,0.640625
1631018786281,-0.71875,0.25,0.640625
1631018786312,-0.71875,0.25,0.640625
1631018786343,-0.71875,0.25,0.640625
1631018786375,-0.703125,0.25,0.640625
1631018786406,-0.703125,0.25,0.640625
1631018786437,-0.703125,0.25,0.65625
1631018786468,-0.703125,0.25,0.640625
1631018786500,-0.71875,0.25,0.640625
1631018786531,-0.71875,0.25,0.640625
1631018786562,-0.703125,0.25,0.640625
1631018786593,-0.71875,0.25,0.640625
1631018786625,-0.703125,0.25,0.640625
1631018786656,-0.703125,0.25,0.640625
1631018786687,-0.71875,0.25,0.640625
1631018786718,-0.703125,0.25,0.640625
1631018786750,-0.703125,0.25,0.65625
1631018786781,-0.703125,0.25,0.640625
1631018786812,-0.703125,0.25,0.65625
1631018786843,-0.703125,0.25,0.65625
1631018786875,-0.703125,0.25,0.640625
1631018786906,-0.703125,0.25,0.65625
1631018786937,-0.703125,0.25,0.640625
1631018786968,-0.703125,0.25,0.640625
1631018787000,-0.703125,0.25,0.640625
1631018787031,-0.703125,0.25,0.640625
1631018787062,-0.703125,0.25,0.640625
1631018787093,-0.703125,0.25,0.640625
1631018787125,-0.703125,0.25,0.65625
1631018787156,-0.703125,0.25,0.640625
1631018787187,-0.703125,0.25,0.640625
1631018787218,-0.703125,0.25,0.65625
1631018787250,-0.703125,0.25,0.640625
1631018787281,-0.703125,0.25,0.640625
1631018787312,-0.703125,0.25,0.640625
1631018787343,-0.703125,0.25,0.65625
1631018787375,-0.703125,0.25,0.65625
1631018787406,-0.703125,0.25,0.65625
1631018787437,-0.703125,0.25,0.65625
1631018787468,-0.703125,0.25,0.65625
1631018787500,-0.703125,0.25,0.65625
1631018787531,-0.703125,0.25,0.65625
1631018787562,-0.703125,0.25,0.65625
1631018787593,-0.703125,0.25,0.65625
1631018787625,-0.703125,0.25,0.640625
1631018787656,-0.703125,0.25,0.65625
1631018787687,-0.703125,0.25,0.65625
1631018787718,-0.703125,0.25,0.640625
1631018787750,-0.703125,0.25,0.65625
1631018787781,-0.703125,0.25,0.65625
1631018787812,-0.703125,0.25,0.65625
1631018787843,-0.703125,0.25,0.65625
1631018787875,-0.703125,0.25,0.640625
1631018787906,-0.703125,0.25,0.640625
1631018787937,-0.703125,0.25,0.640625
1631018787968,-0.703125,0.25,0.640625
1631018788000,-0.703125,0.25,0.640625
1631018788031,-0.703125,0.25,0.640625
1631018788062,-0.703125,0.25,0.640625
1631018788093,-0.703125,0.25,0.640625
1631018788125,-0.703125,0.25,0.640625
1631018788156,-0.703125,0.25,0.640625
1631018788187,-0.703125,0.25,0.640625
1631018788218,-0.71875,0.25,0.65625
1631018788250,-0.703125,0.25,0.65625
1631018788281,-0.703125,0.25,0.65625
1631018788312,-0.71875,0.25,0.640625
1631018788343,-0.71875,0.25,0.640625
1631018788375,-0.71875,0.25,0.640625
1631018788406,-0.71875,0.25,0.65625
1631018788437,-0.703125,0.25,0.65625
1631018788468,-0.703125,0.25,0.640625
1631018788500,-0.71875,0.25,0.640625
1631018788531,-0.703125,0.25,0.65625
1631018788562,-0.703125,0.25,0.640625
1631018788593,-0.71875,0.25,0.640625
1631018788625,-0.71875,0.25,0.65625
1631018788656,-0.71875,0.25,0.640625
1631018788687,-0.703125,0.25,0.640625
1631018788718,-0.71875,0.25,0.640625
1631018788750,-0.703125,0.25,0.640625
1631018788781,-0.71875,0.25,0.640625
1631018788812,-0.71875,0.25,0.640625
1631018788843,-0.71875,0.25,0.640625
1631018788875,-0.703125,0.25,0.640625
1631018788906,-0.71875,0.25,0.640625
1631018788937,-0.71875,0.25,0.65625
1631018788968,-0.703125,0.25,0.65625
1631018789000,-0.71875,0.25,0.640625
1631018789031,-0.703125,0.25,0.640625
1631018789062,-0.703125,0.25,0.65625
1631018789093,-0.703125,0.25,0.640625
1631018789125,-0.703125,0.25,0.640625
1631018789156,-0.71875,0.25,0.640625
1631018789187,-0.703125,0.25,0.640625
1631018789218,-0.71875,0.25,0.640625
1631018789250,-0.703125,0.25,0.640625
1631018789281,-0.71875,0.25,0.640625
1631018789312,-0.703125,0.25,0.640625
1631018789343,-0.703125,0.25,0.640625
1631018789375,-0.703125,0.25,0.640625
1631018789406,-0.703125,0.25,0.640625
1631018789437,-0.703125,0.25,0.65625
1631018789468,-0.703125,0.25,0.65625
1631018789500,-0.703125,0.25,0.640625
1631018789531,-0.703125,0.25,0.65625
1631018789562,-0.703125,0.25,0.65625
1631018789593,-0.703125,0.25,0.65625
1631018789625,-0.71875,0.25,0.640625
1631018789656,-0.703125,0.25,0.640625
1631018789687,-0.703125,0.25,0.640625
1631018789718,-0.703125,0.25,0.640625
1631018789750,-0.703125,0.25,0.640625
1631018789781,-0.703125,0.25,0.640625
1631018789812,-0.71875,0.25,0.640625
1631018789843,-0.703125,0.25,0.65625
1631018789875,-0.703125,0.25,0.65625
1631018789906,-0.703125,0.25,0.65625
1631018789937,-0.703125,0.25,0.640625
1631018789968,-0.703125,0.25,0.640625
1631018790000,-0.703125,0.25,0.640625
1631018790031,-0.703125,0.25,0.640625
1631018790062,-0.703125,0.25,0.65625
1631018790093,-0.703125,0.25,0.640625
1631018790125,-0.703125,0.25,0.65625
1631018790156,-0.703125,0.25,0.640625
1631018790187,-0.703125,0.25,0.65625
1631018790218,-0.703125,0.25,0.65625
1631018790250,-0.703125,0.25,0.640625
1631018790281,-0.703125,0.25,0.65625
1631018790312,-0.703125,0.25,0.65625
1631018790343,-0.703125,0.25,0.65625
1631018790375,-0.703125,0.25,0.65625
1631018790406,-0.703125,0.25,0.65625
1631018790437,-0.703125,0.25,0.65625
1631018790468,-0.703125,0.25,0.640625
1631018790500,-0.703125,0.25,0.640625
1631018790531,-0.703125,0.25,0.640625
1631018790562,-0.71875,0.25,0.65625
1631018790593,-0.703125,0.25,0.640625
1631018790625,-0.703125,0.25,0.65625
1631018790656,-0.703125,0.25,0.65625
1631018790687,-0.703125,0.25,0.65625
1631018790718,-0.703125,0.25,0.65625
1631018790750,-0.703125,0.25,0.640625
1631018790781,-0.703125,0.25,0.65625
1631018790812,-0.703125,0.25,0.640625
1631018790843,-0.703125,0.25,0.65625
1631018790875,-0.703125,0.25,0.640625
1631018790906,-0.703125,0.25,0.640625
1631018790937,-0.703125,0.25,0.640625
1631018790968,-0.703125,0.25,0.65625
1631018791000,-0.703125,0.25,0.65625
1631018791031,-0.703125,0.25,0.65625
1631018791062,-0.703125,0.25,0.640625
1631018791093,-0.703125,0.25,0.640625
1631018791125,-0.703125,0.25,0.640625
1631018791156,-0.703125,0.25,0.640625
1631018791187,-0.71875,0.25,0.640625
1631018791218,-0.703125,0.25,0.640625
1631018791250,-0.703125,0.25,0.65625
1631018791281,-0.703125,0.25,0.65625
1631018791312,-0.71875,0.25,0.640625
1631018791343,-0.703125,0.25,0.640625
1631018791375,-0.703125,0.25,0.640625
1631018791406,-0.71875,0.25,0.640625
1631018791437,-0.703125,0.25,0.65625
1631018791468,-0.703125,0.25,0.65625
1631018791500,-0.703125,0.25,0.65625
1631018791531,-0.703125,0.25,0.65625
1631018791562,-0.703125,0.25,0.640625
1631018791593,-0.71875,0.25,0.640625
1631018791625,-0.703125,0.25,0.640625
1631018791656,-0.71875,0.25,0.640625
1631018791687,-0.71875,0.25,0.640625
1631018791718,-0.71875,0.25,0.640625
1631018791750,-0.71875,0.25,0.640625
1631018791781,-0.703125,0.25,0.640625
1631018791812,-0.71875,0.25,0.640625
1631018791843,-0.703125,0.25,0.640625
1631018791875,-0.703125,0.25,0.640625
1631018791906,-0.703125,0.25,0.640625
1631018791937,-0.703125,0.25,0.640625
1631018791968,-0.703125,0.25,0.640625
1631018792000,-0.703125,0.25,0.640625
1631018792031,-0.71875,0.25,0.65625
1631018792062,-0.703125,0.25,0.640625
1631018792093,-0.703125,0.25,0.65625
1631018792125,-0.703125,0.25,0.640625
1631018792156,-0.703125,0.25,0.640625
1631018792187,-0.703125,0.25,0.640625
1631018792218,-0.703125,0.25,0.640625
1631018792250,-0.703125,0.25,0.640625
1631018792281,-0.703125,0.25,0.65625
1631018792312,-0.703125,0.25,0.640625
1631018792343,-0.703125,0.25,0.640625
1631018792375,-0.703125,0.25,0.65625
1631018792406,-0.703125,0.25,0.640625
1631018792437,-0.703125,0.25,0.640625
1631018792468,-0.703125,0.25,0.640625
1631018792500,-0.703125,0.25,0.65625
1631018792531,-0.703125,0.25,0.65625
1631018792562,-0.703125,0.25,0.65625
1631018792593,-0.703125,0.25,0.65625
1631018792625,-0.703125,0.25,0.640625
1631018792656,-0.703125,0.25,0.65625
1631018792687,-0.703125,0.25,0.65625
1631018792718,-0.703125,0.25,0.640625
1631018792750,-0.703125,0.25,0.65625
1631018792781,-0.703125,0.25,0.640625
1631018792812,-0.703125,0.25,0.65625
1631018792843,-0.703125,0.25,0.640625
1631018792875,-0.71875,0.25,0.640625
1631018792906,-0.703125,0.25,0.65625
1631018792937,-0.703125,0.25,0.65625
1631018792968,-0.703125,0.25,0.640625
1631018793000,-0.703125,0.25,0.640625
1631018793031,-0.703125,0.25,0.65625
1631018793062,-0.703125,0.25,0.640625
1631018793093,-0.703125,0.25,0.640625
1631018793125,-0.703125,0.25,0.640625
1631018793156,-0.703125,0.25,0.65625
1631018793187,-0.703125,0.25,0.640625
1631018793218,-0.703125,0.25,0.65625
1631018793250,-0.703125,0.25,0.65625
1631018793281,-0.703125,0.25,0.65625
1631018793312,-0.703125,0.25,0.640625
1631018793343,-0.703125,0.25,0.640625
1631018793375,-0.703125,0.25,0.65625
1631018793406,-0.703125,0.25,0.65625
1631018793437,-0.703125,0.25,0.65625
1631018793468,-0.703125,0.25,0.65625
1631018793500,-0.703125,0.25,0.640625
1631018793531,-0.703125,0.25,0.65625
1631018793562,-0.703125,0.25,0.640625
1631018793593,-0.703125,0.25,0.65625
1631018793625,-0.703125,0.25,0.65625
1631018793656,-0.703125,0.25,0.65625
1631018793687,-0.703125,0.25,0.640625
1631018793718,-0.71875,0.25,0.640625
1631018793750,-0.703125,0.25,0.65625
1631018793781,-0.703125,0.25,0.640625
1631018793812,-0.703125,0.25,0.65625
1631018793843,-0.703125,0.25,0.65625
1631018793875,-0.703125,0.25,0.640625
1631018793906,-0.703125,0.25,0.640625
1631018793937,-0.71875,0.25,0.640625
1631018793968,-0.703125,0.25,0.65625
1631018794000,-0.703125,0.25,0.65625
1631018794031,-0.703125,0.25,0.65625
1631018794062,-0.703125,0.25,0.640625
1631018794093,-0.703125,0.25,0.640625
1631018794125,-0.703125,0.25,0.65625
1631018794156,-0.703125,0.25,0.640625
1631018794187,-0.703125,0.25,0.65625
1631018794218,-0.71875,0.25,0.640625
1631018794250,-0.703125,0.25,0.640625
1631018794281,-0.71875,0.25,0.640625
1631018794312,-0.703125,0.25,0.640625
1631018794343,-0.703125,0.25,0.640625
1631018794375,-0.71875,0.25,0.640625
1631018794406,-0.71875,0.25,0.640625
1631018794437,-0.71875,0.25,0.640625
1631018794468,-0.71875,0.25,0.640625
1631018794500,-0.71875,0.25,0.640625
1631018794531,-0.71875,0.25,0.640625
1631018794562,-0.703125,0.25,0.640625
1631018794593,-0.71875,0.25,0.640625
1631018794625,-0.71875,0.25,0.640625
1631018794656,-0.71875,0.25,0.640625
1631018794687,-0.71875,0.25,0.640625
1631018794718,-0.71875,0.25,0.640625
1631018794750,-0.71875,0.25,0.65625
1631018794781,-0.703125,0.25,0.640625
1631018794812,-0.703125,0.25,0.640625
1631018794843,-0.703125,0.25,0.640625
1631018794875,-0.703125,0.25,0.640625
1631018794906,-0.703125,0.25,0.640625
1631018794937,-0.71875,0.25,0.640625
1631018794968,-0.71875,0.25,0.640625
1631018795000,-0.703125,0.25,0.640625
1631018795031,-0.703125,0.25,0.640625
1631018795062,-0.703125,0.25,0.640625
1631018795093,-0.71875,0.25,0.640625
1631018795125,-0.71875,0.25,0.640625
1631018795156,-0.71875,0.25,0.640625
1631018795187,-0.703125,0.25,0.640625
1631018795218,-0.703125,0.25,0.65625
1631018795250,-0.703125,0.25,0.640625
1631018795281,-0.703125,0.25,0.65625
1631018795312,-0.703125,0.25,0.640625
1631018795343,-0.71875,0.25,0.640625
1631018795375,-0.71875,0.25,0.640625
1631018795406,-0.703125,0.25,0.640625
1631018795437,-0.71875,0.25,0.640625
1631018795468,-0.71875,0.25,0.640625
1631018795500,-0.703125,0.25,0.640625
1631018795531,-0.703125,0.25,0.65625
1631018795562,-0.703125,0.25,0.65625
1631018795593,-0.703125,0.25,0.640625
1631018795625,-0.71875,0.25,0.65625
1631018795656,-0.703125,0.25,0.640625
1631018795687,-0.703125,0.25,0.640625
1631018795718,-0.703125,0.25,0.640625
1631018795750,-0.703125,0.25,0.65625
1631018795781,-0.703125,0.25,0.640625
1631018795812,-0.703125,0.25,0.640625
1631018795843,-0.703125,0.25,0.640625
1631018795875,-0.703125,0.25,0.640625
1631018795906,-0.703125,0.25,0.640625
1631018795937,-0.703125,0.25,0.640625
1631018795968,-0.703125,0.25,0.640625
1631018796000,-0.703125,0.25,0.640625
1631018796031,-0.71875,0.25,0.640625
1631018796062,-0.703125,0.25,0.65625
1631018796093,-0.703125,0.25,0.640625
1631018796125,-0.703125,0.25,0.65625
1631018796156,-0.71875,0.25,0.640625
1631018796187,-0.71875,0.25,0.640625
1631018796218,-0.71875,0.25,0.640625
1631018796250,-0.71875,0.25,0.640625
1631018796281,-0.71875,0.25,0.640625
1631018796312,-0.703125,0.25,0.65625
1631018796343,-0.703125,0.25,0.640625
1631018796375,-0.703125,0.25,0.640625
1631018796406,-0.703125,0.25,0.640625
1631018796437,-0.71875,0.25,0.640625
1631018796468,-0.703125,0.25,0.65625
1631018796500,-0.703125,0.25,0.65625
1631018796531,-0.71875,0.25,0.640625
1631018796562,-0.703125,0.25,0.640625
1631018796593,-0.703125,0.25,0.640625
1631018796625,-0.71875,0.25,0.640625
1631018796656,-0.703125,0.25,0.640625
1631018796687,-0.703125,0.25,0.640625
1631018796718,-0.71875,0.25,0.640625
1631018796750,-0.703125,0.25,0.640625
1631018796781,-0.71875,0.25,0.640625
1631018796812,-0.71875,0.25,0.640625
1631018796843,-0.71875,0.25,0.640625
1631018796875,-0.71875,0.25,0.640625
1631018796906,-0.71875,0.25,0.640625
1631018796937,-0.71875,0.25,0.640625
1631018796968,-0.71875,0.25,0.640625
1631018797000,-0.71875,0.25,0.640625
1631018797031,-0.71875,0.25,0.640625
1631018797062,-0.703125,0.25,0.640625
1631018797093,-0.703125,0.25,0.640625
1631018797125,-0.71875,0.25,0.640625
1631018797156,-0.703125,0.25,0.640625
1631018797187,-0.71875,0.25,0.640625
1631018797218,-0.71875,0.25,0.640625
1631018797250,-0.71875,0.25,0.640625
1631018797281,-0.71875,0.25,0.640625
1631018797312,-0.71875,0.25,0.65625
1631018797343,-0.71875,0.25,0.640625
1631018797375,-0.71875,0.25,0.640625
1631018797406,-0.71875,0.25,0.640625
1631018797437,-0.71875,0.25,0.640625
1631018797468,-0.71875,0.25,0.640625
1631018797500,-0.71875,0.25,0.640625
1631018797531,-0.703125,0.25,0.640625
1631018797562,-0.71875,0.25,0.640625
1631018797593,-0.71875,0.25,0.640625
1631018797625,-0.71875,0.25,0.640625
1631018797656,-0.71875,0.25,0.640625
1631018797687,-0.71875,0.25,0.640625
1631018797718,-0.703125,0.25,0.640625
1631018797750,-0.703125,0.25,0.640625
1631018797781,-0.71875,0.25,0.640625
1631018797812,-0.71875,0.25,0.640625
1631018797843,-0.71875,0.25,0.640625
1631018797875,-0.703125,0.25,0.640625
1631018797906,-0.71875,0.25,0.640625
1631018797937,-0.703125,0.25,0.65625
1631018797968,-0.71875,0.25,0.640625
1631018798000,-0.71875,0.25,0.640625
1631018798031,-0.71875,0.25,0.640625
1631018798062,-0.71875,0.25,0.640625
1631018798093,-0.71875,0.25,0.640625
1631018798125,-0.703125,0.25,0.640625
1631018798156,-0.703125,0.25,0.640625
1631018798187,-0.71875,0.25,0.640625
1631018798218,-0.703125,0.25,0.640625
1631018798250,-0.71875,0.25,0.640625
1631018798281,-0.71875,0.25,0.640625
1631018798312,-0.703125,0.25,0.65625
1631018798343,-0.703125,0.25,0.65625
1631018798375,-0.703125,0.25,0.640625
1631018798406,-0.71875,0.25,0.640625
1631018798437,-0.71875,0.25,0.640625
1631018798468,-0.71875,0.25,0.65625
1631018798500,-0.703125,0.25,0.65625
1631018798531,-0.703125,0.25,0.640625
1631018798562,-0.703125,0.25,0.640625
1631018798593,-0.703125,0.25,0.640625
1631018798625,-0.703125,0.25,0.640625
1631018798656,-0.71875,0.25,0.640625
1631018798687,-0.703125,0.25,0.65625
1631018798718,-0.703125,0.25,0.65625
1631018798750,-0.703125,0.25,0.65625
1631018798781,-0.703125,0.25,0.640625
1631018798812,-0.703125,0.25,0.640625
1631018798843,-0.71875,0.25,0.640625
1631018798875,-0.703125,0.25,0.65625
1631018798906,-0.703125,0.25,0.640625
1631018798937,-0.703125,0.25,0.640625
1631018798968,-0.703125,0.25,0.640625
1631018799000,-0.71875,0.25,0.65625
1631018799031,-0.703125,0.25,0.640625
1631018799062,-0.703125,0.25,0.640625
1631018799093,-0.703125,0.25,0.640625
1631018799125,-0.703125,0.25,0.640625
1631018799156,-0.703125,0.25,0.640625
1631018799187,-0.703125,0.25,0.640625
1631018799218,-0.703125,0.25,0.640625
1631018799250,-0.71875,0.25,0.640625
1631018799281,-0.71875,0.25,0.65625
1631018799312,-0.703125,0.25,0.640625
1631018799343,-0.71875,0.25,0.640625
1631018799375,-0.703125,0.25,0.640625
1631018799406,-0.71875,0.25,0.640625
1631018799437,-0.71875,0.25,0.640625
1631018799468,-0.71875,0.25,0.640625
1631018799500,-0.703125,0.25,0.640625
1631018799531,-0.71875,0.25,0.640625
1631018799562,-0.71875,0.25,0.640625
1631018799593,-0.703125,0.25,0.640625
1631018799625,-0.703125,0.25,0.640625
1631018799656,-0.71875,0.25,0.640625
1631018799687,-0.71875,0.25,0.640625
1631018799718,-0.703125,0.25,0.640625
1631018799750,-0.71875,0.25,0.640625
1631018799781,-0.703125,0.25,0.640625
1631018799812,-0.71875,0.25,0.640625
1631018799843,-0.71875,0.25,0.640625
1631018799875,-0.71875,0.25,0.640625
1631018799906,-0.71875,0.25,0.640625
1631018799937,-0.71875,0.25,0.640625
1631018799968,-0.71875,0.25,0.640625
1631018800000,-0.71875,0.25,0.640625
1631018800031,-0.71875,0.25,0.640625
1631018800062,-0.71875,0.25,0.640625
1631018800093,-0.71875,0.25,0.640625
1631018800125,-0.71875,0.25,0.640625
1631018800156,-0.71875,0.25,0.640625
1631018800187,-0.71875,0.25,0.640625
1631018800218,-0.71875,0.25,0.640625
1631018800250,-0.71875,0.25,0.640625
1631018800281,-0.71875,0.25,0.640625
1631018800312,-0.71875,0.25,0.65625
1631018800343,-0.71875,0.25,0.640625
1631018800375,-0.71875,0.25,0.640625
1631018800406,-0.71875,0.25,0.640625
1631018800437,-0.703125,0.25,0.640625
1631018800468,-0.71875,0.25,0.640625
1631018800500,-0.703125,0.25,0.640625
1631018800531,-0.71875,0.25,0.640625
1631018800562,-0.703125,0.25,0.640625
1631018800593,-0.703125,0.25,0.640625
1631018800625,-0.71875,0.25,0.640625
1631018800656,-0.71875,0.25,0.640625
1631018800687,-0.71875,0.25,0.640625
1631018800718,-0.71875,0.25,0.640625
1631018800750,-0.71875,0.25,0.640625
1631018800781,-0.703125,0.25,0.640625
1631018800812,-0.703125,0.25,0.65625
1631018800843,-0.71875,0.25,0.640625
1631018800875,-0.703125,0.25,0.640625
1631018800906,-0.703125,0.25,0.640625
1631018800937,-0.71875,0.25,0.640625
1631018800968,-0.71875,0.25,0.640625
1631018801000,-0.703125,0.25,0.640625
1631018801031,-0.71875,0.25,0.640625
1631018801062,-0.703125,0.25,0.65625
1631018801093,-0.71875,0.25,0.640625
1631018801125,-0.71875,0.25,0.640625
1631018801156,-0.71875,0.25,0.640625
1631018801187,-0.703125,0.25,0.640625
1631018801218,-0.703125,0.25,0.640625
1631018801250,-0.71875,0.25,0.640625
1631018801281,-0.71875,0.25,0.640625
1631018801312,-0.703125,0.25,0.640625
1631018801343,-0.71875,0.25,0.65625
1631018801375,-0.71875,0.25,0.640625
1631018801406,-0.703125,0.25,0.640625
1631018801437,-0.703125,0.25,0.640625
1631018801468,-0.703125,0.25,0.65625
1631018801500,-0.71875,0.25,0.640625
1631018801531,-0.71875,0.25,0.640625
1631018801562,-0.703125,0.25,0.640625
1631018801593,-0.71875,0.25,0.640625
1631018801625,-0.703125,0.25,0.640625
1631018801656,-0.703125,0.25,0.640625
1631018801687,-0.703125,0.25,0.640625
1631018801718,-0.703125,0.25,0.640625
1631018801750,-0.703125,0.25,0.640625
1631018801781,-0.703125,0.25,0.65625
1631018801812,-0.703125,0.25,0.65625
1631018801843,-0.703125,0.25,0.640625
1631018801875,-0.703125,0.25,0.640625
1631018801906,-0.703125,0.25,0.640625
1631018801937,-0.703125,0.25,0.65625
1631018801968,-0.703125,0.25,0.640625
1631018802000,-0.703125,0.25,0.640625
1631018802031,-0.71875,0.25,0.640625
1631018802062,-0.71875,0.25,0.640625
1631018802093,-0.71875,0.25,0.640625
1631018802125,-0.703125,0.25,0.65625
1631018802156,-0.71875,0.25,0.640625
1631018802187,-0.71875,0.25,0.65625
1631018802218,-0.703125,0.25,0.640625
1631018802250,-0.703125,0.25,0.65625
1631018802281,-0.703125,0.25,0.640625
1631018802312,-0.71875,0.25,0.640625
1631018802343,-0.703125,0.25,0.65625
1631018802375,-0.703125,0.25,0.640625
1631018802406,-0.703125,0.25,0.640625
1631018802437,-0.71875,0.25,0.640625
1631018802468,-0.71875,0.25,0.640625
1631018802500,-0.71875,0.25,0.640625
1631018802531,-0.71875,0.25,0.640625
1631018802562,-0.71875,0.25,0.640625
1631018802593,-0.71875,0.25,0.640625
1631018802625,-0.703125,0.25,0.640625
1631018802656,-0.703125,0.25,0.65625
1631018802687,-0.703125,0.25,0.640625
1631018802718,-0.703125,0.25,0.65625
1631018802750,-0.703125,0.25,0.640625
1631018802781,-0.71875,0.25,0.640625
1631018802812,-0.703125,0.25,0.640625
1631018802843,-0.71875,0.25,0.640625
1631018802875,-0.71875,0.25,0.640625
1631018802906,-0.703125,0.25,0.640625
1631018802937,-0.71875,0.25,0.640625
1631018802968,-0.703125,0.25,0.640625
1631018803000,-0.71875,0.25,0.640625
1631018803031,-0.71875,0.25,0.640625
1631018803062,-0.71875,0.25,0.640625
1631018803093,-0.703125,0.25,0.640625
1631018803125,-0.71875,0.25,0.65625
1631018803156,-0.703125,0.25,0.640625
1631018803187,-0.703125,0.25,0.640625
1631018803218,-0.71875,0.25,0.640625
1631018803250,-0.703125,0.25,0.640625
1631018803281,-0.703125,0.25,0.640625
1631018803312,-0.703125,0.25,0.640625
1631018803343,-0.71875,0.25,0.640625
1631018803375,-0.71875,0.25,0.640625
1631018803406,-0.71875,0.25,0.640625
1631018803437,-0.703125,0.25,0.640625
1631018803468,-0.71875,0.25,0.640625
1631018803500,-0.71875,0.25,0.640625
1631018803531,-0.71875,0.25,0.640625
1631018803562,-0.71875,0.25,0.640625
1631018803593,-0.71875,0.25,0.640625
1631018803625,-0.71875,0.25,0.640625
1631018803656,-0.71875,0.25,0.640625
1631018803687,-0.703125,0.25,0.640625
1631018803718,-0.71875,0.25,0.640625
1631018803750,-0.703125,0.25,0.65625
1631018803781,-0.703125,0.25,0.640625
1631018803812,-0.71875,0.25,0.640625
1631018803843,-0.703125,0.25,0.640625
1631018803875,-0.703125,0.25,0.65625
1631018803906,-0.71875,0.25,0.640625
1631018803937,-0.703125,0.25,0.65625
1631018803968,-0.703125,0.25,0.640625
1631018804000,-0.71875,0.25,0.640625
1631018804031,-0.703125,0.25,0.640625
1631018804062,-0.703125,0.25,0.65625
1631018804093,-0.703125,0.25,0.65625
1631018804125,-0.703125,0.25,0.65625
1631018804156,-0.703125,0.25,0.640625
1631018804187,-0.71875,0.25,0.65625
1631018804218,-0.71875,0.25,0.640625
1631018804250,-0.703125,0.25,0.640625
1631018804281,-0.703125,0.25,0.640625
1631018804312,-0.703125,0.25,0.65625
1631018804343,-0.703125,0.25,0.640625
1631018804375,-0.71875,0.25,0.640625
1631018804406,-0.71875,0.25,0.640625
1631018804437,-0.703125,0.25,0.640625
1631018804468,-0.703125,0.25,0.640625
1631018804500,-0.703125,0.25,0.640625
1631018804531,-0.703125,0.25,0.640625
1631018804562,-0.71875,0.25,0.640625
1631018804593,-0.703125,0.25,0.65625
1631018804625,-0.71875,0.25,0.640625
1631018804656,-0.71875,0.25,0.640625
1631018804687,-0.703125,0.25,0.640625
1631018804718,-0.703125,0.25,0.640625
1631018804750,-0.71875,0.25,0.640625
1631018804781,-0.703125,0.25,0.640625
1631018804812,-0.703125,0.25,0.65625
1631018804843,-0.703125,0.25,0.640625
1631018804875,-0.703125,0.25,0.65625
1631018804906,-0.71875,0.25,0.640625
1631018804937,-0.703125,0.25,0.640625
1631018804968,-0.703125,0.25,0.65625
1631018805000,-0.703125,0.25,0.640625
1631018805031,-0.703125,0.25,0.640625
1631018805062,-0.703125,0.25,0.640625
1631018805093,-0.703125,0.25,0.640625
1631018805125,-0.703125,0.25,0.640625
1631018805156,-0.703125,0.25,0.640625
1631018805187,-0.703125,0.25,0.640625
1631018805218,-0.703125,0.25,0.65625
1631018805250,-0.703125,0.25,0.65625
1631018805281,-0.71875,0.25,0.640625
1631018805312,-0.703125,0.25,0.640625
1631018805343,-0.71875,0.25,0.65625
1631018805375,-0.703125,0.25,0.640625
1631018805406,-0.703125,0.25,0.65625
1631018805437,-0.703125,0.25,0.65625
1631018805468,-0.703125,0.25,0.65625
1631018805500,-0.703125,0.25,0.640625
1631018805531,-0.71875,0.25,0.640625
1631018805562,-0.703125,0.25,0.640625
1631018805593,-0.703125,0.25,0.640625
1631018805625,-0.703125,0.25,0.65625
1631018805656,-0.703125,0.25,0.640625
1631018805687,-0.703125,0.25,0.65625
1631018805718,-0.71875,0.25,0.640625
1631018805750,-0.703125,0.25,0.65625
1631018805781,-0.703125,0.25,0.65625
1631018805812,-0.703125,0.25,0.640625
1631018805843,-0.71875,0.25,0.640625
1631018805875,-0.703125,0.25,0.640625
1631018805906,-0.703125,0.25,0.640625
1631018805937,-0.71875,0.25,0.640625
1631018805968,-0.703125,0.25,0.640625
1631018806000,-0.71875,0.25,0.640625
1631018806031,-0.703125,0.25,0.640625
1631018806062,-0.71875,0.25,0.640625
1631018806093,-0.703125,0.25,0.640625
1631018806125,-0.71875,0.25,0.640625
1631018806156,-0.71875,0.25,0.640625
1631018806187,-0.703125,0.25,0.640625
1631018806218,-0.71875,0.25,0.640625
1631018806250,-0.71875,0.25,0.640625
1631018806281,-0.71875,0.25,0.640625
1631018806312,-0.71875,0.25,0.640625
1631018806343,-0.703125,0.25,0.640625
1631018806375,-0.71875,0.25,0.640625
1631018806406,-0.71875,0.25,0.640625
1631018806437,-0.703125,0.25,0.640625
1631018806468,-0.71875,0.25,0.640625
1631018806500,-0.71875,0.25,0.640625
1631018806531,-0.703125,0.25,0.640625
1631018806562,-0.703125,0.25,0.640625
1631018806593,-0.71875,0.25,0.640625
1631018806625,-0.71875,0.25,0.640625
1631018806656,-0.71875,0.25,0.640625
1631018806687,-0.71875,0.25,0.640625
1631018806718,-0.71875,0.25,0.640625
1631018806750,-0.71875,0.25,0.65625
1631018806781,-0.703125,0.25,0.640625
1631018806812,-0.703125,0.25,0.65625
1631018806843,-0.71875,0.25,0.65625
1631018806875,-0.71875,0.25,0.640625
1631018806906,-0.703125,0.25,0.640625
1631018806937,-0.703125,0.25,0.65625
1631018806968,-0.71875,0.25,0.640625
1631018807000,-0.71875,0.25,0.640625
1631018807031,-0.703125,0.25,0.640625
1631018807062,-0.71875,0.25,0.640625
1631018807093,-0.703125,0.25,0.640625
1631018807125,-0.703125,0.25,0.65625
1631018807156,-0.703125,0.25,0.640625
1631018807187,-0.703125,0.25,0.640625
1631018807218,-0.703125,0.25,0.640625
1631018807250,-0.71875,0.25,0.65625
1631018807281,-0.71875,0.25,0.640625
1631018807312,-0.703125,0.25,0.640625
1631018807343,-0.71875,0.25,0.640625
1631018807375,-0.703125,0.25,0.640625
1631018807406,-0.71875,0.25,0.640625
1631018807437,-0.703125,0.25,0.640625
1631018807468,-0.703125,0.25,0.65625
1631018807500,-0.703125,0.25,0.640625
1631018807531,-0.71875,0.25,0.640625
1631018807562,-0.703125,0.25,0.640625
1631018807593,-0.703125,0.25,0.65625
1631018807625,-0.71875,0.25,0.65625
1631018807656,-0.703125,0.25,0.65625
1631018807687,-0.703125,0.25,0.65625
1631018807718,-0.703125,0.25,0.640625
1631018807750,-0.703125,0.25,0.640625
1631018807781,-0.703125,0.25,0.640625
1631018807812,-0.703125,0.25,0.640625
1631018807843,-0.703125,0.25,0.65625
1631018807875,-0.703125,0.25,0.65625
1631018807906,-0.703125,0.25,0.65625
1631018807937,-0.703125,0.25,0.640625
1631018807968,-0.703125,0.25,0.640625
1631018808000,-0.703125,0.25,0.640625
1631018808031,-0.703125,0.25,0.65625
1631018808062,-0.71875,0.25,0.640625
1631018808093,-0.703125,0.25,0.640625
1631018808125,-0.703125,0.25,0.640625
1631018808156,-0.703125,0.25,0.65625
1631018808187,-0.703125,0.25,0.640625
1631018808218,-0.703125,0.25,0.65625
1631018808250,-0.703125,0.25,0.65625
1631018808281,-0.703125,0.25,0.640625
1631018808312,-0.703125,0.25,0.640625
1631018808343,-0.703125,0.25,0.65625
1631018808375,-0.71875,0.25,0.65625
1631018808406,-0.703125,0.25,0.640625
1631018808437,-0.703125,0.25,0.640625
1631018808468,-0.703125,0.25,0.640625
1631018808500,-0.703125,0.25,0.640625
1631018808531,-0.703125,0.25,0.640625
1631018808562,-0.703125,0.25,0.640625
1631018808593,-0.703125,0.25,0.65625
1631018808625,-0.703125,0.25,0.640625
1631018808656,-0.703125,0.25,0.65625
1631018808687,-0.703125,0.25,0.640625
1631018808718,-0.703125,0.25,0.65625
1631018808750,-0.703125,0.25,0.640625
1631018808781,-0.703125,0.25,0.640625
1631018808812,-0.703125,0.25,0.640625
1631018808843,-0.703125,0.25,0.65625
1631018808875,-0.703125,0.25,0.640625
1631018808906,-0.703125,0.25,0.640625
1631018808937,-0.703125,0.25,0.640625
1631018808968,-0.703125,0.25,0.640625
1631018809000,-0.71875,0.25,0.640625
1631018809031,-0.703125,0.25,0.640625
1631018809062,-0.703125,0.25,0.640625
1631018809093,-0.703125,0.25,0.640625
1631018809125,-0.71875,0.25,0.640625
1631018809156,-0.703125,0.25,0.640625
1631018809187,-0.703125,0.25,0.640625
1631018809218,-0.703125,0.25,0.640625
1631018809250,-0.703125,0.25,0.640625
1631018809281,-0.703125,0.25,0.640625
1631018809312,-0.71875,0.25,0.640625
1631018809343,-0.703125,0.25,0.640625
1631018809375,-0.703125,0.25,0.640625
1631018809406,-0.703125,0.25,0.640625
1631018809437,-0.703125,0.25,0.640625
1631018809468,-0.703125,0.25,0.640625
1631018809500,-0.703125,0.25,0.640625
1631018809531,-0.703125,0.25,0.640625
1631018809562,-0.71875,0.25,0.640625
1631018809593,-0.71875,0.25,0.640625
1631018809625,-0.703125,0.25,0.65625
1631018809656,-0.703125,0.25,0.640625
1631018809687,-0.71875,0.25,0.640625
1631018809718,-0.703125,0.25,0.640625
1631018809750,-0.71875,0.25,0.640625
1631018809781,-0.703125,0.25,0.640625
1631018809812,-0.703125,0.25,0.640625
1631018809843,-0.71875,0.25,0.640625
1631018809875,-0.703125,0.25,0.65625
1631018809906,-0.703125,0.25,0.640625
1631018809937,-0.71875,0.25,0.640625
1631018809968,-0.703125,0.25,0.640625
1631018810000,-0.703125,0.25,0.640625
1631018810031,-0.71875,0.25,0.640625
1631018810062,-0.703125,0.25,0.640625
1631018810093,-0.71875,0.25,0.65625
1631018810125,-0.71875,0.25,0.65625
1631018810156,-0.71875,0.25,0.65625
1631018810187,-0.703125,0.25,0.640625
1631018810218,-0.703125,0.25,0.65625
1631018810250,-0.703125,0.25,0.640625
1631018810281,-0.71875,0.25,0.640625
1631018810312,-0.71875,0.25,0.640625
1631018810343,-0.703125,0.25,0.640625
1631018810375,-0.703125,0.25,0.640625
1631018810406,-0.703125,0.25,0.640625
1631018810437,-0.703125,0.25,0.640625
1631018810468,-0.703125,0.25,0.640625
1631018810500,-0.703125,0.25,0.640625
1631018810531,-0.703125,0.25,0.65625
1631018810562,-0.703125,0.25,0.640625
1631018810593,-0.703125,0.25,0.65625
1631018810625,-0.703125,0.25,0.65625
1631018810656,-0.703125,0.25,0.640625
1631018810687,-0.703125,0.25,0.640625
1631018810718,-0.703125,0.25,0.640625
1631018810750,-0.703125,0.25,0.65625
1631018810781,-0.703125,0.25,0.640625
1631018810812,-0.703125,0.25,0.65625
1631018810843,-0.703125,0.25,0.640625
1631018810875,-0.703125,0.25,0.640625
1631018810906,-0.703125,0.25,0.640625
1631018810937,-0.703125,0.25,0.65625
1631018810968,-0.703125,0.25,0.640625
1631018811000,-0.703125,0.25,0.640625
1631018811031,-0.703125,0.25,0.65625
1631018811062,-0.703125,0.25,0.640625
1631018811093,-0.703125,0.25,0.65625
1631018811125,-0.703125,0.25,0.65625
1631018811156,-0.703125,0.25,0.640625
1631018811187,-0.703125,0.25,0.65625
1631018811218,-0.703125,0.25,0.65625
1631018811250,-0.703125,0.25,0.640625
1631018811281,-0.71875,0.25,0.640625
1631018811312,-0.703125,0.25,0.65625
1631018811343,-0.703125,0.25,0.65625
1631018811375,-0.71875,0.25,0.640625
1631018811406,-0.703125,0.25,0.640625
1631018811437,-0.703125,0.25,0.640625
1631018811468,-0.71875,0.25,0.640625
1631018811500,-0.703125,0.25,0.640625
1631018811531,-0.71875,0.25,0.65625
1631018811562,-0.703125,0.25,0.65625
1631018811593,-0.703125,0.25,0.640625
1631018811625,-0.703125,0.25,0.640625
1631018811656,-0.703125,0.25,0.640625
1631018811687,-0.703125,0.25,0.640625
1631018811718,-0.71875,0.25,0.640625
1631018811750,-0.71875,0.25,0.65625
1631018811781,-0.703125,0.25,0.640625
1631018811812,-0.703125,0.25,0.640625
1631018811843,-0.703125,0.25,0.65625
1631018811875,-0.71875,0.25,0.65625
1631018811906,-0.703125,0.25,0.640625
1631018811937,-0.703125,0.25,0.640625
1631018811968,-0.703125,0.25,0.640625
1631018812000,-0.71875,0.25,0.640625
1631018812031,-0.703125,0.25,0.640625
1631018812062,-0.703125,0.25,0.640625
1631018812093,-0.71875,0.25,0.640625
1631018812125,-0.703125,0.25,0.640625
1631018812156,-0.703125,0.25,0.640625
1631018812187,-0.71875,0.25,0.640625
1631018812218,-0.703125,0.25,0.640625
1631018812250,-0.703125,0.25,0.65625
1631018812281,-0.703125,0.25,0.65625
1631018812312,-0.703125,0.25,0.65625
1631018812343,-0.703125,0.25,0.640625
1631018812375,-0.703125,0.25,0.65625
1631018812406,-0.703125,0.25,0.640625
1631018812437,-0.71875,0.25,0.640625
1631018812468,-0.703125,0.25,0.65625
1631018812500,-0.703125,0.25,0.640625
1631018812531,-0.71875,0.25,0.640625
1631018812562,-0.703125,0.25,0.640625
1631018812593,-0.703125,0.25,0.65625
1631018812625,-0.703125,0.25,0.640625
1631018812656,-0.703125,0.25,0.640625
1631018812687,-0.703125,0.25,0.640625
1631018812718,-0.703125,0.25,0.65625
1631018812750,-0.703125,0.25,0.65625
1631018812781,-0.703125,0.25,0.65625
1631018812812,-0.703125,0.25,0.65625
1631018812843,-0.703125,0.25,0.65625
1631018812875,-0.703125,0.25,0.640625
1631018812906,-0.703125,0.25,0.640625
1631018812937,-0.703125,0.25,0.65625
1631018812968,-0.703125,0.25,0.640625
1631018813000,-0.703125,0.25,0.65625
1631018813031,-0.703125,0.25,0.65625
1631018813062,-0.703125,0.25,0.65625
1631018813093,-0.703125,0.25,0.65625
1631018813125,-0.703125,0.25,0.65625
1631018813156,-0.703125,0.25,0.640625
1631018813187,-0.703125,0.25,0.65625
1631018813218,-0.703125,0.25,0.65625
1631018813250,-0.703125,0.25,0.65625
1631018813281,-0.703125,0.25,0.65625
1631018813312,-0.71875,0.25,0.640625
1631018813343,-0.703125,0.25,0.65625
1631018813375,-0.703125,0.25,0.65625
1631018813406,-0.703125,0.25,0.65625
1631018813437,-0.703125,0.25,0.640625
1631018813468,-0.703125,0.25,0.65625
1631018813500,-0.703125,0.25,0.65625
1631018813531,-0.703125,0.25,0.640625
1631018813562,-0.703125,0.25,0.65625
1631018813593,-0.703125,0.25,0.65625
1631018813625,-0.703125,0.25,0.65625
1631018813656,-0.703125,0.25,0.65625
1631018813687,-0.703125,0.25,0.65625
1631018813718,-0.703125,0.25,0.640625
1631018813750,-0.703125,0.25,0.640625
1631018813781,-0.703125,0.25,0.65625
1631018813812,-0.703125,0.25,0.65625
1631018813843,-0.703125,0.25,0.65625
1631018813875,-0.703125,0.25,0.65625
1631018813906,-0.703125,0.25,0.65625
1631018813937,-0.703125,0.25,0.65625
1631018813968,-0.703125,0.25,0.640625
1631018814000,-0.703125,0.25,0.65625
1631018814031,-0.703125,0.25,0.640625
1631018814062,-0.703125,0.25,0.65625
1631018814093,-0.703125,0.25,0.640625
1631018814125,-0.703125,0.25,0.640625
1631018814156,-0.703125,0.25,0.640625
1631018814187,-0.71875,0.25,0.640625
1631018814218,-0.703125,0.25,0.640625
1631018814250,-0.703125,0.25,0.640625
1631018814281,-0.703125,0.25,0.640625
1631018814312,-0.703125,0.25,0.65625
1631018814343,-0.703125,0.25,0.640625
1631018814375,-0.703125,0.25,0.640625
1631018814406,-0.71875,0.25,0.65625
1631018814437,-0.703125,0.25,0.640625
1631018814468,-0.71875,0.25,0.640625
1631018814500,-0.703125,0.25,0.640625
1631018814531,-0.703125,0.25,0.640625
1631018814562,-0.703125,0.25,0.640625
1631018814593,-0.703125,0.25,0.65625
1631018814625,-0.703125,0.25,0.640625
1631018814656,-0.71875,0.25,0.65625
1631018814687,-0.71875,0.25,0.640625
1631018814718,-0.703125,0.25,0.640625
1631018814750,-0.703125,0.25,0.640625
1631018814781,-0.703125,0.25,0.640625
1631018814812,-0.703125,0.25,0.640625
1631018814843,-0.703125,0.25,0.640625
1631018814875,-0.703125,0.25,0.640625
1631018814906,-0.703125,0.25,0.640625
1631018814937,-0.703125,0.25,0.640625
1631018814968,-0.703125,0.25,0.65625
1631018815000,-0.71875,0.25,0.640625
1631018815031,-0.703125,0.25,0.65625
1631018815062,-0.703125,0.25,0.65625
1631018815093,-0.703125,0.25,0.640625
1631018815125,-0.703125,0.25,0.65625
1631018815156,-0.703125,0.25,0.640625
1631018815187,-0.71875,0.25,0.640625
1631018815218,-0.703125,0.25,0.65625
1631018815250,-0.703125,0.25,0.65625
1631018815281,-0.703125,0.25,0.65625
1631018815312,-0.703125,0.25,0.640625
1631018815343,-0.703125,0.25,0.65625
1631018815375,-0.703125,0.25,0.65625
1631018815406,-0.703125,0.25,0.640625
1631018815437,-0.703125,0.25,0.65625
1631018815468,-0.703125,0.25,0.65625
1631018815500,-0.703125,0.25,0.640625
1631018815531,-0.703125,0.25,0.65625
1631018815562,-0.703125,0.25,0.640625
1631018815593,-0.703125,0.25,0.65625
1631018815625,-0.703125,0.25,0.640625
1631018815656,-0.703125,0.25,0.640625
1631018815687,-0.703125,0.25,0.65625
1631018815718,-0.703125,0.25,0.640625
1631018815750,-0.703125,0.25,0.65625
1631018815781,-0.703125,0.25,0.65625
1631018815812,-0.703125,0.25,0.65625
1631018815843,-0.703125,0.25,0.640625
1631018815875,-0.703125,0.25,0.640625
1631018815906,-0.703125,0.25,0.640625
1631018815937,-0.703125,0.25,0.65625
1631018815968,-0.703125,0.25,0.65625
1631018816000,-0.703125,0.25,0.65625
1631018816031,-0.703125,0.25,0.65625
1631018816062,-0.703125,0.25,0.65625
1631018816093,-0.703125,0.25,0.65625
1631018816125,-0.703125,0.25,0.65625
1631018816156,-0.703125,0.25,0.65625
1631018816187,-0.703125,0.25,0.640625
1631018816218,-0.703125,0.25,0.65625
1631018816250,-0.703125,0.25,0.65625
1631018816281,-0.703125,0.25,0.65625
1631018816312,-0.703125,0.25,0.65625
1631018816343,-0.703125,0.25,0.640625
1631018816375,-0.703125,0.25,0.65625
1631018816406,-0.703125,0.25,0.640625
1631018816437,-0.703125,0.25,0.65625
1631018816468,-0.703125,0.25,0.65625
1631018816500,-0.703125,0.25,0.65625
1631018816531,-0.703125,0.25,0.65625
1631018816562,-0.703125,0.25,0.65625
1631018816593,-0.703125,0.25,0.65625
1631018816625,-0.71875,0.25,0.640625
1631018816656,-0.703125,0.25,0.65625
1631018816687,-0.703125,0.25,0.640625
1631018816718,-0.703125,0.25,0.65625
1631018816750,-0.703125,0.25,0.65625
1631018816781,-0.703125,0.25,0.65625
1631018816812,-0.703125,0.25,0.65625
1631018816843,-0.703125,0.25,0.640625
1631018816875,-0.703125,0.25,0.65625
1631018816906,-0.703125,0.25,0.65625
1631018816937,-0.703125,0.25,0.640625
1631018816968,-0.703125,0.25,0.65625
1631018817000,-0.703125,0.25,0.640625
1631018817031,-0.703125,0.25,0.640625
1631018817062,-0.703125,0.25,0.65625
1631018817093,-0.71875,0.25,0.65625
1631018817125,-0.703125,0.25,0.65625
1631018817156,-0.703125,0.25,0.640625
1631018817187,-0.703125,0.25,0.65625
1631018817218,-0.703125,0.25,0.640625
1631018817250,-0.703125,0.25,0.640625
1631018817281,-0.703125,0.25,0.640625
1631018817312,-0.703125,0.25,0.640625
1631018817343,-0.703125,0.25,0.65625
1631018817375,-0.71875,0.25,0.640625
1631018817406,-0.703125,0.25,0.65625
1631018817437,-0.703125,0.25,0.640625
1631018817468,-0.703125,0.25,0.65625
1631018817500,-0.703125,0.25,0.65625
1631018817531,-0.703125,0.25,0.640625
1631018817562,-0.703125,0.25,0.65625
1631018817593,-0.703125,0.25,0.65625
1631018817625,-0.703125,0.25,0.640625
1631018817656,-0.703125,0.25,0.65625
1631018817687,-0.703125,0.25,0.640625
1631018817718,-0.703125,0.25,0.640625
1631018817750,-0.703125,0.25,0.640625
1631018817781,-0.71875,0.25,0.640625
1631018817812,-0.703125,0.25,0.640625
1631018817843,-0.71875,0.25,0.65625
1631018817875,-0.703125,0.25,0.640625
1631018817906,-0.703125,0.25,0.65625
1631018817937,-0.703125,0.25,0.640625
1631018817968,-0.703125,0.25,0.640625
1631018818000,-0.703125,0.25,0.640625
1631018818031,-0.703125,0.25,0.640625
1631018818062,-0.703125,0.25,0.65625
1631018818093,-0.703125,0.25,0.640625
1631018818125,-0.703125,0.25,0.65625
1631018818156,-0.703125,0.25,0.640625
1631018818187,-0.703125,0.25,0.65625
1631018818218,-0.703125,0.25,0.640625
1631018818250,-0.703125,0.25,0.65625
1631018818281,-0.703125,0.25,0.640625
1631018818312,-0.703125,0.25,0.65625
1631018818343,-0.703125,0.25,0.640625
1631018818375,-0.703125,0.25,0.640625
1631018818406,-0.703125,0.25,0.640625
1631018818437,-0.703125,0.25,0.640625
1631018818468,-0.703125,0.25,0.65625
1631018818500,-0.703125,0.25,0.640625
1631018818531,-0.703125,0.25,0.640625
1631018818562,-0.703125,0.25,0.65625
1631018818593,-0.703125,0.25,0.65625
1631018818625,-0.703125,0.25,0.65625
1631018818656,-0.703125,0.25,0.640625
1631018818687,-0.703125,0.25,0.640625
1631018818718,-0.703125,0.25,0.640625
1631018818750,-0.703125,0.25,0.640625
1631018818781,-0.703125,0.25,0.65625
1631018818812,-0.703125,0.25,0.65625
1631018818843,-0.703125,0.25,0.65625
1631018818875,-0.703125,0.25,0.65625
1631018818906,-0.703125,0.25,0.65625
1631018818937,-0.703125,0.25,0.65625
1631018818968,-0.703125,0.25,0.65625
1631018819000,-0.703125,0.25,0.65625
1631018819031,-0.703125,0.25,0.65625
1631018819062,-0.703125,0.25,0.65625
1631018819093,-0.703125,0.25,0.65625
1631018819125,-0.703125,0.25,0.65625
1631018819156,-0.703125,0.25,0.65625
1631018819187,-0.703125,0.25,0.65625
1631018819218,-0.703125,0.25,0.65625
1631018819250,-0.703125,0.25,0.65625
1631018819281,-0.703125,0.25,0.65625
1631018819312,-0.703125,0.25,0.65625
1631018819343,-0.703125,0.25,0.65625
1631018819375,-0.703125,0.25,0.65625
1631018819406,-0.703125,0.25,0.640625
1631018819437,-0.703125,0.25,0.640625
1631018819468,-0.703125,0.25,0.65625
1631018819500,-0.703125,0.25,0.640625
1631018819531,-0.703125,0.25,0.640625
1631018819562,-0.703125,0.25,0.65625
1631018819593,-0.703125,0.25,0.65625
1631018819625,-0.703125,0.25,0.65625
1631018819656,-0.703125,0.25,0.65625
1631018819687,-0.703125,0.25,0.65625
1631018819718,-0.71875,0.25,0.640625
1631018819750,-0.703125,0.25,0.65625
1631018819781,-0.703125,0.25,0.65625
1631018819812,-0.703125,0.25,0.640625
1631018819843,-0.703125,0.25,0.640625
1631018819875,-0.703125,0.25,0.65625
1631018819906,-0.703125,0.25,0.65625
1631018819937,-0.703125,0.25,0.65625
1631018819968,-0.703125,0.25,0.65625
1631018820000,-0.703125,0.25,0.65625
1631018820031,-0.703125,0.25,0.640625
1631018820062,-0.703125,0.25,0.640625
1631018820093,-0.703125,0.25,0.65625
1631018820125,-0.703125,0.25,0.65625
1631018820156,-0.703125,0.25,0.640625
1631018820187,-0.703125,0.25,0.640625
1631018820218,-0.703125,0.25,0.65625
1631018820250,-0.703125,0.25,0.65625
1631018820281,-0.703125,0.25,0.65625
1631018820312,-0.703125,0.25,0.65625
1631018820343,-0.703125,0.25,0.640625
1631018820375,-0.703125,0.25,0.65625
1631018820406,-0.71875,0.25,0.640625
1631018820437,-0.703125,0.25,0.640625
1631018820468,-0.703125,0.25,0.640625
1631018820500,-0.71875,0.25,0.640625
1631018820531,-0.703125,0.25,0.640625
1631018820562,-0.71875,0.25,0.640625
1631018820593,-0.703125,0.25,0.640625
1631018820625,-0.703125,0.25,0.640625
1631018820656,-0.703125,0.25,0.65625
1631018820687,-0.703125,0.25,0.65625
1631018820718,-0.703125,0.25,0.65625
1631018820750,-0.703125,0.25,0.640625
1631018820781,-0.703125,0.25,0.640625
1631018820812,-0.703125,0.25,0.640625
1631018820843,-0.703125,0.25,0.640625
1631018820875,-0.703125,0.25,0.65625
1631018820906,-0.703125,0.25,0.640625
1631018820937,-0.703125,0.25,0.640625
1631018820968,-0.703125,0.25,0.65625
1631018821000,-0.703125,0.25,0.65625
1631018821031,-0.703125,0.25,0.65625
1631018821062,-0.703125,0.25,0.65625
1631018821093,-0.703125,0.25,0.65625
1631018821125,-0.703125,0.25,0.65625
1631018821156,-0.703125,0.25,0.65625
1631018821187,-0.703125,0.25,0.65625
1631018821218,-0.703125,0.25,0.640625
1631018821250,-0.703125,0.25,0.640625
1631018821281,-0.703125,0.25,0.65625
1631018821312,-0.703125,0.25,0.65625
1631018821343,-0.703125,0.25,0.65625
1631018821375,-0.703125,0.25,0.65625
1631018821406,-0.703125,0.25,0.640625
1631018821437,-0.703125,0.25,0.65625
1631018821468,-0.703125,0.25,0.65625
1631018821500,-0.703125,0.25,0.65625
1631018821531,-0.703125,0.25,0.65625
1631018821562,-0.703125,0.25,0.65625
1631018821593,-0.703125,0.25,0.65625
1631018821625,-0.703125,0.25,0.65625
1631018821656,-0.703125,0.25,0.640625
1631018821687,-0.703125,0.25,0.65625
1631018821718,-0.703125,0.25,0.65625
1631018821750,-0.703125,0.25,0.65625
1631018821781,-0.703125,0.25,0.65625
1631018821812,-0.703125,0.25,0.65625
1631018821843,-0.703125,0.25,0.65625
1631018821875,-0.703125,0.25,0.65625
1631018821906,-0.703125,0.25,0.65625
1631018821937,-0.703125,0.25,0.640625
1631018821968,-0.703125,0.25,0.65625
1631018822000,-0.703125,0.25,0.65625
1631018822031,-0.703125,0.25,0.65625
1631018822062,-0.703125,0.25,0.65625
1631018822093,-0.703125,0.25,0.65625
1631018822125,-0.703125,0.25,0.65625
1631018822156,-0.703125,0.25,0.640625
1631018822187,-0.703125,0.25,0.640625
1631018822218,-0.703125,0.25,0.65625
1631018822250,-0.703125,0.25,0.65625
1631018822281,-0.703125,0.25,0.65625
1631018822312,-0.703125,0.25,0.65625
1631018822343,-0.703125,0.25,0.65625
1631018822375,-0.703125,0.25,0.65625
1631018822406,-0.703125,0.25,0.65625
1631018822437,-0.703125,0.25,0.65625
1631018822468,-0.703125,0.25,0.65625
1631018822500,-0.703125,0.25,0.65625
1631018822531,-0.703125,0.25,0.65625
1631018822562,-0.703125,0.25,0.65625
1631018822593,-0.703125,0.25,0.65625
1631018822625,-0.703125,0.25,0.65625
1631018822656,-0.703125,0.25,0.640625
1631018822687,-0.703125,0.25,0.65625
1631018822718,-0.703125,0.25,0.65625
1631018822750,-0.703125,0.25,0.65625
1631018822781,-0.703125,0.25,0.65625
1631018822812,-0.703125,0.25,0.65625
1631018822843,-0.703125,0.25,0.640625
1631018822875,-0.703125,0.25,0.640625
1631018822906,-0.703125,0.25,0.65625
1631018822937,-0.703125,0.25,0.65625
1631018822968,-0.703125,0.25,0.640625
1631018823000,-0.703125,0.25,0.640625
1631018823031,-0.703125,0.25,0.640625
1631018823062,-0.703125,0.25,0.65625
1631018823093,-0.703125,0.25,0.65625
1631018823125,-0.703125,0.25,0.65625
1631018823156,-0.703125,0.25,0.65625
1631018823187,-0.703125,0.25,0.640625
1631018823218,-0.703125,0.25,0.65625
1631018823250,-0.703125,0.25,0.65625
1631018823281,-0.703125,0.25,0.65625
1631018823312,-0.703125,0.25,0.640625
1631018823343,-0.703125,0.25,0.65625
1631018823375,-0.703125,0.25,0.640625
1631018823406,-0.703125,0.25,0.65625
1631018823437,-0.703125,0.25,0.65625
1631018823468,-0.703125,0.25,0.65625
1631018823500,-0.703125,0.25,0.640625
1631018823531,-0.703125,0.25,0.65625
1631018823562,-0.703125,0.25,0.65625
1631018823593,-0.703125,0.25,0.640625
1631018823625,-0.703125,0.25,0.640625
1631018823656,-0.703125,0.25,0.65625
1631018823687,-0.703125,0.25,0.640625
1631018823718,-0.703125,0.25,0.640625
1631018823750,-0.703125,0.25,0.640625
1631018823781,-0.71875,0.25,0.640625
1631018823812,-0.703125,0.25,0.65625
1631018823843,-0.703125,0.25,0.640625
1631018823875,-0.703125,0.25,0.65625
1631018823906,-0.703125,0.25,0.65625
1631018823937,-0.703125,0.25,0.65625
1631018823968,-0.703125,0.25,0.65625
1631018824000,-0.703125,0.25,0.65625
1631018824031,-0.703125,0.25,0.65625
1631018824062,-0.703125,0.25,0.640625
1631018824093,-0.703125,0.25,0.65625
1631018824125,-0.703125,0.25,0.65625
1631018824156,-0.703125,0.25,0.640625
1631018824187,-0.703125,0.25,0.65625
1631018824218,-0.703125,0.25,0.65625
1631018824250,-0.703125,0.25,0.640625
1631018824281,-0.703125,0.25,0.65625
1631018824312,-0.703125,0.25,0.65625
1631018824343,-0.703125,0.25,0.640625
1631018824375,-0.703125,0.25,0.640625
1631018824406,-0.703125,0.25,0.65625
1631018824437,-0.703125,0.25,0.640625
1631018824468,-0.703125,0.25,0.640625
1631018824500,-0.703125,0.25,0.65625
1631018824531,-0.703125,0.25,0.640625
1631018824562,-0.703125,0.25,0.65625
1631018824593,-0.703125,0.25,0.65625
1631018824625,-0.703125,0.25,0.65625
1631018824656,-0.703125,0.25,0.65625
1631018824687,-0.703125,0.25,0.65625
1631018824718,-0.703125,0.25,0.65625
1631018824750,-0.703125,0.25,0.65625
1631018824781,-0.703125,0.25,0.65625
1631018824812,-0.71875,0.25,0.65625
1631018824843,-0.703125,0.25,0.65625
1631018824875,-0.703125,0.25,0.65625
1631018824906,-0.703125,0.25,0.65625
1631018824937,-0.703125,0.25,0.65625
1631018824968,-0.703125,0.25,0.65625
1631018825000,-0.703125,0.25,0.65625
1631018825031,-0.703125,0.25,0.65625
1631018825062,-0.703125,0.25,0.65625
1631018825093,-0.703125,0.25,0.65625
1631018825125,-0.703125,0.25,0.65625
1631018825156,-0.703125,0.25,0.65625
1631018825187,-0.703125,0.25,0.65625
1631018825218,-0.703125,0.25,0.65625
1631018825250,-0.703125,0.25,0.640625
1631018825281,-0.703125,0.25,0.65625
1631018825312,-0.703125,0.25,0.65625
1631018825343,-0.703125,0.25,0.65625
1631018825375,-0.703125,0.25,0.65625
1631018825406,-0.703125,0.25,0.65625
1631018825437,-0.703125,0.25,0.65625
1631018825468,-0.703125,0.25,0.65625
1631018825500,-0.703125,0.25,0.65625
1631018825531,-0.703125,0.25,0.65625
1631018825562,-0.703125,0.25,0.65625
1631018825593,-0.703125,0.25,0.65625
1631018825625,-0.703125,0.25,0.65625
1631018825656,-0.703125,0.25,0.65625
1631018825687,-0.703125,0.25,0.640625
1631018825718,-0.703125,0.25,0.65625
1631018825750,-0.703125,0.25,0.65625
1631018825781,-0.703125,0.25,0.65625
1631018825812,-0.703125,0.25,0.65625
1631018825843,-0.703125,0.25,0.65625
1631018825875,-0.703125,0.25,0.65625
1631018825906,-0.703125,0.25,0.65625
1631018825937,-0.703125,0.25,0.65625
1631018825968,-0.703125,0.25,0.65625
1631018826000,-0.703125,0.25,0.65625
1631018826031,-0.703125,0.25,0.65625
1631018826062,-0.703125,0.25,0.65625
1631018826093,-0.703125,0.25,0.65625
1631018826125,-0.703125,0.25,0.65625
1631018826156,-0.703125,0.25,0.65625
1631018826187,-0.703125,0.25,0.65625
1631018826218,-0.703125,0.25,0.65625
1631018826250,-0.703125,0.25,0.65625
1631018826281,-0.703125,0.25,0.65625
1631018826312,-0.703125,0.25,0.65625
1631018826343,-0.703125,0.25,0.65625
1631018826375,-0.703125,0.25,0.65625
1631018826406,-0.703125,0.25,0.65625
1631018826437,-0.703125,0.25,0.65625
1631018826468,-0.703125,0.25,0.65625
1631018826500,-0.703125,0.25,0.65625
1631018826531,-0.703125,0.25,0.640625
1631018826562,-0.703125,0.25,0.65625
1631018826593,-0.703125,0.25,0.65625
1631018826625,-0.703125,0.25,0.65625
1631018826656,-0.703125,0.25,0.65625
1631018826687,-0.703125,0.25,0.65625
1631018826718,-0.703125,0.25,0.65625
1631018826750,-0.703125,0.25,0.640625
1631018826781,-0.703125,0.25,0.640625
1631018826812,-0.703125,0.25,0.640625
1631018826843,-0.703125,0.25,0.65625
1631018826875,-0.703125,0.25,0.65625
1631018826906,-0.703125,0.25,0.65625
1631018826937,-0.703125,0.25,0.65625
1631018826968,-0.703125,0.25,0.640625
1631018827000,-0.703125,0.25,0.65625
1631018827031,-0.703125,0.25,0.640625
1631018827062,-0.703125,0.25,0.640625
1631018827093,-0.703125,0.25,0.640625
1631018827125,-0.703125,0.25,0.640625
1631018827156,-0.703125,0.25,0.640625
1631018827187,-0.703125,0.25,0.640625
1631018827218,-0.71875,0.25,0.65625
1631018827250,-0.71875,0.25,0.640625
1631018827281,-0.703125,0.25,0.65625
1631018827312,-0.703125,0.25,0.65625
1631018827343,-0.703125,0.25,0.640625
1631018827375,-0.703125,0.25,0.65625
1631018827406,-0.703125,0.25,0.65625
1631018827437,-0.703125,0.25,0.640625
1631018827468,-0.703125,0.25,0.65625
1631018827500,-0.703125,0.25,0.65625
1631018827531,-0.703125,0.25,0.640625
1631018827562,-0.703125,0.25,0.640625
1631018827593,-0.703125,0.25,0.640625
1631018827625,-0.703125,0.25,0.65625
1631018827656,-0.703125,0.25,0.65625
1631018827687,-0.703125,0.25,0.65625
1631018827718,-0.703125,0.25,0.65625
1631018827750,-0.703125,0.25,0.65625
1631018827781,-0.703125,0.25,0.65625
1631018827812,-0.703125,0.25,0.65625
1631018827843,-0.703125,0.25,0.65625
1631018827875,-0.703125,0.25,0.65625
1631018827906,-0.703125,0.25,0.65625
1631018827937,-0.703125,0.25,0.640625
1631018827968,-0.703125,0.25,0.640625
1631018828000,-0.703125,0.25,0.65625
1631018828031,-0.71875,0.25,0.65625
1631018828062,-0.703125,0.25,0.65625
1631018828093,-0.703125,0.25,0.65625
1631018828125,-0.703125,0.25,0.65625
1631018828156,-0.703125,0.25,0.65625
1631018828187,-0.703125,0.25,0.65625
1631018828218,-0.703125,0.25,0.65625
1631018828250,-0.703125,0.25,0.65625
1631018828281,-0.703125,0.25,0.65625
1631018828312,-0.703125,0.25,0.65625
1631018828343,-0.703125,0.25,0.65625
1631018828375,-0.703125,0.25,0.65625
1631018828406,-0.703125,0.25,0.65625
1631018828437,-0.703125,0.25,0.65625
1631018828468,-0.703125,0.25,0.65625
1631018828500,-0.703125,0.25,0.640625
1631018828531,-0.703125,0.25,0.65625
1631018828562,-0.703125,0.25,0.65625
1631018828593,-0.703125,0.25,0.65625
1631018828625,-0.703125,0.25,0.65625
1631018828656,-0.703125,0.25,0.65625
1631018828687,-0.703125,0.25,0.65625
1631018828718,-0.703125,0.25,0.65625
1631018828750,-0.703125,0.25,0.65625
1631018828781,-0.703125,0.25,0.65625
1631018828812,-0.703125,0.25,0.65625
1631018828843,-0.703125,0.25,0.65625
1631018828875,-0.703125,0.25,0.65625
1631018828906,-0.703125,0.25,0.65625
1631018828937,-0.703125,0.25,0.640625
1631018828968,-0.703125,0.25,0.65625
1631018829000,-0.703125,0.25,0.65625
1631018829031,-0.703125,0.25,0.65625
1631018829062,-0.703125,0.25,0.65625
1631018829093,-0.703125,0.25,0.65625
1631018829125,-0.703125,0.25,0.65625
1631018829156,-0.703125,0.25,0.65625
1631018829187,-0.703125,0.25,0.65625
1631018829218,-0.703125,0.25,0.65625
1631018829250,-0.703125,0.25,0.65625
1631018829281,-0.703125,0.25,0.65625
1631018829312,-0.703125,0.25,0.65625
1631018829343,-0.703125,0.25,0.65625
1631018829375,-0.703125,0.25,0.65625
1631018829406,-0.703125,0.25,0.640625
1631018829437,-0.703125,0.25,0.65625
1631018829468,-0.703125,0.25,0.65625
1631018829500,-0.703125,0.25,0.65625
1631018829531,-0.703125,0.25,0.640625
1631018829562,-0.703125,0.25,0.65625
1631018829593,-0.703125,0.25,0.65625
1631018829625,-0.703125,0.25,0.640625
1631018829656,-0.703125,0.25,0.640625
1631018829687,-0.71875,0.25,0.640625
1631018829718,-0.703125,0.25,0.65625
1631018829750,-0.703125,0.25,0.65625
1631018829781,-0.703125,0.25,0.65625
1631018829812,-0.703125,0.25,0.65625
1631018829843,-0.703125,0.25,0.65625
1631018829875,-0.703125,0.25,0.65625
1631018829906,-0.703125,0.25,0.65625
1631018829937,-0.703125,0.25,0.65625
1631018829968,-0.703125,0.25,0.65625
1631018830000,-0.703125,0.25,0.640625
1631018830031,-0.703125,0.25,0.640625
1631018830062,-0.703125,0.25,0.640625
1631018830093,-0.703125,0.25,0.65625
1631018830125,-0.703125,0.25,0.640625
1631018830156,-0.703125,0.25,0.65625
1631018830187,-0.703125,0.25,0.65625
1631018830218,-0.703125,0.25,0.65625
1631018830250,-0.703125,0.25,0.65625
1631018830281,-0.703125,0.25,0.65625
1631018830312,-0.703125,0.25,0.65625
1631018830343,-0.703125,0.25,0.65625
1631018830375,-0.703125,0.25,0.65625
1631018830406,-0.703125,0.25,0.640625
1631018830437,-0.703125,0.25,0.640625
1631018830468,-0.703125,0.25,0.65625
1631018830500,-0.703125,0.25,0.65625
1631018830531,-0.703125,0.25,0.65625
1631018830562,-0.703125,0.25,0.640625
1631018830593,-0.703125,0.25,0.65625
1631018830625,-0.703125,0.25,0.65625
1631018830656,-0.703125,0.25,0.65625
1631018830687,-0.703125,0.25,0.65625
1631018830718,-0.703125,0.25,0.640625
1631018830750,-0.703125,0.25,0.65625
1631018830781,-0.703125,0.25,0.65625
1631018830812,-0.703125,0.25,0.65625
1631018830843,-0.703125,0.25,0.65625
1631018830875,-0.703125,0.25,0.65625
1631018830906,-0.703125,0.25,0.65625
1631018830937,-0.703125,0.25,0.65625
1631018830968,-0.703125,0.25,0.65625
1631018831000,-0.703125,0.25,0.65625
1631018831031,-0.703125,0.25,0.65625
1631018831062,-0.703125,0.25,0.65625
1631018831093,-0.703125,0.25,0.65625
1631018831125,-0.703125,0.25,0.65625
1631018831156,-0.703125,0.25,0.65625
1631018831187,-0.703125,0.25,0.65625
1631018831218,-0.703125,0.25,0.65625
1631018831250,-0.703125,0.25,0.65625
1631018831281,-0.703125,0.25,0.65625
1631018831312,-0.703125,0.25,0.65625
1631018831343,-0.703125,0.25,0.65625
1631018831375,-0.703125,0.25,0.65625
1631018831406,-0.703125,0.25,0.65625
1631018831437,-0.703125,0.25,0.65625
1631018831468,-0.703125,0.25,0.65625
1631018831500,-0.703125,0.25,0.65625
1631018831531,-0.703125,0.25,0.65625
1631018831562,-0.703125,0.25,0.65625
1631018831593,-0.703125,0.25,0.65625
1631018831625,-0.703125,0.25,0.65625
1631018831656,-0.703125,0.25,0.65625
1631018831687,-0.703125,0.25,0.65625
1631018831718,-0.703125,0.25,0.65625
1631018831750,-0.703125,0.25,0.65625
1631018831781,-0.703125,0.25,0.65625
1631018831812,-0.703125,0.25,0.65625
1631018831843,-0.703125,0.25,0.65625
1631018831875,-0.703125,0.25,0.65625
1631018831906,-0.703125,0.25,0.65625
1631018831937,-0.703125,0.25,0.640625
1631018831968,-0.703125,0.25,0.65625
1631018832000,-0.703125,0.25,0.65625
1631018832031,-0.703125,0.25,0.65625
1631018832062,-0.703125,0.25,0.65625
1631018832093,-0.703125,0.25,0.65625
1631018832125,-0.703125,0.25,0.65625
1631018832156,-0.703125,0.25,0.65625
1631018832187,-0.703125,0.25,0.65625
1631018832218,-0.703125,0.25,0.65625
1631018832250,-0.703125,0.25,0.65625
1631018832281,-0.703125,0.25,0.65625
1631018832312,-0.703125,0.25,0.65625
1631018832343,-0.703125,0.25,0.65625
1631018832375,-0.703125,0.25,0.640625
1631018832406,-0.703125,0.25,0.65625
1631018832437,-0.703125,0.25,0.65625
1631018832468,-0.703125,0.25,0.65625
1631018832500,-0.703125,0.25,0.640625
1631018832531,-0.703125,0.25,0.640625
1631018832562,-0.703125,0.25,0.65625
1631018832593,-0.703125,0.25,0.65625
1631018832625,-0.703125,0.25,0.65625
1631018832656,-0.703125,0.25,0.640625
1631018832687,-0.703125,0.25,0.640625
1631018832718,-0.703125,0.25,0.640625
1631018832750,-0.703125,0.25,0.65625
1631018832781,-0.703125,0.25,0.65625
1631018832812,-0.703125,0.25,0.65625
1631018832843,-0.703125,0.25,0.640625
1631018832875,-0.703125,0.25,0.65625
1631018832906,-0.703125,0.25,0.65625
1631018832937,-0.703125,0.25,0.65625
1631018832968,-0.71875,0.25,0.65625
1631018833000,-0.703125,0.25,0.640625
1631018833031,-0.703125,0.25,0.65625
1631018833062,-0.703125,0.25,0.65625
1631018833093,-0.703125,0.25,0.640625
1631018833125,-0.703125,0.25,0.65625
1631018833156,-0.703125,0.25,0.640625
1631018833187,-0.703125,0.25,0.65625
1631018833218,-0.703125,0.25,0.640625
1631018833250,-0.703125,0.25,0.65625
1631018833281,-0.703125,0.25,0.65625
1631018833312,-0.703125,0.25,0.640625
1631018833343,-0.703125,0.25,0.640625
1631018833375,-0.703125,0.25,0.640625
1631018833406,-0.703125,0.25,0.65625
1631018833437,-0.703125,0.25,0.65625
1631018833468,-0.703125,0.25,0.640625
1631018833500,-0.703125,0.25,0.65625
1631018833531,-0.703125,0.25,0.640625
1631018833562,-0.703125,0.25,0.65625
1631018833593,-0.703125,0.25,0.65625
1631018833625,-0.703125,0.25,0.640625
1631018833656,-0.703125,0.25,0.65625
1631018833687,-0.703125,0.25,0.65625
1631018833718,-0.703125,0.25,0.65625
1631018833750,-0.703125,0.25,0.65625
1631018833781,-0.703125,0.25,0.640625
1631018833812,-0.703125,0.25,0.65625
1631018833843,-0.703125,0.25,0.65625
1631018833875,-0.703125,0.25,0.640625
1631018833906,-0.703125,0.25,0.65625
1631018833937,-0.703125,0.25,0.65625
1631018833968,-0.703125,0.25,0.65625
1631018834000,-0.703125,0.25,0.65625
1631018834031,-0.703125,0.25,0.65625
1631018834062,-0.703125,0.25,0.65625
1631018834093,-0.703125,0.25,0.65625
1631018834125,-0.703125,0.25,0.65625
1631018834156,-0.703125,0.25,0.65625
1631018834187,-0.703125,0.25,0.65625
1631018834218,-0.703125,0.25,0.65625
1631018834250,-0.703125,0.25,0.65625
1631018834281,-0.703125,0.25,0.65625
1631018834312,-0.703125,0.25,0.65625
1631018834343,-0.703125,0.25,0.640625
1631018834375,-0.703125,0.25,0.65625
1631018834406,-0.703125,0.25,0.65625
1631018834437,-0.703125,0.25,0.65625
1631018834468,-0.703125,0.25,0.65625
1631018834500,-0.703125,0.25,0.640625
1631018834531,-0.703125,0.25,0.65625
1631018834562,-0.703125,0.25,0.65625
1631018834593,-0.703125,0.25,0.65625
1631018834625,-0.703125,0.25,0.65625
1631018834656,-0.703125,0.25,0.65625
1631018834687,-0.703125,0.25,0.65625
1631018834718,-0.703125,0.25,0.65625
1631018834750,-0.703125,0.25,0.65625
1631018834781,-0.703125,0.25,0.65625
1631018834812,-0.703125,0.25,0.65625
1631018834843,-0.703125,0.25,0.65625
1631018834875,-0.703125,0.25,0.640625
1631018834906,-0.703125,0.25,0.65625
1631018834937,-0.703125,0.25,0.640625
1631018834968,-0.71875,0.25,0.65625
1631018835000,-0.703125,0.25,0.65625
1631018835031,-0.703125,0.25,0.65625
1631018835062,-0.703125,0.25,0.65625
1631018835093,-0.703125,0.25,0.65625
1631018835125,-0.703125,0.25,0.65625
1631018835156,-0.703125,0.25,0.65625
1631018835187,-0.703125,0.25,0.65625
1631018835218,-0.703125,0.25,0.65625
1631018835250,-0.703125,0.25,0.65625
1631018835281,-0.703125,0.25,0.640625
1631018835312,-0.703125,0.25,0.65625
1631018835343,-0.703125,0.25,0.640625
1631018835375,-0.703125,0.25,0.640625
1631018835406,-0.703125,0.25,0.640625
1631018835437,-0.703125,0.25,0.640625
1631018835468,-0.703125,0.25,0.65625
1631018835500,-0.703125,0.25,0.65625
1631018835531,-0.703125,0.25,0.65625
1631018835562,-0.703125,0.25,0.65625
1631018835593,-0.703125,0.25,0.65625
1631018835625,-0.703125,0.25,0.65625
1631018835656,-0.703125,0.25,0.640625
1631018835687,-0.703125,0.25,0.640625
1631018835718,-0.71875,0.25,0.640625
1631018835750,-0.703125,0.25,0.65625
1631018835781,-0.703125,0.25,0.65625
1631018835812,-0.703125,0.25,0.65625
1631018835843,-0.703125,0.25,0.65625
1631018835875,-0.703125,0.25,0.65625
1631018835906,-0.703125,0.25,0.640625
1631018835937,-0.703125,0.25,0.65625
1631018835968,-0.703125,0.25,0.65625
1631018836000,-0.71875,0.25,0.640625
1631018836031,-0.703125,0.25,0.640625
1631018836062,-0.703125,0.25,0.65625
1631018836093,-0.703125,0.25,0.65625
1631018836125,-0.703125,0.25,0.65625
1631018836156,-0.703125,0.25,0.65625
1631018836187,-0.703125,0.25,0.65625
1631018836218,-0.703125,0.25,0.65625
1631018836250,-0.703125,0.25,0.65625
1631018836281,-0.703125,0.25,0.65625
1631018836312,-0.703125,0.25,0.640625
1631018836343,-0.703125,0.25,0.65625
1631018836375,-0.71875,0.25,0.640625
1631018836406,-0.703125,0.25,0.640625
1631018836437,-0.703125,0.25,0.640625
1631018836468,-0.703125,0.25,0.65625
1631018836500,-0.703125,0.25,0.65625
1631018836531,-0.703125,0.25,0.65625
1631018836562,-0.703125,0.25,0.65625
1631018836593,-0.703125,0.25,0.65625
1631018836625,-0.703125,0.25,0.65625
1631018836656,-0.703125,0.25,0.65625
1631018836687,-0.703125,0.25,0.65625
1631018836718,-0.703125,0.25,0.640625
1631018836750,-0.703125,0.25,0.640625
1631018836781,-0.703125,0.25,0.65625
1631018836812,-0.703125,0.25,0.65625
1631018836843,-0.703125,0.25,0.65625
1631018836875,-0.703125,0.25,0.640625
1631018836906,-0.703125,0.25,0.65625
1631018836937,-0.703125,0.25,0.65625
1631018836968,-0.703125,0.25,0.65625
1631018837000,-0.703125,0.25,0.65625
1631018837031,-0.703125,0.25,0.640625
1631018837062,-0.703125,0.25,0.65625
1631018837093,-0.703125,0.25,0.65625
1631018837125,-0.703125,0.25,0.65625
1631018837156,-0.703125,0.25,0.65625
1631018837187,-0.703125,0.25,0.65625
1631018837218,-0.703125,0.25,0.65625
1631018837250,-0.703125,0.25,0.65625
1631018837281,-0.703125,0.25,0.65625
1631018837312,-0.703125,0.25,0.65625
1631018837343,-0.703125,0.25,0.65625
1631018837375,-0.703125,0.25,0.65625
1631018837406,-0.703125,0.25,0.65625
1631018837437,-0.703125,0.25,0.65625
1631018837468,-0.703125,0.25,0.65625
1631018837500,-0.703125,0.25,0.65625
1631018837531,-0.703125,0.25,0.65625
1631018837562,-0.703125,0.25,0.65625
1631018837593,-0.703125,0.25,0.65625
1631018837625,-0.703125,0.25,0.640625
1631018837656,-0.703125,0.25,0.65625
1631018837687,-0.703125,0.25,0.65625
1631018837718,-0.703125,0.25,0.65625
1631018837750,-0.703125,0.25,0.65625
1631018837781,-0.703125,0.25,0.65625
1631018837812,-0.703125,0.25,0.65625
1631018837843,-0.703125,0.25,0.640625
1631018837875,-0.703125,0.25,0.640625
1631018837906,-0.703125,0.25,0.65625
1631018837937,-0.703125,0.25,0.65625
1631018837968,-0.703125,0.25,0.65625
1631018838000,-0.703125,0.25,0.65625
1631018838031,-0.703125,0.25,0.65625
1631018838062,-0.703125,0.25,0.65625
1631018838093,-0.703125,0.25,0.65625
1631018838125,-0.703125,0.25,0.65625
1631018838156,-0.703125,0.25,0.65625
1631018838187,-0.703125,0.25,0.65625
1631018838218,-0.703125,0.25,0.65625
1631018838250,-0.703125,0.25,0.65625
1631018838281,-0.703125,0.25,0.65625
1631018838312,-0.703125,0.25,0.65625
1631018838343,-0.703125,0.25,0.65625
1631018838375,-0.703125,0.25,0.65625
1631018838406,-0.703125,0.25,0.65625
1631018838437,-0.703125,0.25,0.65625
1631018838468,-0.703125,0.25,0.65625
1631018838500,-0.703125,0.25,0.65625
1631018838531,-0.703125,0.25,0.65625
1631018838562,-0.703125,0.25,0.65625
1631018838593,-0.703125,0.25,0.65625
1631018838625,-0.703125,0.25,0.65625
1631018838656,-0.703125,0.25,0.65625
1631018838687,-0.703125,0.25,0.65625
1631018838718,-0.703125,0.25,0.65625
1631018838750,-0.703125,0.25,0.65625
1631018838781,-0.703125,0.25,0.65625
1631018838812,-0.703125,0.25,0.65625
1631018838843,-0.703125,0.25,0.65625
1631018838875,-0.703125,0.25,0.65625
1631018838906,-0.703125,0.25,0.65625
1631018838937,-0.703125,0.25,0.65625
1631018838968,-0.703125,0.25,0.65625
1631018839000,-0.703125,0.25,0.65625
1631018839031,-0.703125,0.25,0.65625
1631018839062,-0.703125,0.25,0.640625
1631018839093,-0.703125,0.25,0.65625
1631018839125,-0.703125,0.25,0.65625
1631018839156,-0.703125,0.25,0.65625
1631018839187,-0.703125,0.25,0.65625
1631018839218,-0.703125,0.25,0.65625
1631018839250,-0.703125,0.25,0.640625
1631018839281,-0.703125,0.25,0.65625
1631018839312,-0.703125,0.25,0.65625
1631018839343,-0.703125,0.25,0.65625
1631018839375,-0.703125,0.25,0.640625
1631018839406,-0.703125,0.25,0.65625
1631018839437,-0.703125,0.25,0.65625
1631018839468,-0.703125,0.25,0.65625
1631018839500,-0.703125,0.25,0.65625
1631018839531,-0.703125,0.25,0.65625
1631018839562,-0.703125,0.25,0.65625
1631018839593,-0.703125,0.25,0.65625
1631018839625,-0.703125,0.25,0.65625
1631018839656,-0.703125,0.25,0.65625
1631018839687,-0.703125,0.25,0.640625
1631018839718,-0.703125,0.25,0.65625
1631018839750,-0.71875,0.25,0.65625
1631018839781,-0.703125,0.25,0.640625
1631018839812,-0.703125,0.25,0.640625
1631018839843,-0.703125,0.25,0.65625
1631018839875,-0.703125,0.25,0.65625
1631018839906,-0.703125,0.25,0.640625
1631018839937,-0.703125,0.25,0.640625
1631018839968,-0.703125,0.25,0.65625
1631018840000,-0.71875,0.25,0.65625
1631018840031,-0.703125,0.25,0.640625
1631018840062,-0.703125,0.25,0.65625
1631018840093,-0.703125,0.25,0.640625
1631018840125,-0.703125,0.25,0.640625
1631018840156,-0.703125,0.25,0.65625
1631018840187,-0.703125,0.25,0.65625
1631018840218,-0.703125,0.25,0.65625
1631018840250,-0.703125,0.25,0.65625
1631018840281,-0.703125,0.25,0.65625
1631018840312,-0.703125,0.25,0.65625
1631018840343,-0.703125,0.25,0.65625
1631018840375,-0.703125,0.25,0.65625
1631018840406,-0.703125,0.25,0.640625
1631018840437,-0.703125,0.25,0.65625
1631018840468,-0.703125,0.25,0.65625
1631018840500,-0.703125,0.25,0.640625
1631018840531,-0.703125,0.25,0.65625
1631018840562,-0.703125,0.25,0.65625
1631018840593,-0.703125,0.25,0.640625
1631018840625,-0.703125,0.25,0.65625
1631018840656,-0.703125,0.25,0.65625
1631018840687,-0.703125,0.25,0.65625
1631018840718,-0.703125,0.25,0.65625
1631018840750,-0.703125,0.25,0.65625
1631018840781,-0.703125,0.25,0.65625
1631018840812,-0.703125,0.25,0.65625
1631018840843,-0.703125,0.25,0.65625
1631018840875,-0.703125,0.25,0.65625
1631018840906,-0.703125,0.25,0.640625
1631018840937,-0.703125,0.25,0.65625
1631018840968,-0.703125,0.25,0.65625
1631018841000,-0.703125,0.25,0.65625
1631018841031,-0.703125,0.25,0.65625
1631018841062,-0.703125,0.25,0.65625
1631018841093,-0.703125,0.25,0.640625
1631018841125,-0.703125,0.25,0.65625
1631018841156,-0.703125,0.25,0.65625
1631018841187,-0.703125,0.25,0.65625
1631018841218,-0.703125,0.25,0.65625
1631018841250,-0.703125,0.25,0.640625
1631018841281,-0.703125,0.25,0.65625
1631018841312,-0.703125,0.25,0.65625
1631018841343,-0.703125,0.25,0.640625
1631018841375,-0.703125,0.25,0.65625
1631018841406,-0.703125,0.25,0.65625
1631018841437,-0.703125,0.25,0.640625
1631018841468,-0.703125,0.25,0.640625
1631018841500,-0.703125,0.25,0.65625
1631018841531,-0.703125,0.25,0.65625
1631018841562,-0.703125,0.25,0.640625
1631018841593,-0.703125,0.25,0.65625
1631018841625,-0.703125,0.25,0.640625
1631018841656,-0.71875,0.25,0.65625
1631018841687,-0.703125,0.25,0.65625
1631018841718,-0.703125,0.25,0.65625
1631018841750,-0.703125,0.25,0.65625
1631018841781,-0.703125,0.25,0.65625
1631018841812,-0.703125,0.25,0.65625
1631018841843,-0.703125,0.25,0.65625
1631018841875,-0.703125,0.25,0.640625
1631018841906,-0.703125,0.25,0.65625
1631018841937,-0.703125,0.25,0.640625
1631018841968,-0.703125,0.25,0.65625
1631018842000,-0.703125,0.25,0.640625
1631018842031,-0.703125,0.25,0.640625
1631018842062,-0.703125,0.25,0.65625
1631018842093,-0.703125,0.25,0.640625
1631018842125,-0.71875,0.25,0.65625
1631018842156,-0.703125,0.25,0.65625
1631018842187,-0.703125,0.25,0.65625
1631018842218,-0.703125,0.25,0.65625
1631018842250,-0.703125,0.25,0.65625
1631018842281,-0.703125,0.25,0.65625
1631018842312,-0.703125,0.25,0.640625
1631018842343,-0.703125,0.25,0.640625
1631018842375,-0.71875,0.25,0.65625
1631018842406,-0.703125,0.25,0.65625
1631018842437,-0.703125,0.25,0.65625
1631018842468,-0.703125,0.25,0.65625
1631018842500,-0.703125,0.25,0.65625
1631018842531,-0.703125,0.25,0.640625
1631018842562,-0.703125,0.25,0.65625
1631018842593,-0.703125,0.25,0.65625
1631018842625,-0.703125,0.25,0.640625
1631018842656,-0.703125,0.25,0.65625
1631018842687,-0.703125,0.25,0.65625
1631018842718,-0.703125,0.25,0.65625
1631018842750,-0.703125,0.25,0.65625
1631018842781,-0.703125,0.25,0.65625
1631018842812,-0.703125,0.25,0.65625
1631018842843,-0.703125,0.25,0.65625
1631018842875,-0.703125,0.25,0.65625
1631018842906,-0.703125,0.25,0.65625
1631018842937,-0.703125,0.25,0.65625
1631018842968,-0.703125,0.25,0.65625
1631018843000,-0.703125,0.25,0.65625
1631018843031,-0.703125,0.25,0.65625
1631018843062,-0.703125,0.25,0.65625
1631018843093,-0.703125,0.25,0.640625
1631018843125,-0.703125,0.25,0.65625
1631018843156,-0.703125,0.25,0.65625
1631018843187,-0.703125,0.25,0.640625
1631018843218,-0.703125,0.25,0.65625
1631018843250,-0.703125,0.25,0.65625
1631018843281,-0.703125,0.25,0.65625
1631018843312,-0.703125,0.25,0.65625
1631018843343,-0.703125,0.25,0.65625
1631018843375,-0.703125,0.25,0.65625
1631018843406,-0.703125,0.25,0.65625
1631018843437,-0.703125,0.25,0.65625
1631018843468,-0.703125,0.25,0.65625
1631018843500,-0.703125,0.25,0.65625
1631018843531,-0.703125,0.25,0.65625
1631018843562,-0.703125,0.25,0.65625
1631018843593,-0.703125,0.25,0.65625
1631018843625,-0.703125,0.25,0.65625
1631018843656,-0.703125,0.25,0.65625
1631018843687,-0.703125,0.25,0.65625
1631018843718,-0.703125,0.25,0.65625
1631018843750,-0.703125,0.25,0.65625
1631018843781,-0.703125,0.25,0.65625
1631018843812,-0.703125,0.25,0.65625
1631018843843,-0.703125,0.25,0.65625
1631018843875,-0.703125,0.25,0.65625
1631018843906,-0.703125,0.25,0.640625
1631018843937,-0.703125,0.25,0.65625
1631018843968,-0.703125,0.25,0.65625
1631018844000,-0.703125,0.25,0.65625
1631018844031,-0.703125,0.25,0.65625
1631018844062,-0.703125,0.25,0.65625
1631018844093,-0.703125,0.25,0.65625
1631018844125,-0.703125,0.25,0.65625
1631018844156,-0.703125,0.25,0.65625
1631018844187,-0.703125,0.25,0.65625
1631018844218,-0.703125,0.25,0.65625
1631018844250,-0.703125,0.25,0.65625
1631018844281,-0.703125,0.25,0.65625
1631018844312,-0.703125,0.25,0.65625
1631018844343,-0.703125,0.25,0.65625
1631018844375,-0.703125,0.25,0.65625
1631018844406,-0.703125,0.25,0.65625
1631018844437,-0.703125,0.25,0.65625
1631018844468,-0.703125,0.25,0.65625
1631018844500,-0.703125,0.25,0.65625
1631018844531,-0.703125,0.25,0.65625
1631018844562,-0.703125,0.25,0.65625
1631018844593,-0.703125,0.25,0.65625
1631018844625,-0.703125,0.25,0.65625
1631018844656,-0.703125,0.25,0.65625
1631018844687,-0.703125,0.25,0.640625
1631018844718,-0.703125,0.25,0.65625
1631018844750,-0.703125,0.25,0.65625
1631018844781,-0.703125,0.25,0.65625
1631018844812,-0.703125,0.25,0.65625
1631018844843,-0.703125,0.25,0.65625
1631018844875,-0.703125,0.25,0.65625
1631018844906,-0.703125,0.25,0.65625
1631018844937,-0.703125,0.25,0.65625
1631018844968,-0.703125,0.25,0.65625
1631018845000,-0.703125,0.25,0.65625
1631018845031,-0.703125,0.25,0.65625
1631018845062,-0.703125,0.25,0.65625
1631018845093,-0.703125,0.25,0.640625
1631018845125,-0.703125,0.25,0.65625
1631018845156,-0.703125,0.25,0.65625
1631018845187,-0.703125,0.25,0.65625
1631018845218,-0.703125,0.25,0.640625
1631018845250,-0.703125,0.25,0.65625
1631018845281,-0.703125,0.25,0.65625
1631018845312,-0.703125,0.25,0.65625
1631018845343,-0.703125,0.25,0.65625
1631018845375,-0.703125,0.25,0.65625
1631018845406,-0.703125,0.25,0.640625
1631018845437,-0.703125,0.25,0.65625
1631018845468,-0.703125,0.25,0.640625
1631018845500,-0.703125,0.25,0.640625
1631018845531,-0.703125,0.25,0.65625
1631018845562,-0.703125,0.25,0.65625
1631018845593,-0.703125,0.25,0.640625
1631018845625,-0.703125,0.25,0.65625
1631018845656,-0.703125,0.25,0.65625
1631018845687,-0.703125,0.25,0.640625
1631018845718,-0.703125,0.25,0.65625
1631018845750,-0.703125,0.25,0.65625
1631018845781,-0.703125,0.25,0.640625
1631018845812,-0.703125,0.25,0.65625
1631018845843,-0.703125,0.25,0.65625
1631018845875,-0.703125,0.25,0.65625
1631018845906,-0.703125,0.25,0.65625
1631018845937,-0.703125,0.25,0.65625
1631018845968,-0.703125,0.25,0.65625
1631018846000,-0.703125,0.25,0.65625
1631018846031,-0.703125,0.25,0.65625
1631018846062,-0.703125,0.25,0.65625
1631018846093,-0.703125,0.25,0.65625
1631018846125,-0.703125,0.25,0.65625
1631018846156,-0.703125,0.25,0.65625
1631018846187,-0.703125,0.25,0.640625
1631018846218,-0.703125,0.25,0.640625
1631018846250,-0.703125,0.25,0.65625
1631018846281,-0.71875,0.25,0.640625
1631018846312,-0.703125,0.25,0.65625
1631018846343,-0.703125,0.25,0.65625
1631018846375,-0.703125,0.25,0.65625
1631018846406,-0.703125,0.25,0.65625
1631018846437,-0.703125,0.25,0.65625
1631018846468,-0.703125,0.25,0.65625
1631018846500,-0.703125,0.25,0.65625
1631018846531,-0.703125,0.25,0.65625
1631018846562,-0.703125,0.25,0.65625
1631018846593,-0.703125,0.25,0.65625
1631018846625,-0.703125,0.25,0.65625
1631018846656,-0.703125,0.25,0.65625
1631018846687,-0.703125,0.25,0.65625
1631018846718,-0.703125,0.25,0.65625
1631018846750,-0.703125,0.25,0.65625
1631018846781,-0.703125,0.25,0.65625
1631018846812,-0.703125,0.25,0.65625
1631018846843,-0.703125,0.25,0.65625
1631018846875,-0.703125,0.25,0.65625
1631018846906,-0.703125,0.25,0.65625
1631018846937,-0.703125,0.25,0.65625
1631018846968,-0.703125,0.25,0.65625
1631018847000,-0.703125,0.25,0.65625
1631018847031,-0.703125,0.25,0.65625
1631018847062,-0.703125,0.25,0.65625
1631018847093,-0.703125,0.25,0.65625
1631018847125,-0.703125,0.25,0.65625
1631018847156,-0.703125,0.25,0.65625
1631018847187,-0.703125,0.25,0.65625
1631018847218,-0.703125,0.25,0.65625
1631018847250,-0.703125,0.25,0.65625
1631018847281,-0.703125,0.25,0.65625
1631018847312,-0.703125,0.25,0.65625
1631018847343,-0.703125,0.25,0.65625
1631018847375,-0.703125,0.25,0.65625
1631018847406,-0.703125,0.25,0.65625
1631018847437,-0.703125,0.25,0.65625
1631018847468,-0.703125,0.25,0.65625
1631018847500,-0.703125,0.25,0.65625
1631018847531,-0.703125,0.25,0.65625
1631018847562,-0.703125,0.25,0.65625
1631018847593,-0.703125,0.25,0.65625
1631018847625,-0.703125,0.25,0.65625
1631018847656,-0.703125,0.25,0.65625
1631018847687,-0.703125,0.25,0.65625
1631018847718,-0.703125,0.25,0.65625
1631018847750,-0.703125,0.25,0.65625
1631018847781,-0.703125,0.25,0.65625
1631018847812,-0.703125,0.25,0.65625
1631018847843,-0.703125,0.25,0.65625
1631018847875,-0.703125,0.25,0.65625
1631018847906,-0.703125,0.25,0.640625
1631018847937,-0.703125,0.25,0.65625
1631018847968,-0.703125,0.25,0.65625
1631018848000,-0.703125,0.25,0.65625
1631018848031,-0.703125,0.25,0.65625
1631018848062,-0.703125,0.25,0.65625
1631018848093,-0.703125,0.25,0.65625
1631018848125,-0.703125,0.25,0.65625
1631018848156,-0.703125,0.25,0.65625
1631018848187,-0.71875,0.25,0.65625
1631018848218,-0.71875,0.25,0.640625
1631018848250,-0.703125,0.25,0.65625
1631018848281,-0.703125,0.25,0.65625
1631018848312,-0.703125,0.25,0.65625
1631018848343,-0.703125,0.25,0.65625
1631018848375,-0.703125,0.25,0.65625
1631018848406,-0.71875,0.25,0.640625
1631018848437,-0.71875,0.25,0.640625
1631018848468,-0.703125,0.25,0.65625
1631018848500,-0.71875,0.25,0.65625
1631018848531,-0.703125,0.25,0.640625
1631018848562,-0.703125,0.25,0.65625
1631018848593,-0.703125,0.25,0.65625
1631018848625,-0.703125,0.25,0.65625
1631018848656,-0.703125,0.25,0.65625
1631018848687,-0.703125,0.25,0.65625
1631018848718,-0.703125,0.25,0.640625
1631018848750,-0.703125,0.25,0.65625
1631018848781,-0.703125,0.25,0.640625
1631018848812,-0.71875,0.25,0.65625
1631018848843,-0.703125,0.25,0.640625
1631018848875,-0.703125,0.25,0.640625
1631018848906,-0.703125,0.25,0.65625
1631018848937,-0.703125,0.25,0.640625
1631018848968,-0.703125,0.25,0.65625
1631018849000,-0.703125,0.25,0.65625
1631018849031,-0.703125,0.25,0.640625
1631018849062,-0.703125,0.25,0.640625
1631018849093,-0.703125,0.25,0.65625
1631018849125,-0.71875,0.25,0.640625
1631018849156,-0.703125,0.25,0.640625
1631018849187,-0.703125,0.25,0.640625
1631018849218,-0.703125,0.25,0.65625
1631018849250,-0.703125,0.25,0.65625
1631018849281,-0.703125,0.25,0.65625
1631018849312,-0.703125,0.25,0.65625
1631018849343,-0.703125,0.25,0.65625
1631018849375,-0.703125,0.25,0.65625
1631018849406,-0.703125,0.25,0.65625
1631018849437,-0.703125,0.25,0.65625
1631018849468,-0.703125,0.25,0.65625
1631018849500,-0.703125,0.25,0.65625
1631018849531,-0.703125,0.25,0.65625
1631018849562,-0.703125,0.25,0.65625
1631018849593,-0.71875,0.25,0.65625
1631018849625,-0.703125,0.25,0.640625
1631018849656,-0.703125,0.25,0.65625
1631018849687,-0.703125,0.25,0.65625
1631018849718,-0.703125,0.25,0.65625
1631018849750,-0.71875,0.25,0.65625
1631018849781,-0.703125,0.25,0.65625
1631018849812,-0.6875,0.25,0.65625
1631018849843,-0.71875,0.25,0.65625
1631018849875,-0.703125,0.25,0.640625
1631018849906,-0.71875,0.25,0.640625
1631018849937,-0.703125,0.25,0.640625
1631018849968,-0.703125,0.25,0.65625
1631018850000,-0.703125,0.25,0.65625
1631018850031,-0.703125,0.25,0.65625
1631018850062,-0.703125,0.25,0.65625
1631018850093,-0.703125,0.25,0.65625
1631018850125,-0.703125,0.25,0.65625
1631018850156,-0.703125,0.25,0.65625
1631018850187,-0.703125,0.25,0.65625
1631018850218,-0.703125,0.25,0.65625
1631018850250,-0.703125,0.25,0.65625
1631018850281,-0.703125,0.25,0.65625
1631018850312,-0.703125,0.25,0.640625
1631018850343,-0.703125,0.25,0.65625
1631018850375,-0.703125,0.25,0.640625
1631018850406,-0.71875,0.25,0.65625
1631018850437,-0.703125,0.25,0.65625
1631018850468,-0.703125,0.25,0.65625
1631018850500,-0.703125,0.25,0.65625
1631018850531,-0.703125,0.25,0.65625
1631018850562,-0.703125,0.25,0.65625
1631018850593,-0.703125,0.25,0.640625
1631018850625,-0.703125,0.25,0.65625
1631018850656,-0.703125,0.25,0.65625
1631018850687,-0.703125,0.25,0.640625
1631018850718,-0.703125,0.25,0.65625
1631018850750,-0.703125,0.25,0.640625
1631018850781,-0.703125,0.25,0.65625
1631018850812,-0.703125,0.25,0.640625
1631018850843,-0.703125,0.25,0.65625
1631018850875,-0.703125,0.25,0.65625
1631018850906,-0.703125,0.25,0.65625
1631018850937,-0.703125,0.25,0.65625
1631018850968,-0.703125,0.25,0.65625
1631018851000,-0.703125,0.25,0.65625
1631018851031,-0.703125,0.25,0.65625
1631018851062,-0.703125,0.25,0.65625
1631018851093,-0.703125,0.25,0.65625
1631018851125,-0.703125,0.25,0.65625
1631018851156,-0.703125,0.25,0.65625
1631018851187,-0.703125,0.25,0.65625
1631018851218,-0.703125,0.25,0.65625
1631018851250,-0.703125,0.25,0.65625
1631018851281,-0.703125,0.25,0.65625
1631018851312,-0.703125,0.25,0.65625
1631018851343,-0.703125,0.25,0.65625
1631018851375,-0.703125,0.25,0.65625
1631018851406,-0.703125,0.25,0.65625
1631018851437,-0.71875,0.25,0.640625
1631018851468,-0.703125,0.25,0.640625
1631018851500,-0.703125,0.25,0.65625
1631018851531,-0.703125,0.25,0.65625
1631018851562,-0.703125,0.25,0.65625
1631018851593,-0.703125,0.25,0.65625
1631018851625,-0.703125,0.25,0.65625
1631018851656,-0.703125,0.25,0.640625
1631018851687,-0.703125,0.25,0.640625
1631018851718,-0.703125,0.25,0.65625
1631018851750,-0.703125,0.25,0.65625
1631018851781,-0.703125,0.25,0.640625
1631018851812,-0.703125,0.25,0.65625
1631018851843,-0.703125,0.25,0.65625
1631018851875,-0.703125,0.25,0.65625
1631018851906,-0.703125,0.25,0.65625
1631018851937,-0.703125,0.25,0.65625
1631018851968,-0.703125,0.25,0.65625
1631018852000,-0.703125,0.25,0.65625
1631018852031,-0.703125,0.25,0.640625
1631018852062,-0.703125,0.25,0.65625
1631018852093,-0.703125,0.25,0.65625
1631018852125,-0.703125,0.25,0.65625
1631018852156,-0.703125,0.25,0.65625
1631018852187,-0.703125,0.25,0.640625
1631018852218,-0.703125,0.25,0.640625
1631018852250,-0.703125,0.25,0.65625
1631018852281,-0.703125,0.25,0.65625
1631018852312,-0.71875,0.25,0.65625
1631018852343,-0.703125,0.25,0.65625
1631018852375,-0.703125,0.25,0.65625
1631018852406,-0.703125,0.25,0.65625
1631018852437,-0.703125,0.25,0.65625
1631018852468,-0.703125,0.25,0.65625
1631018852500,-0.703125,0.25,0.65625
1631018852531,-0.703125,0.25,0.65625
1631018852562,-0.703125,0.25,0.65625
1631018852593,-0.703125,0.25,0.65625
1631018852625,-0.703125,0.25,0.65625
1631018852656,-0.703125,0.25,0.65625
1631018852687,-0.703125,0.25,0.65625
1631018852718,-0.703125,0.25,0.65625
1631018852750,-0.703125,0.25,0.65625
1631018852781,-0.703125,0.25,0.65625
1631018852812,-0.703125,0.25,0.65625
1631018852843,-0.703125,0.25,0.65625
1631018852875,-0.703125,0.25,0.65625
1631018852906,-0.703125,0.25,0.65625
1631018852937,-0.703125,0.25,0.65625
1631018852968,-0.703125,0.25,0.640625
1631018853000,-0.703125,0.25,0.65625
1631018853031,-0.703125,0.25,0.65625
1631018853062,-0.703125,0.25,0.65625
1631018853093,-0.703125,0.25,0.65625
1631018853125,-0.703125,0.25,0.65625
1631018853156,-0.703125,0.25,0.65625
1631018853187,-0.703125,0.25,0.65625
1631018853218,-0.703125,0.25,0.65625
1631018853250,-0.703125,0.25,0.65625
1631018853281,-0.703125,0.25,0.640625
1631018853312,-0.703125,0.25,0.65625
1631018853343,-0.703125,0.25,0.640625
1631018853375,-0.703125,0.25,0.65625
1631018853406,-0.703125,0.25,0.65625
1631018853437,-0.703125,0.25,0.640625
1631018853468,-0.703125,0.25,0.640625
1631018853500,-0.703125,0.25,0.65625
1631018853531,-0.703125,0.25,0.65625
1631018853562,-0.703125,0.25,0.65625
1631018853593,-0.703125,0.25,0.65625
