timestamp,ax,ay,az
1630067051843,-0.984375,0.0625,0.203125
1630067051875,-0.953125,0.0625,0.1875
1630067051906,-0.96875,0.09375,0.1875
1630067051937,-0.984375,0.09375,0.1875
1630067051968,-0.96875,0.109375,0.21875
1630067052000,-1.03125,0.140625,0.21875
1630067052031,-1.09375,0.171875,0.203125
1630067052062,-1.046875,0.203125,0.203125
1630067052093,-1.0625,0.21875,0.171875
1630067052125,-0.90625,0.125,0.171875
1630067052156,-0.859375,0.078125,0.15625
1630067052187,-0.9375,-0.015625,0.140625
1630067052218,-0.921875,-0.125,0.203125
1630067052250,-0.90625,-0.171875,0.25
1630067052281,-0.921875,-0.21875,0.234375
1630067052312,-0.90625,-0.046875,0.234375
1630067052343,-0.9375,-0.015625,0.21875
1630067052375,-0.984375,0.015625,0.21875
1630067052406,-0.984375,0.03125,0.234375
1630067052437,-0.9375,0.0625,0.25
1630067052468,-1.015625,0.109375,0.203125
1630067052500,-1.0,0.125,0.203125
1630067052531,-0.984375,0.1875,0.21875
1630067052562,-0.96875,0.21875,0.234375
1630067052593,-1.0,0.234375,0.25
1630067052625,-1.015625,0.234375,0.25
1630067052656,-0.984375,0.203125,0.265625
1630067052687,-0.953125,0.15625,0.265625
1630067052718,-0.9375,0.125,0.28125
1630067052750,-0.921875,0.09375,0.28125
1630067052781,-0.9375,0.078125,0.28125
1630067052812,-0.953125,0.078125,0.28125
1630067052843,-0.96875,0.078125,0.265625
1630067052875,-0.96875,0.09375,0.28125
1630067052906,-0.953125,0.09375,0.28125
1630067052937,-0.96875,0.125,0.28125
1630067052968,-0.953125,0.125,0.28125
1630067053000,-0.953125,0.109375,0.28125
1630067053031,-0.96875,0.125,0.28125
1630067053062,-0.96875,0.125,0.28125
1630067053093,-0.96875,0.125,0.28125
1630067053125,-0.96875,0.125,0.265625
1630067053156,-0.96875,0.125,0.265625
1630067053187,-0.953125,0.09375,0.265625
1630067053218,-0.953125,0.078125,0.265625
1630067053250,-0.953125,0.078125,0.28125
1630067053281,-0.9375,0.0625,0.28125
1630067053312,-0.921875,0.046875,0.28125
1630067053343,-0.9375,0.046875,0.28125
1630067053375,-0.9375,0.046875,0.28125
1630067053406,-0.953125,0.0625,0.28125
1630067053437,-0.953125,0.078125,0.28125
1630067053468,-0.953125,0.078125,0.296875
1630067053500,-0.9375,0.078125,0.3125
1630067053531,-0.9375,0.078125,0.3125
1630067053562,-0.9375,0.078125,0.296875
1630067053593,-0.9375,0.078125,0.28125
1630067053625,-0.96875,0.078125,0.28125
1630067053656,-0.96875,0.09375,0.296875
1630067053687,-0.96875,0.09375,0.296875
1630067053718,-0.953125,0.09375,0.296875
1630067053750,-0.953125,0.078125,0.296875
1630067053781,-0.953125,0.078125,0.296875
1630067053812,-0.953125,0.078125,0.296875
1630067053843,-0.953125,0.078125,0.296875
1630067053875,-0.953125,0.078125,0.296875
1630067053906,-0.953125,0.09375,0.296875
1630067053937,-0.953125,0.09375,0.296875
1630067053968,-0.953125,0.078125,0.296875
1630067054000,-0.953125,0.078125,0.296875
1630067054031,-0.953125,0.078125,0.296875
1630067054062,-0.953125,0.078125,0.296875
1630067054093,-0.953125,0.078125,0.296875
1630067054125,-0.9375,0.078125,0.296875
1630067054156,-0.9375,0.078125,0.296875
1630067054187,-0.953125,0.078125,0.296875
1630067054218,-0.953125,0.078125,0.296875
1630067054250,-0.9375,0.078125,0.3125
1630067054281,-0.953125,0.078125,0.3125
1630067054312,-0.953125,0.078125,0.3125
1630067054343,-0.953125,0.078125,0.3125
1630067054375,-0.953125,0.078125,0.3125
1630067054406,-0.953125,0.078125,0.3125
1630067054437,-0.9375,0.0625,0.3125
1630067054468,-0.953125,0.078125,0.3125
1630067054500,-0.953125,0.0625,0.3125
1630067054531,-0.9375,0.078125,0.328125
1630067054562,-0.9375,0.078125,0.328125
1630067054593,-0.9375,0.0625,0.3125
1630067054625,-0.9375,0.078125,0.3125
1630067054656,-0.9375,0.078125,0.328125
1630067054687,-0.953125,0.078125,0.3125
1630067054718,-0.9375,0.078125,0.3125
1630067054750,-0.9375,0.078125,0.328125
1630067054781,-0.9375,0.0625,0.328125
1630067054812,-0.9375,0.0625,0.328125
1630067054843,-0.9375,0.0625,0.328125
1630067054875,-0.9375,0.078125,0.328125
1630067054906,-0.9375,0.0625,0.328125
1630067054937,-0.9375,0.0625,0.328125
1630067054968,-0.9375,0.0625,0.328125
1630067055000,-0.9375,0.0625,0.34375
1630067055031,-0.9375,0.0625,0.34375
1630067055062,-0.9375,0.078125,0.34375
1630067055093,-1.015625,0.078125,0.25
1630067055125,-1.0,0.0625,0.25
1630067055156,-0.859375,0.046875,0.40625
1630067055187,-0.8125,0.046875,0.546875
1630067055218,-0.828125,0.046875,0.546875
1630067055250,-0.84375,0.046875,0.546875
1630067055281,-0.84375,0.046875,0.53125
1630067055312,-0.828125,0.046875,0.53125
1630067055343,-0.828125,0.046875,0.546875
1630067055375,-0.828125,0.046875,0.546875
1630067055406,-0.828125,0.046875,0.53125
1630067055437,-0.828125,0.046875,0.53125
1630067055468,-0.828125,0.0625,0.5625
1630067055500,-0.84375,0.0625,0.53125
1630067055531,-0.859375,0.078125,0.515625
1630067055562,-0.875,0.0625,0.53125
1630067055593,-0.890625,0.0625,0.53125
1630067055625,-0.84375,0.0625,0.515625
1630067055656,-0.84375,0.078125,0.5
1630067055687,-0.859375,0.0625,0.515625
1630067055718,-0.859375,0.0625,0.484375
1630067055750,-0.84375,0.0625,0.484375
1630067055781,-0.875,0.0625,0.5
1630067055812,-0.875,0.0625,0.5
1630067055843,-0.859375,0.0625,0.5
1630067055875,-0.84375,0.0625,0.5
1630067055906,-0.875,0.0625,0.5
1630067055937,-0.875,0.0625,0.5
1630067055968,-0.859375,0.0625,0.484375
1630067056000,-0.859375,0.0625,0.484375
1630067056031,-0.859375,0.0625,0.5
1630067056062,-0.859375,0.0625,0.484375
1630067056093,-0.859375,0.0625,0.5
1630067056125,-0.859375,0.0625,0.5
1630067056156,-0.859375,0.0625,0.515625
1630067056187,-0.859375,0.0625,0.515625
1630067056218,-0.859375,0.0625,0.5
1630067056250,-0.859375,0.078125,0.5
1630067056281,-0.859375,0.0625,0.5
1630067056312,-0.859375,0.078125,0.484375
1630067056343,-0.875,0.0625,0.46875
1630067056375,-0.875,0.0625,0.484375
1630067056406,-0.890625,0.0625,0.46875
1630067056437,-0.875,0.0625,0.46875
1630067056468,-0.875,0.0625,0.484375
1630067056500,-0.875,0.0625,0.484375
1630067056531,-0.875,0.078125,0.484375
1630067056562,-0.875,0.078125,0.484375
1630067056593,-0.875,0.0625,0.46875
1630067056625,-0.875,0.078125,0.46875
1630067056656,-0.875,0.0625,0.46875
1630067056687,-0.875,0.0625,0.46875
1630067056718,-0.875,0.0625,0.46875
1630067056750,-0.875,0.0625,0.46875
1630067056781,-0.875,0.0625,0.46875
1630067056812,-0.90625,0.0625,0.4375
1630067056843,-0.921875,0.0625,0.40625
1630067056875,-0.90625,0.0625,0.40625
1630067056906,-0.890625,0.0625,0.4375
1630067056937,-0.90625,0.0625,0.453125
1630067056968,-0.90625,0.078125,0.453125
1630067057000,-0.890625,0.0625,0.453125
1630067057031,-0.875,0.0625,0.46875
1630067057062,-0.859375,0.046875,0.484375
1630067057093,-0.84375,0.0625,0.46875
1630067057125,-0.859375,0.0625,0.453125
1630067057156,-0.90625,0.09375,0.5
1630067057187,-0.96875,0.078125,0.40625
1630067057218,-0.921875,0.09375,0.375
1630067057250,-0.953125,0.078125,0.3125
1630067057281,-0.953125,0.09375,0.296875
1630067057312,-0.96875,0.078125,0.25
1630067057343,-0.953125,0.078125,0.265625
1630067057375,-0.96875,0.078125,0.28125
1630067057406,-0.9375,0.078125,0.328125
1630067057437,-0.9375,0.078125,0.328125
1630067057468,-0.953125,0.078125,0.28125
1630067057500,-0.96875,0.078125,0.265625
1630067057531,-0.96875,0.078125,0.265625
1630067057562,-0.96875,0.09375,0.265625
1630067057593,-0.953125,0.09375,0.265625
1630067057625,-0.96875,0.078125,0.25
1630067057656,-0.96875,0.078125,0.265625
1630067057687,-0.953125,0.078125,0.265625
1630067057718,-0.953125,0.078125,0.265625
1630067057750,-0.953125,0.078125,0.28125
1630067057781,-0.953125,0.078125,0.265625
1630067057812,-0.953125,0.078125,0.265625
1630067057843,-0.953125,0.078125,0.265625
1630067057875,-0.953125,0.078125,0.265625
1630067057906,-0.96875,0.078125,0.265625
1630067057937,-0.96875,0.078125,0.25
1630067057968,-0.96875,0.078125,0.265625
1630067058000,-0.984375,0.078125,0.265625
1630067058031,-1.0,0.09375,0.265625
1630067058062,-0.96875,0.078125,0.265625
1630067058093,-0.890625,0.09375,0.34375
1630067058125,-0.9375,0.078125,0.34375
1630067058156,-0.9375,0.078125,0.328125
1630067058187,-0.9375,0.078125,0.328125
1630067058218,-0.9375,0.078125,0.3125
1630067058250,-0.9375,0.078125,0.328125
1630067058281,-0.9375,0.078125,0.3125
1630067058312,-0.9375,0.078125,0.328125
1630067058343,-0.953125,0.078125,0.328125
1630067058375,-0.9375,0.078125,0.34375
1630067058406,-0.921875,0.078125,0.359375
1630067058437,-0.90625,0.078125,0.390625
1630067058468,-0.90625,0.078125,0.40625
1630067058500,-0.90625,0.078125,0.40625
1630067058531,-0.90625,0.078125,0.40625
1630067058562,-0.90625,0.078125,0.40625
1630067058593,-0.90625,0.0625,0.40625
1630067058625,-0.90625,0.0625,0.40625
1630067058656,-0.90625,0.0625,0.421875
1630067058687,-0.90625,0.078125,0.421875
1630067058718,-0.90625,0.078125,0.421875
1630067058750,-0.90625,0.078125,0.40625
1630067058781,-0.90625,0.078125,0.421875
1630067058812,-0.90625,0.078125,0.421875
1630067058843,-0.90625,0.0625,0.421875
1630067058875,-0.90625,0.078125,0.421875
1630067058906,-0.90625,0.0625,0.421875
1630067058937,-0.90625,0.0625,0.421875
1630067058968,-0.90625,0.078125,0.421875
1630067059000,-0.90625,0.078125,0.421875
1630067059031,-0.90625,0.078125,0.421875
1630067059062,-0.90625,0.0625,0.421875
1630067059093,-0.90625,0.0625,0.421875
1630067059125,-0.90625,0.0625,0.421875
1630067059156,-0.90625,0.0625,0.421875
1630067059187,-0.90625,0.0625,0.4375
1630067059218,-0.90625,0.0625,0.421875
1630067059250,-0.890625,0.078125,0.421875
1630067059281,-0.90625,0.0625,0.4375
1630067059312,-0.890625,0.0625,0.4375
1630067059343,-0.890625,0.0625,0.4375
1630067059375,-0.90625,0.0625,0.4375
1630067059406,-0.90625,0.0625,0.4375
1630067059437,-0.890625,0.0625,0.4375
1630067059468,-0.890625,0.0625,0.4375
1630067059500,-0.890625,0.0625,0.4375
1630067059531,-0.90625,0.0625,0.4375
1630067059562,-0.890625,0.0625,0.4375
1630067059593,-0.890625,0.0625,0.4375
1630067059625,-0.890625,0.0625,0.4375
1630067059656,-0.890625,0.0625,0.4375
1630067059687,-0.90625,0.0625,0.4375
1630067059718,-0.890625,0.0625,0.4375
1630067059750,-0.890625,0.0625,0.4375
1630067059781,-0.890625,0.0625,0.4375
1630067059812,-0.890625,0.0625,0.4375
1630067059843,-0.90625,0.0625,0.4375
1630067059875,-0.890625,0.0625,0.4375
1630067059906,-0.890625,0.0625,0.4375
1630067059937,-0.890625,0.0625,0.4375
1630067059968,-0.890625,0.0625,0.4375
1630067060000,-0.890625,0.0625,0.4375
1630067060031,-0.890625,0.0625,0.4375
1630067060062,-0.890625,0.0625,0.4375
1630067060093,-0.890625,0.0625,0.4375
1630067060125,-0.890625,0.0625,0.4375
1630067060156,-0.890625,0.0625,0.4375
1630067060187,-0.890625,0.0625,0.4375
1630067060218,-0.890625,0.0625,0.4375
1630067060250,-0.890625,0.0625,0.4375
1630067060281,-0.890625,0.0625,0.453125
1630067060312,-0.890625,0.0625,0.4375
1630067060343,-0.890625,0.0625,0.4375
1630067060375,-0.90625,0.0625,0.4375
1630067060406,-0.890625,0.0625,0.453125
1630067060437,-0.890625,0.0625,0.4375
1630067060468,-0.890625,0.0625,0.4375
1630067060500,-0.890625,0.0625,0.453125
1630067060531,-0.890625,0.0625,0.4375
1630067060562,-0.890625,0.0625,0.453125
1630067060593,-0.890625,0.0625,0.453125
1630067060625,-0.890625,0.0625,0.4375
1630067060656,-0.890625,0.0625,0.4375
1630067060687,-0.890625,0.0625,0.4375
1630067060718,-0.890625,0.0625,0.453125
1630067060750,-0.890625,0.0625,0.453125
1630067060781,-0.890625,0.0625,0.453125
1630067060812,-0.890625,0.0625,0.4375
1630067060843,-0.890625,0.0625,0.453125
1630067060875,-0.890625,0.0625,0.453125
1630067060906,-0.890625,0.0625,0.453125
1630067060937,-0.890625,0.0625,0.4375
1630067060968,-0.890625,0.0625,0.453125
1630067061000,-0.890625,0.0625,0.453125
1630067061031,-0.890625,0.0625,0.4375
1630067061062,-0.890625,0.0625,0.453125
1630067061093,-0.890625,0.0625,0.4375
1630067061125,-0.890625,0.0625,0.453125
1630067061156,-0.890625,0.0625,0.453125
1630067061187,-0.890625,0.0625,0.4375
1630067061218,-0.890625,0.0625,0.4375
1630067061250,-0.890625,0.0625,0.453125
1630067061281,-0.890625,0.0625,0.453125
1630067061312,-0.890625,0.0625,0.453125
1630067061343,-0.890625,0.0625,0.453125
1630067061375,-0.890625,0.0625,0.453125
1630067061406,-0.890625,0.0625,0.453125
1630067061437,-0.890625,0.0625,0.453125
1630067061468,-0.890625,0.0625,0.453125
1630067061500,-0.890625,0.0625,0.453125
1630067061531,-0.890625,0.0625,0.453125
1630067061562,-0.890625,0.0625,0.453125
1630067061593,-0.890625,0.0625,0.453125
1630067061625,-0.890625,0.0625,0.453125
1630067061656,-0.890625,0.0625,0.453125
1630067061687,-0.890625,0.0625,0.453125
1630067061718,-0.890625,0.0625,0.453125
1630067061750,-0.890625,0.0625,0.453125
1630067061781,-0.890625,0.0625,0.453125
1630067061812,-0.890625,0.0625,0.453125
1630067061843,-0.890625,0.0625,0.453125
1630067061875,-0.890625,0.0625,0.453125
1630067061906,-0.890625,0.0625,0.453125
1630067061937,-0.890625,0.0625,0.453125
1630067061968,-0.890625,0.0625,0.453125
1630067062000,-0.890625,0.0625,0.453125
1630067062031,-0.890625,0.0625,0.453125
1630067062062,-0.890625,0.0625,0.4375
1630067062093,-0.890625,0.0625,0.421875
1630067062125,-0.875,0.0625,0.453125
1630067062156,-0.875,0.0625,0.484375
1630067062187,-0.875,0.0625,0.515625
1630067062218,-0.875,0.078125,0.5
1630067062250,-0.875,0.0625,0.46875
1630067062281,-0.875,0.078125,0.46875
1630067062312,-0.875,0.0625,0.484375
1630067062343,-0.859375,0.0625,0.484375
1630067062375,-0.859375,0.0625,0.484375
1630067062406,-0.875,0.078125,0.484375
1630067062437,-0.875,0.078125,0.484375
1630067062468,-0.875,0.078125,0.484375
1630067062500,-0.875,0.078125,0.484375
1630067062531,-0.875,0.078125,0.484375
1630067062562,-0.875,0.078125,0.484375
1630067062593,-0.859375,0.0625,0.484375
1630067062625,-0.875,0.0625,0.484375
1630067062656,-0.875,0.0625,0.484375
1630067062687,-0.875,0.0625,0.484375
1630067062718,-0.875,0.0625,0.484375
1630067062750,-0.875,0.0625,0.484375
1630067062781,-0.875,0.078125,0.484375
1630067062812,-0.875,0.0625,0.484375
1630067062843,-0.875,0.0625,0.46875
1630067062875,-0.875,0.0625,0.484375
1630067062906,-0.875,0.0625,0.484375
1630067062937,-0.875,0.0625,0.484375
1630067062968,-0.875,0.0625,0.484375
1630067063000,-0.875,0.0625,0.484375
1630067063031,-0.875,0.0625,0.484375
1630067063062,-0.875,0.0625,0.46875
1630067063093,-0.875,0.0625,0.484375
1630067063125,-0.875,0.0625,0.46875
1630067063156,-0.875,0.0625,0.484375
1630067063187,-0.875,0.0625,0.484375
1630067063218,-0.875,0.0625,0.484375
1630067063250,-0.875,0.0625,0.484375
1630067063281,-0.875,0.0625,0.484375
1630067063312,-0.875,0.0625,0.484375
1630067063343,-0.875,0.0625,0.484375
1630067063375,-0.875,0.0625,0.46875
1630067063406,-0.875,0.0625,0.46875
1630067063437,-0.875,0.0625,0.46875
1630067063468,-0.875,0.0625,0.46875
1630067063500,-0.875,0.0625,0.46875
1630067063531,-0.875,0.0625,0.46875
1630067063562,-0.875,0.0625,0.484375
1630067063593,-0.875,0.0625,0.46875
1630067063625,-0.875,0.0625,0.46875
1630067063656,-0.875,0.0625,0.46875
1630067063687,-0.875,0.0625,0.484375
1630067063718,-0.859375,0.0625,0.484375
1630067063750,-0.859375,0.0625,0.484375
1630067063781,-0.875,0.0625,0.484375
1630067063812,-0.875,0.0625,0.484375
1630067063843,-0.84375,0.0625,0.515625
1630067063875,-0.84375,0.0625,0.515625
1630067063906,-0.859375,0.0625,0.515625
1630067063937,-0.859375,0.078125,0.5
1630067063968,-0.859375,0.078125,0.5
1630067064000,-0.859375,0.0625,0.515625
1630067064031,-0.84375,0.0625,0.515625
1630067064062,-0.84375,0.078125,0.5
1630067064093,-0.859375,0.0625,0.515625
1630067064125,-0.859375,0.0625,0.53125
1630067064156,-0.859375,0.0625,0.515625
1630067064187,-0.859375,0.078125,0.515625
1630067064218,-0.859375,0.078125,0.5
1630067064250,-0.859375,0.078125,0.5
1630067064281,-0.859375,0.078125,0.5
1630067064312,-0.859375,0.078125,0.5
1630067064343,-0.859375,0.078125,0.5
1630067064375,-0.859375,0.0625,0.5
1630067064406,-0.859375,0.078125,0.5
1630067064437,-0.859375,0.078125,0.5
1630067064468,-0.859375,0.078125,0.5
1630067064500,-0.859375,0.078125,0.5
1630067064531,-0.859375,0.078125,0.484375
1630067064562,-0.875,0.078125,0.484375
1630067064593,-0.875,0.078125,0.484375
1630067064625,-0.875,0.078125,0.484375
1630067064656,-0.875,0.078125,0.484375
1630067064687,-0.875,0.078125,0.484375
1630067064718,-0.875,0.078125,0.484375
1630067064750,-0.875,0.078125,0.484375
1630067064781,-0.859375,0.078125,0.484375
1630067064812,-0.875,0.078125,0.484375
1630067064843,-0.875,0.078125,0.484375
1630067064875,-0.875,0.078125,0.484375
1630067064906,-0.875,0.078125,0.5
1630067064937,-0.875,0.0625,0.484375
1630067064968,-0.875,0.078125,0.484375
1630067065000,-0.875,0.078125,0.484375
1630067065031,-0.859375,0.078125,0.484375
1630067065062,-0.875,0.078125,0.484375
1630067065093,-0.875,0.078125,0.484375
1630067065125,-0.875,0.078125,0.484375
1630067065156,-0.875,0.078125,0.484375
1630067065187,-0.875,0.078125,0.484375
1630067065218,-0.875,0.078125,0.484375
1630067065250,-0.875,0.078125,0.484375
1630067065281,-0.859375,0.0625,0.484375
1630067065312,-0.875,0.0625,0.484375
1630067065343,-0.859375,0.078125,0.484375
1630067065375,-0.875,0.0625,0.484375
1630067065406,-0.875,0.078125,0.484375
1630067065437,-0.859375,0.0625,0.484375
1630067065468,-0.875,0.0625,0.484375
1630067065500,-0.875,0.078125,0.484375
1630067065531,-0.875,0.078125,0.484375
1630067065562,-0.875,0.078125,0.484375
1630067065593,-0.859375,0.078125,0.46875
1630067065625,-0.875,0.078125,0.484375
1630067065656,-0.875,0.0625,0.484375
1630067065687,-0.875,0.0625,0.5
1630067065718,-0.859375,0.0625,0.5
1630067065750,-0.859375,0.0625,0.484375
1630067065781,-0.875,0.0625,0.484375
1630067065812,-0.859375,0.0625,0.484375
1630067065843,-0.875,0.078125,0.484375
1630067065875,-0.875,0.078125,0.484375
1630067065906,-0.875,0.078125,0.484375
1630067065937,-0.875,0.078125,0.484375
1630067065968,-0.875,0.0625,0.484375
1630067066000,-0.875,0.0625,0.484375
1630067066031,-0.875,0.078125,0.484375
1630067066062,-0.875,0.0625,0.484375
1630067066093,-0.875,0.0625,0.484375
1630067066125,-0.875,0.078125,0.484375
1630067066156,-0.875,0.0625,0.484375
1630067066187,-0.859375,0.0625,0.484375
1630067066218,-0.859375,0.0625,0.5
1630067066250,-0.875,0.078125,0.484375
1630067066281,-0.859375,0.078125,0.484375
1630067066312,-0.875,0.0625,0.484375
1630067066343,-0.859375,0.0625,0.484375
1630067066375,-0.859375,0.0625,0.484375
1630067066406,-0.875,0.0625,0.484375
1630067066437,-0.875,0.0625,0.484375
1630067066468,-0.859375,0.0625,0.5
1630067066500,-0.859375,0.0625,0.484375
1630067066531,-0.875,0.0625,0.484375
1630067066562,-0.859375,0.0625,0.484375
1630067066593,-0.875,0.0625,0.484375
1630067066625,-0.859375,0.0625,0.484375
1630067066656,-0.859375,0.0625,0.484375
1630067066687,-0.875,0.0625,0.484375
1630067066718,-0.875,0.0625,0.484375
1630067066750,-0.875,0.0625,0.484375
1630067066781,-0.859375,0.0625,0.484375
1630067066812,-0.859375,0.0625,0.484375
1630067066843,-0.859375,0.0625,0.484375
1630067066875,-0.859375,0.0625,0.5
1630067066906,-0.875,0.0625,0.5
1630067066937,-0.859375,0.0625,0.5
1630067066968,-0.859375,0.0625,0.5
1630067067000,-0.859375,0.0625,0.5
1630067067031,-0.859375,0.0625,0.5
1630067067062,-0.859375,0.0625,0.5
1630067067093,-0.859375,0.0625,0.484375
1630067067125,-0.859375,0.0625,0.5
1630067067156,-0.859375,0.0625,0.5
1630067067187,-0.859375,0.0625,0.5
1630067067218,-0.859375,0.0625,0.5
1630067067250,-0.859375,0.0625,0.5
1630067067281,-0.859375,0.0625,0.5
1630067067312,-0.859375,0.0625,0.5
1630067067343,-0.859375,0.0625,0.5
1630067067375,-0.859375,0.0625,0.484375
1630067067406,-0.859375,0.0625,0.484375
1630067067437,-0.859375,0.0625,0.484375
1630067067468,-0.859375,0.0625,0.5
1630067067500,-0.859375,0.0625,0.5
1630067067531,-0.859375,0.0625,0.5
1630067067562,-0.859375,0.0625,0.5
1630067067593,-0.859375,0.0625,0.5
1630067067625,-0.859375,0.0625,0.5
1630067067656,-0.859375,0.0625,0.5
1630067067687,-0.859375,0.0625,0.5
1630067067718,-0.859375,0.0625,0.5
1630067067750,-0.859375,0.0625,0.5
1630067067781,-0.859375,0.0625,0.5
1630067067812,-0.859375,0.0625,0.5
1630067067843,-0.859375,0.0625,0.5
1630067067875,-0.859375,0.0625,0.5
1630067067906,-0.875,0.0625,0.5
1630067067937,-0.859375,0.0625,0.5
1630067067968,-0.859375,0.0625,0.5
1630067068000,-0.859375,0.0625,0.5
1630067068031,-0.859375,0.0625,0.5
1630067068062,-0.859375,0.0625,0.5
1630067068093,-0.859375,0.0625,0.5
1630067068125,-0.859375,0.0625,0.5
1630067068156,-0.859375,0.0625,0.5
1630067068187,-0.859375,0.0625,0.5
1630067068218,-0.859375,0.0625,0.5
1630067068250,-0.859375,0.0625,0.5
1630067068281,-0.859375,0.0625,0.5
1630067068312,-0.859375,0.0625,0.5
1630067068343,-0.859375,0.046875,0.5
1630067068375,-0.859375,0.0625,0.5
1630067068406,-0.859375,0.0625,0.5
1630067068437,-0.859375,0.0625,0.5
1630067068468,-0.859375,0.0625,0.5
1630067068500,-0.859375,0.0625,0.5
1630067068531,-0.859375,0.0625,0.5
1630067068562,-0.859375,0.0625,0.5
1630067068593,-0.859375,0.0625,0.5
1630067068625,-0.859375,0.0625,0.5
1630067068656,-0.859375,0.0625,0.5
1630067068687,-0.859375,0.0625,0.5
1630067068718,-0.859375,0.0625,0.5
1630067068750,-0.859375,0.0625,0.5
1630067068781,-0.859375,0.0625,0.5
1630067068812,-0.859375,0.0625,0.5
1630067068843,-0.859375,0.0625,0.5
1630067068875,-0.859375,0.0625,0.5
1630067068906,-0.859375,0.0625,0.5
1630067068937,-0.859375,0.0625,0.5
1630067068968,-0.859375,0.0625,0.5
1630067069000,-0.859375,0.0625,0.5
1630067069031,-0.859375,0.0625,0.5
1630067069062,-0.859375,0.0625,0.5
1630067069093,-0.859375,0.0625,0.5
1630067069125,-0.859375,0.0625,0.5
1630067069156,-0.875,0.0625,0.5
1630067069187,-0.859375,0.0625,0.5
1630067069218,-0.859375,0.0625,0.484375
1630067069250,-0.859375,0.0625,0.484375
1630067069281,-0.859375,0.0625,0.5
1630067069312,-0.859375,0.0625,0.5
1630067069343,-0.859375,0.0625,0.5
1630067069375,-0.859375,0.0625,0.5
1630067069406,-0.859375,0.0625,0.5
1630067069437,-0.859375,0.0625,0.5
1630067069468,-0.859375,0.0625,0.5
1630067069500,-0.859375,0.0625,0.5
1630067069531,-0.859375,0.0625,0.5
1630067069562,-0.859375,0.0625,0.5
1630067069593,-0.859375,0.0625,0.5
1630067069625,-0.859375,0.0625,0.5
1630067069656,-0.859375,0.0625,0.5
1630067069687,-0.859375,0.0625,0.5
1630067069718,-0.859375,0.0625,0.5
1630067069750,-0.859375,0.0625,0.5
1630067069781,-0.859375,0.0625,0.5
1630067069812,-0.859375,0.0625,0.5
1630067069843,-0.859375,0.0625,0.5
1630067069875,-0.859375,0.0625,0.5
1630067069906,-0.859375,0.0625,0.5
1630067069937,-0.859375,0.0625,0.5
1630067069968,-0.859375,0.0625,0.5
1630067070000,-0.875,0.0625,0.5
1630067070031,-0.859375,0.0625,0.5
1630067070062,-0.859375,0.0625,0.5
1630067070093,-0.875,0.0625,0.5
1630067070125,-0.859375,0.0625,0.484375
1630067070156,-0.859375,0.0625,0.5
1630067070187,-0.859375,0.0625,0.5
1630067070218,-0.859375,0.0625,0.484375
1630067070250,-0.875,0.0625,0.5
1630067070281,-0.859375,0.0625,0.5
1630067070312,-0.859375,0.0625,0.484375
1630067070343,-0.859375,0.0625,0.5
1630067070375,-0.859375,0.0625,0.5
1630067070406,-0.859375,0.0625,0.5
1630067070437,-0.859375,0.0625,0.515625
1630067070468,-0.859375,0.0625,0.5
1630067070500,-0.859375,0.0625,0.5
1630067070531,-0.859375,0.0625,0.5
1630067070562,-0.859375,0.0625,0.5
1630067070593,-0.859375,0.0625,0.5
1630067070625,-0.859375,0.0625,0.5
1630067070656,-0.859375,0.0625,0.5
1630067070687,-0.859375,0.0625,0.5
1630067070718,-0.859375,0.0625,0.5
1630067070750,-0.859375,0.0625,0.5
1630067070781,-0.859375,0.0625,0.5
1630067070812,-0.859375,0.0625,0.5
1630067070843,-0.859375,0.0625,0.5
1630067070875,-0.859375,0.0625,0.5
1630067070906,-0.859375,0.0625,0.5
1630067070937,-0.859375,0.0625,0.5
1630067070968,-0.859375,0.0625,0.5
1630067071000,-0.859375,0.0625,0.5
1630067071031,-0.859375,0.0625,0.5
1630067071062,-0.859375,0.0625,0.5
1630067071093,-0.859375,0.0625,0.5
1630067071125,-0.859375,0.0625,0.5
1630067071156,-0.859375,0.0625,0.5
1630067071187,-0.859375,0.0625,0.5
1630067071218,-0.859375,0.0625,0.5
1630067071250,-0.859375,0.0625,0.5
1630067071281,-0.859375,0.0625,0.5
1630067071312,-0.859375,0.0625,0.5
1630067071343,-0.859375,0.0625,0.484375
1630067071375,-0.859375,0.0625,0.5
1630067071406,-0.859375,0.0625,0.5
1630067071437,-0.875,0.0625,0.5
1630067071468,-0.859375,0.0625,0.5
1630067071500,-0.859375,0.0625,0.5
1630067071531,-0.859375,0.0625,0.5
1630067071562,-0.859375,0.0625,0.5
1630067071593,-0.859375,0.0625,0.5
1630067071625,-0.859375,0.0625,0.5
1630067071656,-0.859375,0.0625,0.5
1630067071687,-0.859375,0.0625,0.5
1630067071718,-0.859375,0.0625,0.5
1630067071750,-0.859375,0.0625,0.5
1630067071781,-0.859375,0.0625,0.5
1630067071812,-0.859375,0.0625,0.5
1630067071843,-0.859375,0.0625,0.5
1630067071875,-0.859375,0.0625,0.5
1630067071906,-0.859375,0.0625,0.5
1630067071937,-0.859375,0.0625,0.5
1630067071968,-0.859375,0.0625,0.5
1630067072000,-0.859375,0.0625,0.5
1630067072031,-0.859375,0.0625,0.5
1630067072062,-0.859375,0.0625,0.5
1630067072093,-0.859375,0.0625,0.5
1630067072125,-0.859375,0.0625,0.5
1630067072156,-0.859375,0.0625,0.5
1630067072187,-0.859375,0.0625,0.5
1630067072218,-0.859375,0.0625,0.515625
1630067072250,-0.859375,0.0625,0.5
1630067072281,-0.859375,0.0625,0.484375
1630067072312,-0.859375,0.0625,0.5
1630067072343,-0.859375,0.0625,0.5
1630067072375,-0.859375,0.0625,0.484375
1630067072406,-0.859375,0.0625,0.5
1630067072437,-0.859375,0.0625,0.5
1630067072468,-0.859375,0.0625,0.5
1630067072500,-0.859375,0.0625,0.5
1630067072531,-0.859375,0.0625,0.5
1630067072562,-0.859375,0.0625,0.5
1630067072593,-0.859375,0.0625,0.5
1630067072625,-0.859375,0.0625,0.5
1630067072656,-0.859375,0.0625,0.5
1630067072687,-0.859375,0.0625,0.5
1630067072718,-0.859375,0.0625,0.5
1630067072750,-0.859375,0.0625,0.5
1630067072781,-0.859375,0.0625,0.5
1630067072812,-0.859375,0.0625,0.5
1630067072843,-0.859375,0.0625,0.5
1630067072875,-0.859375,0.0625,0.5
1630067072906,-0.859375,0.0625,0.5
1630067072937,-0.859375,0.0625,0.5
1630067072968,-0.859375,0.0625,0.5
1630067073000,-0.859375,0.0625,0.5
1630067073031,-0.859375,0.0625,0.5
1630067073062,-0.859375,0.0625,0.5
1630067073093,-0.859375,0.0625,0.5
1630067073125,-0.859375,0.0625,0.5
1630067073156,-0.859375,0.0625,0.5
1630067073187,-0.859375,0.046875,0.5
1630067073218,-0.859375,0.0625,0.515625
1630067073250,-0.859375,0.0625,0.484375
1630067073281,-0.859375,0.0625,0.5
1630067073312,-0.859375,0.0625,0.515625
1630067073343,-0.859375,0.0625,0.484375
1630067073375,-0.859375,0.0625,0.484375
1630067073406,-0.859375,0.0625,0.5
1630067073437,-0.859375,0.0625,0.5
1630067073468,-0.859375,0.0625,0.5
1630067073500,-0.859375,0.0625,0.5
1630067073531,-0.859375,0.0625,0.5
1630067073562,-0.859375,0.0625,0.5
1630067073593,-0.859375,0.0625,0.5
1630067073625,-0.859375,0.0625,0.5
1630067073656,-0.859375,0.0625,0.5
1630067073687,-0.859375,0.0625,0.5
1630067073718,-0.859375,0.0625,0.5
1630067073750,-0.859375,0.0625,0.5
1630067073781,-0.859375,0.0625,0.5
1630067073812,-0.859375,0.0625,0.5
1630067073843,-0.859375,0.0625,0.5
1630067073875,-0.859375,0.0625,0.5
1630067073906,-0.859375,0.0625,0.5
1630067073937,-0.859375,0.0625,0.5
1630067073968,-0.859375,0.0625,0.5
1630067074000,-0.859375,0.0625,0.484375
1630067074031,-0.859375,0.0625,0.5
1630067074062,-0.859375,0.0625,0.5
1630067074093,-0.859375,0.0625,0.5
1630067074125,-0.859375,0.0625,0.5
1630067074156,-0.859375,0.0625,0.5
1630067074187,-0.859375,0.0625,0.5
1630067074218,-0.859375,0.0625,0.5
1630067074250,-0.859375,0.0625,0.484375
1630067074281,-0.859375,0.0625,0.484375
1630067074312,-0.859375,0.0625,0.484375
1630067074343,-0.875,0.0625,0.484375
1630067074375,-0.859375,0.0625,0.5
1630067074406,-0.859375,0.0625,0.5
1630067074437,-0.859375,0.0625,0.484375
1630067074468,-0.875,0.0625,0.484375
1630067074500,-0.859375,0.0625,0.5
1630067074531,-0.859375,0.0625,0.484375
1630067074562,-0.859375,0.0625,0.5
1630067074593,-0.859375,0.0625,0.5
1630067074625,-0.859375,0.0625,0.484375
1630067074656,-0.859375,0.0625,0.5
1630067074687,-0.875,0.0625,0.484375
1630067074718,-0.875,0.0625,0.484375
1630067074750,-0.875,0.0625,0.484375
1630067074781,-0.875,0.0625,0.484375
1630067074812,-0.875,0.0625,0.484375
1630067074843,-0.875,0.0625,0.484375
1630067074875,-0.875,0.0625,0.484375
1630067074906,-0.875,0.0625,0.484375
1630067074937,-0.875,0.0625,0.484375
1630067074968,-0.875,0.0625,0.484375
1630067075000,-0.875,0.0625,0.484375
1630067075031,-0.875,0.0625,0.484375
1630067075062,-0.875,0.0625,0.484375
1630067075093,-0.875,0.0625,0.484375
1630067075125,-0.859375,0.0625,0.484375
1630067075156,-0.859375,0.0625,0.484375
1630067075187,-0.875,0.0625,0.484375
1630067075218,-0.875,0.0625,0.5
1630067075250,-0.859375,0.0625,0.484375
1630067075281,-0.875,0.0625,0.484375
1630067075312,-0.859375,0.0625,0.484375
1630067075343,-0.859375,0.0625,0.5
1630067075375,-0.875,0.0625,0.484375
1630067075406,-0.890625,0.0625,0.453125
1630067075437,-0.890625,0.0625,0.453125
1630067075468,-0.890625,0.0625,0.453125
1630067075500,-0.875,0.0625,0.46875
1630067075531,-0.890625,0.0625,0.46875
1630067075562,-0.875,0.0625,0.46875
1630067075593,-0.875,0.0625,0.46875
1630067075625,-0.875,0.0625,0.46875
1630067075656,-0.875,0.0625,0.46875
1630067075687,-0.890625,0.0625,0.46875
1630067075718,-0.875,0.0625,0.46875
1630067075750,-0.875,0.0625,0.46875
1630067075781,-0.875,0.0625,0.46875
1630067075812,-0.875,0.0625,0.46875
1630067075843,-0.890625,0.0625,0.46875
1630067075875,-0.875,0.0625,0.46875
1630067075906,-0.875,0.0625,0.46875
1630067075937,-0.875,0.0625,0.46875
1630067075968,-0.875,0.0625,0.46875
1630067076000,-0.890625,0.0625,0.46875
1630067076031,-0.875,0.0625,0.46875
1630067076062,-0.875,0.0625,0.46875
1630067076093,-0.875,0.0625,0.46875
1630067076125,-0.890625,0.0625,0.46875
1630067076156,-0.875,0.0625,0.46875
1630067076187,-0.875,0.0625,0.46875
1630067076218,-0.875,0.0625,0.46875
1630067076250,-0.875,0.0625,0.46875
1630067076281,-0.875,0.0625,0.46875
1630067076312,-0.875,0.0625,0.46875
1630067076343,-0.875,0.0625,0.46875
1630067076375,-0.875,0.0625,0.46875
1630067076406,-0.875,0.0625,0.46875
1630067076437,-0.875,0.0625,0.46875
1630067076468,-0.875,0.0625,0.46875
1630067076500,-0.875,0.0625,0.46875
1630067076531,-0.875,0.0625,0.46875
1630067076562,-0.875,0.0625,0.453125
1630067076593,-0.875,0.0625,0.453125
1630067076625,-0.875,0.0625,0.46875
1630067076656,-0.875,0.0625,0.46875
1630067076687,-0.890625,0.078125,0.5
1630067076718,-0.890625,0.078125,0.546875
1630067076750,-0.890625,0.078125,0.59375
1630067076781,-0.78125,0.0625,0.65625
1630067076812,-0.796875,0.0625,0.625
1630067076843,-0.828125,0.03125,0.53125
1630067076875,-0.921875,0.03125,0.34375
1630067076906,-0.9375,0.015625,0.296875
1630067076937,-0.90625,0.03125,0.296875
1630067076968,-0.96875,0.046875,0.296875
1630067077000,-0.984375,0.03125,0.328125
1630067077031,-0.96875,0.046875,0.328125
1630067077062,-0.9375,0.03125,0.375
1630067077093,-0.859375,0.03125,0.421875
1630067077125,-0.890625,0.046875,0.390625
1630067077156,-0.9375,0.03125,0.359375
1630067077187,-0.9375,0.015625,0.390625
1630067077218,-0.90625,0.015625,0.421875
1630067077250,-0.90625,-0.015625,0.4375
1630067077281,-0.890625,-0.015625,0.453125
1630067077312,-0.890625,0.0,0.453125
1630067077343,-0.859375,0.0,0.46875
1630067077375,-0.875,0.0,0.46875
1630067077406,-0.96875,-0.03125,0.40625
1630067077437,-0.734375,0.015625,0.5625
1630067077468,-0.796875,0.0,0.5625
1630067077500,-0.734375,0.015625,0.671875
1630067077531,-0.75,-0.015625,0.65625
1630067077562,-0.65625,0.0,0.734375
1630067077593,-0.609375,0.0,0.765625
1630067077625,-0.578125,0.0,0.828125
1630067077656,-0.546875,0.0,0.828125
1630067077687,-0.53125,0.0,0.828125
1630067077718,-0.546875,0.0,0.859375
1630067077750,-0.609375,0.0,0.765625
1630067077781,-0.546875,0.015625,0.796875
1630067077812,-0.671875,0.0,0.75
1630067077843,-0.59375,0.015625,0.78125
1630067077875,-0.65625,0.015625,0.71875
1630067077906,-0.734375,0.015625,0.65625
1630067077937,-0.734375,0.015625,0.625
1630067077968,-0.828125,0.03125,0.5625
1630067078000,-0.828125,0.03125,0.578125
1630067078031,-0.84375,0.0625,0.53125
1630067078062,-0.859375,0.0625,0.5
1630067078093,-0.859375,0.0625,0.46875
1630067078125,-0.921875,0.03125,0.421875
1630067078156,-0.9375,0.015625,0.359375
1630067078187,-0.9375,0.015625,0.34375
1630067078218,-0.9375,0.0,0.359375
1630067078250,-0.9375,0.0,0.359375
1630067078281,-0.921875,0.015625,0.296875
1630067078312,-1.0,0.03125,0.171875
1630067078343,-0.96875,0.03125,0.140625
1630067078375,-1.0,0.015625,0.03125
1630067078406,-1.015625,0.015625,-0.03125
1630067078437,-1.0,0.015625,-0.109375
1630067078468,-1.03125,0.015625,-0.171875
1630067078500,-1.015625,0.015625,-0.203125
1630067078531,-0.984375,0.046875,-0.171875
1630067078562,-1.03125,0.09375,-0.15625
1630067078593,-1.046875,0.03125,-0.203125
1630067078625,-1.0,0.03125,-0.15625
1630067078656,-0.96875,0.046875,-0.125
1630067078687,-1.015625,0.03125,-0.203125
1630067078718,-0.984375,0.03125,-0.171875
1630067078750,-0.96875,0.015625,-0.15625
1630067078781,-1.03125,0.015625,-0.125
1630067078812,-1.015625,0.0,-0.109375
1630067078843,-0.984375,-0.015625,-0.09375
1630067078875,-0.984375,0.0,-0.09375
1630067078906,-0.984375,0.0,-0.09375
1630067078937,-0.984375,-0.03125,-0.078125
1630067078968,-1.015625,-0.03125,-0.09375
1630067079000,-0.96875,-0.03125,-0.078125
1630067079031,-0.984375,-0.046875,-0.078125
1630067079062,-1.0,-0.046875,-0.09375
1630067079093,-0.96875,-0.046875,-0.109375
1630067079125,-0.984375,-0.03125,-0.109375
1630067079156,-0.96875,-0.046875,-0.09375
1630067079187,-1.0,-0.046875,-0.109375
1630067079218,-0.984375,-0.046875,-0.09375
1630067079250,-0.96875,-0.046875,-0.109375
1630067079281,-0.96875,-0.015625,-0.125
1630067079312,-0.96875,-0.015625,-0.171875
1630067079343,-1.0,0.0,-0.21875
1630067079375,-0.96875,0.0,-0.234375
1630067079406,-0.9375,0.0,-0.21875
1630067079437,-0.984375,0.0,-0.25
1630067079468,-0.953125,0.015625,-0.265625
1630067079500,-0.96875,0.015625,-0.328125
1630067079531,-0.953125,0.015625,-0.3125
1630067079562,-0.9375,0.0,-0.375
1630067079593,-0.9375,0.0,-0.421875
1630067079625,-0.9375,0.0,-0.421875
1630067079656,-0.90625,0.0,-0.390625
1630067079687,-0.890625,0.0,-0.40625
1630067079718,-0.921875,0.0,-0.421875
1630067079750,-0.90625,0.015625,-0.390625
1630067079781,-0.921875,0.015625,-0.375
1630067079812,-0.9375,0.015625,-0.390625
1630067079843,-0.9375,0.03125,-0.359375
1630067079875,-0.9375,0.046875,-0.296875
1630067079906,-0.9375,0.03125,-0.3125
1630067079937,-0.953125,0.015625,-0.34375
1630067079968,-0.96875,0.015625,-0.234375
1630067080000,-1.0,0.0,-0.234375
1630067080031,-0.96875,-0.015625,-0.234375
1630067080062,-0.96875,0.015625,-0.15625
1630067080093,-1.0,0.03125,-0.15625
1630067080125,-0.921875,0.046875,-0.109375
1630067080156,-0.96875,0.046875,-0.140625
1630067080187,-1.015625,0.046875,-0.109375
1630067080218,-1.015625,0.046875,-0.078125
1630067080250,-0.953125,0.03125,-0.078125
1630067080281,-0.9375,0.046875,-0.140625
1630067080312,-1.03125,0.078125,-0.03125
1630067080343,-1.03125,0.078125,-0.046875
1630067080375,-1.015625,0.0625,-0.171875
1630067080406,-1.015625,0.078125,-0.140625
1630067080437,-1.0,0.109375,-0.03125
1630067080468,-1.0625,0.09375,-0.0625
1630067080500,-1.078125,0.078125,-0.0625
1630067080531,-0.984375,0.078125,-0.046875
1630067080562,-0.9375,0.0625,-0.03125
1630067080593,-0.96875,0.046875,-0.0625
1630067080625,-0.953125,0.078125,-0.015625
1630067080656,-1.0,0.078125,0.0
1630067080687,-1.046875,0.09375,0.015625
1630067080718,-1.03125,0.09375,0.046875
1630067080750,-1.0,0.09375,0.03125
1630067080781,-1.0,0.078125,0.015625
1630067080812,-0.984375,0.078125,0.03125
1630067080843,-0.984375,0.078125,0.03125
1630067080875,-1.0,0.078125,0.03125
1630067080906,-1.0,0.078125,0.0625
1630067080937,-1.0,0.078125,0.078125
1630067080968,-0.984375,0.078125,0.078125
1630067081000,-1.0,0.09375,0.09375
1630067081031,-1.03125,0.109375,0.09375
1630067081062,-1.0,0.09375,0.109375
1630067081093,-1.015625,0.09375,0.078125
1630067081125,-1.015625,0.078125,0.078125
1630067081156,-0.984375,0.0625,0.078125
1630067081187,-0.984375,0.046875,0.09375
1630067081218,-0.96875,0.046875,0.09375
1630067081250,-0.984375,0.046875,0.109375
1630067081281,-0.984375,0.046875,0.09375
1630067081312,-0.984375,0.046875,0.109375
1630067081343,-0.96875,0.046875,0.140625
1630067081375,-0.984375,0.046875,0.140625
1630067081406,-1.0,0.046875,0.125
1630067081437,-1.015625,0.0625,0.109375
1630067081468,-1.03125,0.0625,0.078125
1630067081500,-0.953125,0.078125,0.140625
1630067081531,-0.96875,0.078125,0.140625
1630067081562,-0.984375,0.0625,0.140625
1630067081593,-0.984375,0.0625,0.125
1630067081625,-1.015625,0.078125,0.09375
1630067081656,-1.015625,0.078125,0.09375
1630067081687,-1.0,0.0625,0.109375
1630067081718,-0.984375,0.0625,0.09375
1630067081750,-0.984375,0.0625,0.09375
1630067081781,-0.984375,0.0625,0.09375
1630067081812,-1.0,0.078125,0.109375
1630067081843,-1.0,0.078125,0.109375
1630067081875,-1.0,0.0625,0.109375
1630067081906,-0.984375,0.0625,0.09375
1630067081937,-0.96875,0.0625,0.078125
1630067081968,-1.0,0.0625,0.0625
1630067082000,-1.0,0.078125,0.078125
1630067082031,-1.0,0.078125,0.09375
1630067082062,-1.0,0.078125,0.09375
1630067082093,-1.0,0.078125,0.09375
1630067082125,-0.984375,0.078125,0.09375
1630067082156,-0.984375,0.078125,0.09375
1630067082187,-1.0,0.078125,0.09375
1630067082218,-0.984375,0.0625,0.078125
1630067082250,-0.984375,0.0625,0.078125
1630067082281,-1.0,0.078125,0.078125
1630067082312,-1.0,0.078125,0.078125
1630067082343,-1.0,0.078125,0.078125
1630067082375,-0.984375,0.078125,0.078125
1630067082406,-0.984375,0.078125,0.078125
1630067082437,-0.984375,0.078125,0.0625
1630067082468,-1.0,0.078125,0.078125
1630067082500,-1.0,0.078125,0.09375
1630067082531,-0.984375,0.078125,0.109375
1630067082562,-1.0,0.078125,0.109375
1630067082593,-1.0,0.09375,0.078125
1630067082625,-0.984375,0.09375,0.09375
1630067082656,-1.0,0.078125,0.09375
1630067082687,-1.0,0.078125,0.09375
1630067082718,-1.0,0.078125,0.09375
1630067082750,-1.0,0.078125,0.078125
1630067082781,-0.984375,0.078125,0.078125
1630067082812,-1.0,0.078125,0.078125
1630067082843,-1.0,0.078125,0.09375
1630067082875,-1.0,0.078125,0.078125
1630067082906,-0.984375,0.09375,0.078125
1630067082937,-1.0,0.09375,0.078125
1630067082968,-1.0,0.09375,0.078125
1630067083000,-1.0,0.09375,0.078125
1630067083031,-1.0,0.078125,0.078125
1630067083062,-1.0,0.078125,0.078125
1630067083093,-0.984375,0.078125,0.078125
1630067083125,-0.96875,0.078125,0.078125
1630067083156,-1.0,0.09375,0.0625
1630067083187,-1.0,0.078125,0.109375
1630067083218,-0.984375,0.078125,0.140625
1630067083250,-1.0,0.09375,0.15625
1630067083281,-1.0,0.09375,0.15625
1630067083312,-0.984375,0.09375,0.140625
1630067083343,-1.0,0.078125,0.125
1630067083375,-1.0,0.078125,0.125
1630067083406,-1.0,0.09375,0.125
1630067083437,-1.0,0.09375,0.125
1630067083468,-0.984375,0.09375,0.140625
1630067083500,-0.984375,0.078125,0.140625
1630067083531,-0.984375,0.078125,0.140625
1630067083562,-0.984375,0.078125,0.140625
1630067083593,-0.984375,0.078125,0.140625
1630067083625,-0.984375,0.078125,0.140625
1630067083656,-0.984375,0.078125,0.140625
1630067083687,-0.984375,0.078125,0.140625
1630067083718,-0.984375,0.078125,0.140625
1630067083750,-1.0,0.078125,0.140625
1630067083781,-0.96875,0.078125,0.15625
1630067083812,-0.96875,0.078125,0.171875
1630067083843,-0.984375,0.078125,0.171875
1630067083875,-0.984375,0.078125,0.171875
1630067083906,-0.984375,0.078125,0.171875
1630067083937,-0.984375,0.078125,0.140625
1630067083968,-0.984375,0.078125,0.15625
1630067084000,-0.984375,0.078125,0.15625
1630067084031,-0.984375,0.078125,0.140625
1630067084062,-0.984375,0.078125,0.15625
1630067084093,-0.984375,0.078125,0.15625
1630067084125,-0.984375,0.078125,0.15625
1630067084156,-0.984375,0.078125,0.15625
1630067084187,-0.984375,0.078125,0.15625
1630067084218,-0.984375,0.078125,0.15625
1630067084250,-0.984375,0.078125,0.15625
1630067084281,-0.984375,0.078125,0.15625
1630067084312,-0.984375,0.078125,0.15625
1630067084343,-0.984375,0.078125,0.15625
1630067084375,-0.984375,0.078125,0.171875
1630067084406,-0.984375,0.078125,0.171875
1630067084437,-0.984375,0.078125,0.1875
1630067084468,-0.984375,0.09375,0.1875
1630067084500,-0.96875,0.09375,0.203125
1630067084531,-0.984375,0.078125,0.1875
1630067084562,-0.96875,0.078125,0.1875
1630067084593,-0.96875,0.078125,0.203125
1630067084625,-0.96875,0.078125,0.203125
1630067084656,-0.984375,0.078125,0.1875
1630067084687,-0.984375,0.09375,0.203125
1630067084718,-0.96875,0.078125,0.203125
1630067084750,-0.984375,0.078125,0.1875
1630067084781,-0.984375,0.078125,0.203125
1630067084812,-0.96875,0.09375,0.203125
1630067084843,-0.96875,0.09375,0.203125
1630067084875,-0.984375,0.09375,0.203125
1630067084906,-0.96875,0.078125,0.203125
1630067084937,-0.984375,0.078125,0.203125
1630067084968,-0.96875,0.078125,0.203125
1630067085000,-0.96875,0.078125,0.203125
1630067085031,-0.96875,0.09375,0.203125
1630067085062,-0.984375,0.078125,0.203125
1630067085093,-0.984375,0.09375,0.203125
1630067085125,-0.96875,0.09375,0.203125
1630067085156,-0.96875,0.09375,0.203125
1630067085187,-0.96875,0.09375,0.203125
1630067085218,-0.984375,0.09375,0.1875
1630067085250,-0.984375,0.09375,0.203125
1630067085281,-0.96875,0.09375,0.203125
1630067085312,-0.96875,0.09375,0.203125
1630067085343,-0.984375,0.09375,0.203125
1630067085375,-0.96875,0.09375,0.203125
1630067085406,-0.984375,0.09375,0.203125
1630067085437,-0.96875,0.09375,0.203125
1630067085468,-0.984375,0.09375,0.1875
1630067085500,-0.984375,0.09375,0.203125
1630067085531,-0.96875,0.078125,0.203125
1630067085562,-0.96875,0.078125,0.1875
1630067085593,-0.984375,0.078125,0.1875
1630067085625,-0.984375,0.078125,0.1875
1630067085656,-0.984375,0.09375,0.1875
1630067085687,-0.96875,0.09375,0.1875
1630067085718,-0.96875,0.078125,0.1875
1630067085750,-0.984375,0.09375,0.1875
1630067085781,-0.984375,0.078125,0.1875
1630067085812,-0.96875,0.09375,0.203125
1630067085843,-0.984375,0.09375,0.1875
1630067085875,-0.96875,0.09375,0.203125
1630067085906,-0.96875,0.09375,0.21875
1630067085937,-0.984375,0.09375,0.1875
1630067085968,-0.96875,0.09375,0.203125
1630067086000,-0.96875,0.09375,0.203125
1630067086031,-0.984375,0.09375,0.21875
1630067086062,-0.984375,0.09375,0.203125
1630067086093,-0.96875,0.09375,0.203125
1630067086125,-0.96875,0.09375,0.203125
1630067086156,-0.984375,0.078125,0.203125
1630067086187,-0.96875,0.09375,0.203125
1630067086218,-0.96875,0.09375,0.21875
1630067086250,-0.984375,0.09375,0.203125
1630067086281,-0.96875,0.109375,0.21875
1630067086312,-0.96875,0.109375,0.21875
1630067086343,-0.96875,0.09375,0.21875
1630067086375,-0.984375,0.09375,0.21875
1630067086406,-0.984375,0.109375,0.234375
1630067086437,-1.0,0.09375,0.25
1630067086468,-0.96875,0.109375,0.265625
1630067086500,-0.96875,0.09375,0.265625
1630067086531,-0.9375,0.078125,0.265625
1630067086562,-0.953125,0.078125,0.25
1630067086593,-0.953125,0.0625,0.21875
1630067086625,-0.953125,0.0625,0.21875
1630067086656,-0.953125,0.0625,0.21875
1630067086687,-0.96875,0.0625,0.234375
1630067086718,-0.96875,0.0625,0.25
1630067086750,-0.96875,0.0625,0.25
1630067086781,-0.96875,0.078125,0.25
1630067086812,-0.96875,0.0625,0.25
1630067086843,-0.96875,0.0625,0.25
1630067086875,-0.96875,0.0625,0.234375
1630067086906,-0.953125,0.0625,0.25
1630067086937,-0.96875,0.0625,0.25
1630067086968,-0.96875,0.078125,0.25
1630067087000,-0.96875,0.078125,0.25
1630067087031,-0.953125,0.078125,0.25
1630067087062,-0.96875,0.078125,0.25
1630067087093,-0.96875,0.078125,0.25
1630067087125,-0.96875,0.078125,0.25
1630067087156,-0.96875,0.0625,0.265625
1630067087187,-0.953125,0.078125,0.265625
1630067087218,-0.96875,0.0625,0.25
1630067087250,-0.96875,0.0625,0.25
1630067087281,-0.953125,0.0625,0.265625
1630067087312,-0.96875,0.078125,0.25
1630067087343,-0.96875,0.078125,0.25
1630067087375,-0.96875,0.078125,0.265625
1630067087406,-0.96875,0.078125,0.25
1630067087437,-0.953125,0.0625,0.25
1630067087468,-0.96875,0.0625,0.25
1630067087500,-0.96875,0.078125,0.265625
1630067087531,-0.96875,0.078125,0.25
1630067087562,-0.96875,0.078125,0.25
1630067087593,-0.96875,0.078125,0.25
1630067087625,-0.96875,0.078125,0.25
1630067087656,-0.96875,0.078125,0.25
1630067087687,-0.96875,0.078125,0.25
1630067087718,-0.96875,0.0625,0.25
1630067087750,-0.96875,0.078125,0.25
1630067087781,-0.96875,0.0625,0.25
1630067087812,-0.96875,0.0625,0.25
1630067087843,-0.96875,0.078125,0.25
1630067087875,-0.953125,0.0625,0.25
1630067087906,-0.96875,0.0625,0.25
1630067087937,-0.96875,0.078125,0.25
1630067087968,-0.96875,0.078125,0.25
1630067088000,-0.96875,0.0625,0.25
1630067088031,-0.953125,0.0625,0.25
1630067088062,-0.96875,0.078125,0.25
1630067088093,-0.96875,0.0625,0.25
1630067088125,-0.96875,0.0625,0.25
1630067088156,-0.953125,0.078125,0.25
1630067088187,-0.96875,0.078125,0.25
1630067088218,-0.96875,0.0625,0.25
1630067088250,-0.96875,0.0625,0.25
1630067088281,-0.953125,0.0625,0.265625
1630067088312,-0.96875,0.0625,0.25
1630067088343,-0.96875,0.0625,0.25
1630067088375,-0.96875,0.078125,0.25
1630067088406,-0.96875,0.078125,0.25
1630067088437,-0.96875,0.0625,0.25
1630067088468,-0.96875,0.0625,0.25
1630067088500,-0.96875,0.078125,0.25
1630067088531,-0.96875,0.078125,0.25
1630067088562,-0.96875,0.078125,0.25
1630067088593,-0.96875,0.078125,0.25
1630067088625,-0.96875,0.078125,0.25
1630067088656,-0.96875,0.078125,0.25
1630067088687,-0.96875,0.078125,0.25
1630067088718,-0.96875,0.0625,0.25
1630067088750,-0.96875,0.078125,0.25
1630067088781,-0.96875,0.078125,0.25
1630067088812,-0.96875,0.078125,0.25
1630067088843,-0.96875,0.078125,0.25
1630067088875,-0.96875,0.078125,0.25
1630067088906,-0.953125,0.078125,0.265625
1630067088937,-0.96875,0.078125,0.25
1630067088968,-0.96875,0.078125,0.25
1630067089000,-0.96875,0.0625,0.265625
1630067089031,-0.96875,0.078125,0.25
1630067089062,-0.96875,0.078125,0.25
1630067089093,-0.96875,0.078125,0.25
1630067089125,-0.96875,0.078125,0.25
1630067089156,-0.96875,0.078125,0.25
1630067089187,-0.96875,0.078125,0.25
1630067089218,-0.96875,0.078125,0.25
1630067089250,-0.96875,0.078125,0.25
1630067089281,-0.96875,0.078125,0.25
1630067089312,-0.96875,0.078125,0.25
1630067089343,-0.96875,0.078125,0.25
1630067089375,-0.96875,0.078125,0.25
1630067089406,-0.96875,0.078125,0.25
1630067089437,-0.96875,0.078125,0.25
1630067089468,-0.96875,0.078125,0.25
1630067089500,-0.96875,0.078125,0.25
1630067089531,-0.96875,0.078125,0.25
1630067089562,-0.96875,0.078125,0.25
1630067089593,-0.96875,0.078125,0.25
1630067089625,-0.96875,0.078125,0.234375
1630067089656,-0.96875,0.078125,0.25
1630067089687,-0.96875,0.078125,0.234375
1630067089718,-0.96875,0.078125,0.25
1630067089750,-0.96875,0.078125,0.234375
1630067089781,-0.96875,0.078125,0.25
1630067089812,-0.96875,0.078125,0.25
1630067089843,-0.96875,0.078125,0.25
1630067089875,-0.96875,0.078125,0.234375
1630067089906,-0.96875,0.078125,0.234375
1630067089937,-0.96875,0.078125,0.25
1630067089968,-0.96875,0.078125,0.25
1630067090000,-0.96875,0.078125,0.234375
1630067090031,-0.953125,0.078125,0.265625
1630067090062,-0.953125,0.078125,0.28125
1630067090093,-0.96875,0.078125,0.265625
1630067090125,-0.96875,0.078125,0.265625
1630067090156,-0.96875,0.078125,0.265625
1630067090187,-0.96875,0.078125,0.25
1630067090218,-0.953125,0.078125,0.25
1630067090250,-0.96875,0.078125,0.25
1630067090281,-0.96875,0.078125,0.25
1630067090312,-0.96875,0.078125,0.25
1630067090343,-0.96875,0.078125,0.25
1630067090375,-0.96875,0.078125,0.25
1630067090406,-0.96875,0.078125,0.25
1630067090437,-0.953125,0.078125,0.265625
1630067090468,-0.953125,0.078125,0.28125
1630067090500,-0.953125,0.078125,0.265625
1630067090531,-0.953125,0.078125,0.265625
1630067090562,-0.953125,0.078125,0.265625
1630067090593,-0.96875,0.078125,0.265625
1630067090625,-0.96875,0.078125,0.25
1630067090656,-0.96875,0.078125,0.265625
1630067090687,-0.96875,0.078125,0.265625
1630067090718,-0.96875,0.078125,0.25
1630067090750,-0.96875,0.078125,0.25
1630067090781,-0.96875,0.078125,0.265625
1630067090812,-0.953125,0.078125,0.265625
1630067090843,-0.96875,0.078125,0.265625
1630067090875,-0.953125,0.078125,0.265625
1630067090906,-0.96875,0.078125,0.265625
1630067090937,-0.96875,0.078125,0.265625
1630067090968,-0.953125,0.078125,0.265625
1630067091000,-0.96875,0.078125,0.265625
1630067091031,-0.96875,0.078125,0.265625
1630067091062,-0.953125,0.078125,0.265625
1630067091093,-0.96875,0.078125,0.265625
1630067091125,-0.96875,0.078125,0.265625
1630067091156,-0.96875,0.078125,0.265625
1630067091187,-0.953125,0.078125,0.265625
1630067091218,-0.953125,0.078125,0.28125
1630067091250,-0.953125,0.078125,0.28125
1630067091281,-0.96875,0.09375,0.265625
1630067091312,-0.953125,0.09375,0.265625
1630067091343,-0.953125,0.09375,0.265625
1630067091375,-0.96875,0.078125,0.265625
1630067091406,-0.96875,0.09375,0.265625
1630067091437,-0.953125,0.078125,0.28125
1630067091468,-0.953125,0.09375,0.265625
1630067091500,-0.96875,0.078125,0.265625
1630067091531,-0.96875,0.09375,0.265625
1630067091562,-0.96875,0.09375,0.265625
1630067091593,-0.953125,0.09375,0.265625
1630067091625,-0.953125,0.078125,0.265625
1630067091656,-0.96875,0.078125,0.25
1630067091687,-0.96875,0.078125,0.25
1630067091718,-0.953125,0.09375,0.265625
1630067091750,-0.96875,0.09375,0.265625
1630067091781,-0.96875,0.09375,0.265625
1630067091812,-0.96875,0.078125,0.25
1630067091843,-0.9375,0.078125,0.265625
1630067091875,-0.96875,0.078125,0.265625
1630067091906,-0.96875,0.078125,0.265625
1630067091937,-0.953125,0.078125,0.265625
1630067091968,-0.953125,0.078125,0.28125
1630067092000,-0.96875,0.078125,0.265625
1630067092031,-0.953125,0.078125,0.25
1630067092062,-0.953125,0.078125,0.265625
1630067092093,-0.953125,0.078125,0.265625
1630067092125,-0.96875,0.078125,0.265625
1630067092156,-0.96875,0.078125,0.265625
1630067092187,-0.96875,0.078125,0.265625
1630067092218,-0.953125,0.078125,0.265625
1630067092250,-0.953125,0.078125,0.265625
1630067092281,-0.96875,0.078125,0.265625
1630067092312,-0.96875,0.078125,0.265625
1630067092343,-0.953125,0.078125,0.265625
1630067092375,-0.953125,0.078125,0.265625
1630067092406,-0.96875,0.078125,0.265625
1630067092437,-0.953125,0.078125,0.296875
1630067092468,-0.953125,0.078125,0.3125
1630067092500,-0.953125,0.078125,0.3125
1630067092531,-0.9375,0.09375,0.3125
1630067092562,-0.953125,0.078125,0.3125
1630067092593,-0.953125,0.078125,0.3125
1630067092625,-0.953125,0.09375,0.296875
1630067092656,-0.953125,0.09375,0.3125
1630067092687,-0.9375,0.078125,0.3125
1630067092718,-0.953125,0.078125,0.3125
1630067092750,-0.9375,0.09375,0.3125
1630067092781,-0.953125,0.09375,0.3125
1630067092812,-0.953125,0.09375,0.3125
1630067092843,-0.9375,0.09375,0.3125
1630067092875,-0.9375,0.09375,0.3125
1630067092906,-0.9375,0.09375,0.3125
1630067092937,-0.9375,0.09375,0.3125
1630067092968,-0.9375,0.09375,0.328125
1630067093000,-0.9375,0.09375,0.328125
1630067093031,-0.9375,0.09375,0.3125
1630067093062,-0.953125,0.09375,0.328125
1630067093093,-0.953125,0.09375,0.3125
1630067093125,-0.9375,0.09375,0.296875
1630067093156,-0.953125,0.078125,0.3125
1630067093187,-0.953125,0.09375,0.3125
1630067093218,-0.953125,0.09375,0.3125
1630067093250,-0.9375,0.09375,0.296875
1630067093281,-0.953125,0.09375,0.296875
1630067093312,-0.953125,0.09375,0.296875
1630067093343,-0.953125,0.09375,0.3125
1630067093375,-0.9375,0.09375,0.3125
1630067093406,-0.9375,0.09375,0.3125
1630067093437,-0.96875,0.09375,0.328125
1630067093468,-0.9375,0.109375,0.3125
1630067093500,-0.9375,0.09375,0.3125
1630067093531,-0.9375,0.09375,0.296875
1630067093562,-0.953125,0.09375,0.296875
1630067093593,-0.9375,0.09375,0.328125
1630067093625,-0.9375,0.09375,0.3125
1630067093656,-0.9375,0.09375,0.3125
1630067093687,-0.9375,0.09375,0.328125
1630067093718,-0.953125,0.09375,0.3125
1630067093750,-0.9375,0.09375,0.328125
1630067093781,-0.953125,0.09375,0.3125
1630067093812,-0.9375,0.09375,0.3125
1630067093843,-0.9375,0.09375,0.3125
1630067093875,-0.9375,0.09375,0.3125
1630067093906,-0.9375,0.09375,0.3125
1630067093937,-0.9375,0.09375,0.328125
1630067093968,-0.9375,0.109375,0.3125
1630067094000,-0.9375,0.09375,0.328125
1630067094031,-0.9375,0.09375,0.3125
1630067094062,-0.9375,0.09375,0.296875
1630067094093,-0.9375,0.09375,0.3125
1630067094125,-0.9375,0.09375,0.328125
1630067094156,-0.953125,0.09375,0.296875
1630067094187,-0.9375,0.109375,0.34375
1630067094218,-0.9375,0.109375,0.328125
1630067094250,-0.953125,0.109375,0.3125
1630067094281,-0.953125,0.09375,0.3125
1630067094312,-0.9375,0.09375,0.328125
1630067094343,-0.9375,0.09375,0.328125
1630067094375,-0.953125,0.078125,0.3125
1630067094406,-0.921875,0.109375,0.328125
1630067094437,-0.953125,0.09375,0.328125
1630067094468,-0.9375,0.109375,0.328125
1630067094500,-0.9375,0.109375,0.34375
1630067094531,-0.9375,0.09375,0.328125
1630067094562,-0.9375,0.09375,0.328125
1630067094593,-0.9375,0.09375,0.328125
1630067094625,-0.9375,0.09375,0.328125
1630067094656,-0.9375,0.09375,0.3125
1630067094687,-0.9375,0.09375,0.3125
1630067094718,-0.9375,0.09375,0.328125
1630067094750,-0.9375,0.09375,0.34375
1630067094781,-0.9375,0.09375,0.34375
1630067094812,-0.921875,0.109375,0.328125
1630067094843,-0.953125,0.09375,0.328125
1630067094875,-0.9375,0.09375,0.328125
1630067094906,-0.9375,0.09375,0.34375
1630067094937,-0.9375,0.09375,0.34375
1630067094968,-0.9375,0.09375,0.328125
1630067095000,-0.9375,0.09375,0.328125
1630067095031,-0.9375,0.09375,0.34375
1630067095062,-0.9375,0.09375,0.34375
1630067095093,-0.9375,0.09375,0.34375
1630067095125,-0.9375,0.09375,0.34375
1630067095156,-0.9375,0.09375,0.34375
1630067095187,-0.9375,0.09375,0.34375
1630067095218,-0.9375,0.09375,0.359375
1630067095250,-0.9375,0.09375,0.359375
1630067095281,-0.9375,0.09375,0.34375
1630067095312,-0.9375,0.09375,0.328125
1630067095343,-0.9375,0.09375,0.34375
1630067095375,-0.9375,0.09375,0.34375
1630067095406,-0.9375,0.09375,0.34375
1630067095437,-0.9375,0.09375,0.328125
1630067095468,-0.9375,0.09375,0.34375
1630067095500,-0.921875,0.09375,0.34375
1630067095531,-0.9375,0.09375,0.34375
1630067095562,-0.9375,0.09375,0.328125
1630067095593,-0.9375,0.09375,0.328125
1630067095625,-0.9375,0.09375,0.34375
1630067095656,-0.9375,0.09375,0.34375
1630067095687,-0.9375,0.09375,0.34375
1630067095718,-0.921875,0.09375,0.34375
1630067095750,-0.9375,0.09375,0.34375
1630067095781,-0.921875,0.09375,0.359375
1630067095812,-0.9375,0.09375,0.34375
1630067095843,-0.921875,0.09375,0.34375
1630067095875,-0.9375,0.09375,0.34375
1630067095906,-0.9375,0.09375,0.34375
1630067095937,-0.9375,0.09375,0.34375
1630067095968,-0.921875,0.09375,0.34375
1630067096000,-0.9375,0.09375,0.34375
1630067096031,-0.9375,0.09375,0.34375
1630067096062,-0.9375,0.09375,0.34375
1630067096093,-0.9375,0.09375,0.359375
1630067096125,-0.9375,0.09375,0.359375
1630067096156,-0.921875,0.09375,0.34375
1630067096187,-0.9375,0.09375,0.34375
1630067096218,-0.9375,0.09375,0.34375
1630067096250,-0.9375,0.09375,0.34375
1630067096281,-0.9375,0.09375,0.328125
1630067096312,-0.9375,0.09375,0.359375
1630067096343,-0.953125,0.09375,0.359375
1630067096375,-0.953125,0.09375,0.359375
1630067096406,-0.90625,0.09375,0.375
1630067096437,-0.90625,0.09375,0.375
1630067096468,-0.9375,0.078125,0.40625
1630067096500,-0.859375,0.09375,0.46875
1630067096531,-0.84375,0.09375,0.484375
1630067096562,-0.875,0.078125,0.484375
1630067096593,-0.875,0.078125,0.484375
1630067096625,-0.875,0.078125,0.484375
1630067096656,-0.859375,0.09375,0.484375
1630067096687,-0.859375,0.09375,0.484375
1630067096718,-0.859375,0.09375,0.484375
1630067096750,-0.859375,0.09375,0.484375
1630067096781,-0.859375,0.09375,0.5
1630067096812,-0.859375,0.09375,0.484375
1630067096843,-0.859375,0.09375,0.484375
1630067096875,-0.875,0.09375,0.484375
1630067096906,-0.859375,0.09375,0.484375
1630067096937,-0.859375,0.09375,0.484375
1630067096968,-0.875,0.09375,0.484375
1630067097000,-0.875,0.09375,0.484375
1630067097031,-0.875,0.09375,0.5
1630067097062,-0.859375,0.109375,0.5
1630067097093,-0.875,0.09375,0.484375
1630067097125,-0.859375,0.09375,0.484375
1630067097156,-0.859375,0.09375,0.5
1630067097187,-0.875,0.09375,0.5
1630067097218,-0.859375,0.09375,0.515625
1630067097250,-0.859375,0.09375,0.515625
1630067097281,-0.84375,0.09375,0.53125
1630067097312,-0.859375,0.09375,0.515625
1630067097343,-0.84375,0.078125,0.53125
1630067097375,-0.859375,0.078125,0.53125
1630067097406,-0.828125,0.078125,0.546875
1630067097437,-0.828125,0.09375,0.53125
1630067097468,-0.828125,0.078125,0.515625
1630067097500,-0.828125,0.078125,0.53125
1630067097531,-0.84375,0.078125,0.515625
1630067097562,-0.84375,0.078125,0.515625
1630067097593,-0.828125,0.078125,0.515625
1630067097625,-0.859375,0.078125,0.515625
1630067097656,-0.84375,0.078125,0.515625
1630067097687,-0.84375,0.078125,0.515625
1630067097718,-0.84375,0.078125,0.515625
1630067097750,-0.859375,0.078125,0.5
1630067097781,-0.859375,0.078125,0.515625
1630067097812,-0.84375,0.078125,0.515625
1630067097843,-0.84375,0.078125,0.515625
1630067097875,-0.84375,0.078125,0.515625
1630067097906,-0.859375,0.078125,0.5
1630067097937,-0.84375,0.078125,0.515625
1630067097968,-0.84375,0.078125,0.515625
1630067098000,-0.859375,0.078125,0.5
1630067098031,-0.859375,0.078125,0.5
1630067098062,-0.859375,0.078125,0.515625
1630067098093,-0.84375,0.078125,0.515625
1630067098125,-0.84375,0.078125,0.515625
1630067098156,-0.859375,0.078125,0.5
1630067098187,-0.84375,0.078125,0.515625
1630067098218,-0.84375,0.078125,0.515625
1630067098250,-0.875,0.078125,0.5
1630067098281,-0.859375,0.078125,0.5
1630067098312,-0.859375,0.09375,0.515625
1630067098343,-0.859375,0.09375,0.5
1630067098375,-0.859375,0.09375,0.5
1630067098406,-0.859375,0.09375,0.515625
1630067098437,-0.859375,0.09375,0.5
1630067098468,-0.84375,0.09375,0.515625
1630067098500,-0.859375,0.078125,0.515625
1630067098531,-0.859375,0.09375,0.515625
1630067098562,-0.859375,0.09375,0.5
1630067098593,-0.859375,0.078125,0.5
1630067098625,-0.84375,0.09375,0.515625
1630067098656,-0.859375,0.09375,0.515625
1630067098687,-0.859375,0.09375,0.5
1630067098718,-0.859375,0.09375,0.5
1630067098750,-0.84375,0.09375,0.515625
1630067098781,-0.859375,0.09375,0.515625
1630067098812,-0.84375,0.09375,0.53125
1630067098843,-0.84375,0.09375,0.515625
1630067098875,-0.859375,0.09375,0.515625
1630067098906,-0.859375,0.09375,0.515625
1630067098937,-0.859375,0.09375,0.5
1630067098968,-0.875,0.078125,0.484375
1630067099000,-0.875,0.078125,0.484375
1630067099031,-0.859375,0.078125,0.484375
1630067099062,-0.859375,0.078125,0.484375
1630067099093,-0.859375,0.078125,0.5
1630067099125,-0.859375,0.078125,0.484375
1630067099156,-0.875,0.078125,0.484375
1630067099187,-0.859375,0.078125,0.5
1630067099218,-0.859375,0.078125,0.484375
1630067099250,-0.859375,0.078125,0.5
1630067099281,-0.859375,0.078125,0.484375
1630067099312,-0.859375,0.078125,0.5
1630067099343,-0.859375,0.09375,0.5
1630067099375,-0.859375,0.078125,0.484375
1630067099406,-0.875,0.078125,0.484375
1630067099437,-0.859375,0.09375,0.5
1630067099468,-0.859375,0.09375,0.515625
1630067099500,-0.859375,0.078125,0.5
1630067099531,-0.859375,0.09375,0.484375
1630067099562,-0.859375,0.09375,0.5
1630067099593,-0.859375,0.09375,0.5
1630067099625,-0.859375,0.09375,0.5
1630067099656,-0.875,0.09375,0.484375
1630067099687,-0.859375,0.09375,0.5
1630067099718,-0.859375,0.09375,0.515625
1630067099750,-0.859375,0.09375,0.5
1630067099781,-0.859375,0.09375,0.5
1630067099812,-0.875,0.09375,0.5
1630067099843,-0.84375,0.09375,0.5
1630067099875,-0.859375,0.09375,0.46875
1630067099906,-0.875,0.078125,0.46875
1630067099937,-0.875,0.078125,0.484375
1630067099968,-0.859375,0.09375,0.5
1630067100000,-0.859375,0.09375,0.5
1630067100031,-0.859375,0.09375,0.5
1630067100062,-0.875,0.09375,0.5
1630067100093,-0.859375,0.09375,0.484375
1630067100125,-0.859375,0.09375,0.484375
1630067100156,-0.875,0.09375,0.484375
1630067100187,-0.859375,0.09375,0.484375
1630067100218,-0.859375,0.09375,0.484375
1630067100250,-0.875,0.09375,0.484375
1630067100281,-0.875,0.09375,0.484375
1630067100312,-0.859375,0.09375,0.484375
1630067100343,-0.875,0.09375,0.484375
1630067100375,-0.859375,0.09375,0.484375
1630067100406,-0.875,0.09375,0.46875
1630067100437,-0.875,0.09375,0.484375
1630067100468,-0.875,0.09375,0.484375
1630067100500,-0.859375,0.09375,0.484375
1630067100531,-0.859375,0.09375,0.484375
1630067100562,-0.875,0.09375,0.484375
1630067100593,-0.875,0.09375,0.484375
1630067100625,-0.859375,0.09375,0.484375
1630067100656,-0.859375,0.078125,0.484375
1630067100687,-0.875,0.078125,0.484375
1630067100718,-0.859375,0.09375,0.5
1630067100750,-0.859375,0.09375,0.5
1630067100781,-0.859375,0.09375,0.5
1630067100812,-0.859375,0.09375,0.5
1630067100843,-0.859375,0.09375,0.5
1630067100875,-0.859375,0.078125,0.515625
1630067100906,-0.84375,0.109375,0.515625
1630067100937,-0.875,0.078125,0.515625
1630067100968,-0.859375,0.09375,0.5
1630067101000,-0.859375,0.09375,0.484375
1630067101031,-0.859375,0.09375,0.484375
1630067101062,-0.859375,0.09375,0.5
1630067101093,-0.859375,0.09375,0.5
1630067101125,-0.859375,0.09375,0.5
1630067101156,-0.859375,0.09375,0.5
1630067101187,-0.859375,0.09375,0.5
1630067101218,-0.859375,0.09375,0.5
1630067101250,-0.859375,0.09375,0.515625
1630067101281,-0.84375,0.09375,0.515625
1630067101312,-0.859375,0.09375,0.5
1630067101343,-0.859375,0.09375,0.484375
1630067101375,-0.859375,0.09375,0.484375
1630067101406,-0.859375,0.09375,0.484375
1630067101437,-0.859375,0.09375,0.484375
1630067101468,-0.859375,0.09375,0.484375
1630067101500,-0.859375,0.09375,0.484375
1630067101531,-0.859375,0.09375,0.484375
1630067101562,-0.859375,0.09375,0.5
1630067101593,-0.859375,0.078125,0.484375
1630067101625,-0.875,0.078125,0.484375
1630067101656,-0.859375,0.078125,0.5
1630067101687,-0.859375,0.109375,0.5
1630067101718,-0.875,0.09375,0.46875
1630067101750,-0.875,0.09375,0.484375
1630067101781,-0.859375,0.09375,0.484375
1630067101812,-0.859375,0.078125,0.484375
1630067101843,-0.859375,0.09375,0.484375
1630067101875,-0.875,0.09375,0.484375
1630067101906,-0.859375,0.09375,0.484375
1630067101937,-0.859375,0.09375,0.484375
1630067101968,-0.875,0.09375,0.484375
1630067102000,-0.859375,0.09375,0.484375
1630067102031,-0.859375,0.09375,0.5
1630067102062,-0.859375,0.09375,0.484375
1630067102093,-0.875,0.09375,0.484375
1630067102125,-0.875,0.09375,0.484375
1630067102156,-0.859375,0.078125,0.484375
1630067102187,-0.859375,0.078125,0.484375
1630067102218,-0.875,0.09375,0.484375
1630067102250,-0.875,0.09375,0.484375
1630067102281,-0.875,0.09375,0.484375
1630067102312,-0.875,0.09375,0.484375
1630067102343,-0.875,0.078125,0.46875
1630067102375,-0.875,0.09375,0.484375
1630067102406,-0.859375,0.09375,0.484375
1630067102437,-0.859375,0.09375,0.484375
1630067102468,-0.875,0.09375,0.484375
1630067102500,-0.875,0.09375,0.484375
1630067102531,-0.859375,0.09375,0.484375
1630067102562,-0.859375,0.09375,0.46875
1630067102593,-0.875,0.09375,0.484375
1630067102625,-0.875,0.078125,0.484375
1630067102656,-0.859375,0.078125,0.5
1630067102687,-0.84375,0.09375,0.515625
1630067102718,-0.859375,0.09375,0.5
1630067102750,-0.875,0.09375,0.484375
1630067102781,-0.875,0.09375,0.5
1630067102812,-0.859375,0.09375,0.515625
1630067102843,-0.859375,0.09375,0.515625
1630067102875,-0.859375,0.078125,0.484375
1630067102906,-0.859375,0.09375,0.484375
1630067102937,-0.875,0.078125,0.484375
1630067102968,-0.859375,0.078125,0.515625
1630067103000,-0.859375,0.09375,0.515625
1630067103031,-0.875,0.078125,0.484375
1630067103062,-0.875,0.078125,0.46875
1630067103093,-0.875,0.078125,0.484375
1630067103125,-0.859375,0.078125,0.484375
1630067103156,-0.875,0.078125,0.484375
1630067103187,-0.859375,0.078125,0.5
1630067103218,-0.859375,0.078125,0.5
1630067103250,-0.859375,0.078125,0.5
1630067103281,-0.859375,0.078125,0.5
1630067103312,-0.859375,0.078125,0.5
1630067103343,-0.875,0.0625,0.5
1630067103375,-0.875,0.0625,0.484375
1630067103406,-0.859375,0.078125,0.5
1630067103437,-0.859375,0.078125,0.5
1630067103468,-0.859375,0.078125,0.515625
1630067103500,-0.859375,0.078125,0.5
1630067103531,-0.859375,0.0625,0.5
1630067103562,-0.859375,0.0625,0.5
1630067103593,-0.859375,0.0625,0.484375
1630067103625,-0.875,0.078125,0.46875
1630067103656,-0.875,0.0625,0.5
1630067103687,-0.84375,0.0625,0.546875
1630067103718,-0.828125,0.0625,0.5625
1630067103750,-0.84375,0.078125,0.53125
1630067103781,-0.84375,0.078125,0.515625
1630067103812,-0.859375,0.0625,0.515625
1630067103843,-0.84375,0.0625,0.515625
1630067103875,-0.84375,0.0625,0.515625
1630067103906,-0.859375,0.046875,0.515625
1630067103937,-0.859375,0.0625,0.515625
1630067103968,-0.890625,0.0625,0.484375
1630067104000,-0.859375,0.046875,0.484375
1630067104031,-0.859375,0.046875,0.5
1630067104062,-0.859375,0.046875,0.515625
1630067104093,-0.875,0.046875,0.484375
1630067104125,-0.859375,0.046875,0.5
1630067104156,-0.859375,0.046875,0.5
1630067104187,-0.859375,0.046875,0.5
1630067104218,-0.859375,0.046875,0.5
1630067104250,-0.859375,0.046875,0.5
1630067104281,-0.859375,0.046875,0.5
1630067104312,-0.859375,0.046875,0.5
1630067104343,-0.859375,0.046875,0.5
1630067104375,-0.859375,0.046875,0.515625
1630067104406,-0.859375,0.046875,0.515625
1630067104437,-0.875,0.046875,0.515625
1630067104468,-0.859375,0.046875,0.5
1630067104500,-0.859375,0.046875,0.5
1630067104531,-0.859375,0.046875,0.5
1630067104562,-0.859375,0.046875,0.5
1630067104593,-0.859375,0.046875,0.5
1630067104625,-0.875,0.046875,0.5
1630067104656,-0.859375,0.046875,0.5
1630067104687,-0.859375,0.046875,0.484375
1630067104718,-0.859375,0.03125,0.5
1630067104750,-0.859375,0.03125,0.5
1630067104781,-0.875,0.03125,0.5
1630067104812,-0.859375,0.046875,0.484375
1630067104843,-0.859375,0.046875,0.484375
1630067104875,-0.875,0.046875,0.5
1630067104906,-0.875,0.046875,0.484375
1630067104937,-0.859375,0.046875,0.5
1630067104968,-0.859375,0.046875,0.484375
1630067105000,-0.859375,0.046875,0.484375
1630067105031,-0.859375,0.03125,0.5
1630067105062,-0.84375,0.03125,0.5
1630067105093,-0.875,0.046875,0.484375
1630067105125,-0.890625,0.046875,0.46875
1630067105156,-0.875,0.046875,0.46875
1630067105187,-0.875,0.046875,0.484375
1630067105218,-0.875,0.046875,0.484375
1630067105250,-0.859375,0.046875,0.5
1630067105281,-0.875,0.046875,0.484375
1630067105312,-0.875,0.0625,0.484375
1630067105343,-0.875,0.0625,0.484375
1630067105375,-0.875,0.0625,0.484375
1630067105406,-0.859375,0.0625,0.484375
1630067105437,-0.859375,0.046875,0.484375
1630067105468,-0.859375,0.046875,0.5
1630067105500,-0.875,0.046875,0.484375
1630067105531,-0.875,0.046875,0.484375
1630067105562,-0.859375,0.046875,0.484375
1630067105593,-0.875,0.0625,0.484375
1630067105625,-0.875,0.0625,0.484375
1630067105656,-0.875,0.0625,0.484375
1630067105687,-0.875,0.0625,0.484375
1630067105718,-0.875,0.0625,0.484375
1630067105750,-0.875,0.0625,0.484375
1630067105781,-0.875,0.0625,0.484375
1630067105812,-0.859375,0.0625,0.484375
1630067105843,-0.875,0.0625,0.484375
1630067105875,-0.875,0.0625,0.484375
1630067105906,-0.875,0.0625,0.484375
1630067105937,-0.875,0.0625,0.484375
1630067105968,-0.875,0.0625,0.484375
1630067106000,-0.875,0.0625,0.484375
1630067106031,-0.875,0.046875,0.484375
1630067106062,-0.859375,0.046875,0.484375
1630067106093,-0.859375,0.0625,0.484375
1630067106125,-0.875,0.0625,0.484375
1630067106156,-0.875,0.0625,0.484375
1630067106187,-0.859375,0.0625,0.484375
1630067106218,-0.875,0.0625,0.484375
1630067106250,-0.875,0.0625,0.484375
1630067106281,-0.875,0.0625,0.484375
1630067106312,-0.875,0.0625,0.484375
1630067106343,-0.875,0.0625,0.484375
1630067106375,-0.875,0.0625,0.484375
1630067106406,-0.875,0.0625,0.484375
1630067106437,-0.875,0.0625,0.484375
1630067106468,-0.875,0.0625,0.484375
1630067106500,-0.875,0.0625,0.484375
1630067106531,-0.875,0.0625,0.484375
1630067106562,-0.875,0.0625,0.484375
1630067106593,-0.875,0.0625,0.484375
1630067106625,-0.875,0.0625,0.484375
1630067106656,-0.875,0.0625,0.484375
1630067106687,-0.875,0.0625,0.484375
1630067106718,-0.875,0.0625,0.484375
1630067106750,-0.875,0.0625,0.484375
1630067106781,-0.875,0.0625,0.484375
1630067106812,-0.875,0.0625,0.484375
1630067106843,-0.875,0.0625,0.484375
1630067106875,-0.875,0.0625,0.484375
1630067106906,-0.875,0.0625,0.484375
1630067106937,-0.875,0.0625,0.484375
1630067106968,-0.875,0.0625,0.484375
1630067107000,-0.875,0.0625,0.46875
1630067107031,-0.875,0.0625,0.484375
1630067107062,-0.875,0.0625,0.484375
1630067107093,-0.875,0.0625,0.46875
1630067107125,-0.875,0.078125,0.46875
1630067107156,-0.875,0.0625,0.484375
1630067107187,-0.875,0.078125,0.484375
1630067107218,-0.875,0.078125,0.484375
1630067107250,-0.875,0.0625,0.484375
1630067107281,-0.875,0.0625,0.484375
1630067107312,-0.875,0.0625,0.46875
1630067107343,-0.875,0.0625,0.46875
1630067107375,-0.875,0.0625,0.46875
1630067107406,-0.875,0.0625,0.484375
1630067107437,-0.875,0.0625,0.484375
1630067107468,-0.875,0.0625,0.484375
1630067107500,-0.875,0.0625,0.484375
1630067107531,-0.875,0.0625,0.484375
1630067107562,-0.875,0.0625,0.484375
1630067107593,-0.875,0.0625,0.484375
1630067107625,-0.875,0.0625,0.484375
1630067107656,-0.875,0.0625,0.46875
1630067107687,-0.875,0.0625,0.484375
1630067107718,-0.875,0.0625,0.484375
1630067107750,-0.859375,0.046875,0.5
1630067107781,-0.875,0.0625,0.5
1630067107812,-0.875,0.0625,0.5
1630067107843,-0.875,0.0625,0.484375
1630067107875,-0.875,0.0625,0.46875
1630067107906,-0.875,0.046875,0.46875
1630067107937,-0.859375,0.0625,0.484375
1630067107968,-0.859375,0.046875,0.484375
1630067108000,-0.875,0.046875,0.5
1630067108031,-0.859375,0.0625,0.5
1630067108062,-0.859375,0.0625,0.5
1630067108093,-0.859375,0.046875,0.484375
1630067108125,-0.859375,0.046875,0.484375
1630067108156,-0.859375,0.0625,0.484375
1630067108187,-0.875,0.046875,0.484375
1630067108218,-0.875,0.046875,0.484375
1630067108250,-0.859375,0.046875,0.5
1630067108281,-0.875,0.046875,0.484375
1630067108312,-0.875,0.046875,0.484375
1630067108343,-0.875,0.046875,0.5
1630067108375,-0.859375,0.046875,0.5
1630067108406,-0.859375,0.046875,0.484375
1630067108437,-0.875,0.046875,0.484375
1630067108468,-0.875,0.046875,0.484375
1630067108500,-0.875,0.046875,0.484375
1630067108531,-0.859375,0.046875,0.484375
1630067108562,-0.875,0.046875,0.484375
1630067108593,-0.875,0.046875,0.484375
1630067108625,-0.859375,0.046875,0.5
1630067108656,-0.875,0.046875,0.484375
1630067108687,-0.875,0.046875,0.484375
1630067108718,-0.859375,0.046875,0.5
1630067108750,-0.875,0.046875,0.484375
1630067108781,-0.875,0.046875,0.484375
1630067108812,-0.859375,0.0625,0.484375
1630067108843,-0.859375,0.046875,0.5
1630067108875,-0.859375,0.046875,0.5
1630067108906,-0.875,0.046875,0.5
1630067108937,-0.875,0.046875,0.484375
1630067108968,-0.859375,0.046875,0.5
1630067109000,-0.859375,0.046875,0.5
1630067109031,-0.859375,0.046875,0.484375
1630067109062,-0.875,0.046875,0.484375
1630067109093,-0.859375,0.046875,0.5
1630067109125,-0.859375,0.046875,0.5
1630067109156,-0.875,0.046875,0.5
1630067109187,-0.859375,0.046875,0.5
1630067109218,-0.859375,0.0625,0.5
1630067109250,-0.875,0.046875,0.484375
1630067109281,-0.875,0.046875,0.5
1630067109312,-0.859375,0.046875,0.5
1630067109343,-0.859375,0.046875,0.5
1630067109375,-0.859375,0.046875,0.5
1630067109406,-0.875,0.046875,0.5
1630067109437,-0.859375,0.046875,0.484375
1630067109468,-0.859375,0.046875,0.5
1630067109500,-0.859375,0.046875,0.5
1630067109531,-0.859375,0.046875,0.5
1630067109562,-0.859375,0.046875,0.5
1630067109593,-0.859375,0.046875,0.5
1630067109625,-0.859375,0.046875,0.5
1630067109656,-0.859375,0.046875,0.5
1630067109687,-0.859375,0.046875,0.5
1630067109718,-0.859375,0.046875,0.5
1630067109750,-0.859375,0.046875,0.5
1630067109781,-0.859375,0.046875,0.484375
1630067109812,-0.859375,0.046875,0.5
1630067109843,-0.859375,0.046875,0.5
1630067109875,-0.859375,0.046875,0.515625
1630067109906,-0.890625,0.046875,0.46875
1630067109937,-0.875,0.046875,0.453125
1630067109968,-0.875,0.046875,0.484375
1630067110000,-0.875,0.046875,0.484375
1630067110031,-0.875,0.046875,0.5
1630067110062,-0.859375,0.046875,0.484375
1630067110093,-0.875,0.046875,0.484375
1630067110125,-0.875,0.046875,0.484375
1630067110156,-0.875,0.046875,0.484375
1630067110187,-0.859375,0.046875,0.484375
1630067110218,-0.859375,0.046875,0.484375
1630067110250,-0.859375,0.046875,0.5
1630067110281,-0.875,0.046875,0.484375
1630067110312,-0.875,0.046875,0.484375
1630067110343,-0.875,0.046875,0.484375
1630067110375,-0.875,0.046875,0.484375
1630067110406,-0.875,0.046875,0.484375
1630067110437,-0.875,0.046875,0.46875
1630067110468,-0.875,0.0625,0.46875
1630067110500,-0.875,0.046875,0.484375
1630067110531,-0.875,0.046875,0.484375
1630067110562,-0.875,0.046875,0.484375
1630067110593,-0.859375,0.046875,0.5
1630067110625,-0.875,0.0625,0.484375
1630067110656,-0.875,0.046875,0.484375
1630067110687,-0.875,0.0625,0.484375
1630067110718,-0.875,0.0625,0.484375
1630067110750,-0.875,0.0625,0.484375
1630067110781,-0.859375,0.0625,0.5
1630067110812,-0.875,0.0625,0.484375
1630067110843,-0.875,0.046875,0.484375
1630067110875,-0.859375,0.046875,0.5
1630067110906,-0.859375,0.046875,0.5
1630067110937,-0.875,0.0625,0.484375
1630067110968,-0.859375,0.0625,0.484375
1630067111000,-0.859375,0.0625,0.5
1630067111031,-0.859375,0.0625,0.5
1630067111062,-0.859375,0.0625,0.5
1630067111093,-0.859375,0.0625,0.484375
1630067111125,-0.859375,0.0625,0.5
1630067111156,-0.859375,0.0625,0.484375
1630067111187,-0.875,0.0625,0.484375
1630067111218,-0.859375,0.0625,0.5
1630067111250,-0.859375,0.0625,0.5
1630067111281,-0.859375,0.0625,0.5
1630067111312,-0.859375,0.0625,0.5
1630067111343,-0.875,0.0625,0.5
1630067111375,-0.875,0.0625,0.5
1630067111406,-0.859375,0.0625,0.484375
1630067111437,-0.859375,0.0625,0.5
1630067111468,-0.859375,0.0625,0.5
1630067111500,-0.875,0.0625,0.5
1630067111531,-0.859375,0.0625,0.5
1630067111562,-0.859375,0.0625,0.5
1630067111593,-0.859375,0.0625,0.5
1630067111625,-0.859375,0.0625,0.5
1630067111656,-0.859375,0.0625,0.5
1630067111687,-0.859375,0.0625,0.5
1630067111718,-0.875,0.0625,0.484375
1630067111750,-0.859375,0.0625,0.484375
1630067111781,-0.859375,0.0625,0.484375
1630067111812,-0.875,0.0625,0.484375
1630067111843,-0.875,0.0625,0.484375
1630067111875,-0.859375,0.0625,0.484375
1630067111906,-0.875,0.0625,0.5
1630067111937,-0.875,0.0625,0.484375
1630067111968,-0.875,0.0625,0.484375
1630067112000,-0.875,0.0625,0.484375
1630067112031,-0.859375,0.0625,0.484375
1630067112062,-0.875,0.0625,0.484375
1630067112093,-0.875,0.0625,0.484375
1630067112125,-0.875,0.0625,0.484375
1630067112156,-0.859375,0.0625,0.5
1630067112187,-0.859375,0.0625,0.5
1630067112218,-0.859375,0.0625,0.484375
1630067112250,-0.875,0.046875,0.484375
1630067112281,-0.875,0.0625,0.484375
1630067112312,-0.859375,0.0625,0.484375
1630067112343,-0.875,0.0625,0.484375
1630067112375,-0.875,0.046875,0.484375
1630067112406,-0.875,0.046875,0.484375
1630067112437,-0.859375,0.046875,0.484375
1630067112468,-0.875,0.046875,0.484375
1630067112500,-0.875,0.046875,0.484375
1630067112531,-0.875,0.046875,0.484375
1630067112562,-0.875,0.046875,0.484375
1630067112593,-0.859375,0.046875,0.484375
1630067112625,-0.875,0.046875,0.484375
1630067112656,-0.859375,0.046875,0.484375
1630067112687,-0.875,0.046875,0.484375
1630067112718,-0.875,0.046875,0.484375
1630067112750,-0.875,0.046875,0.484375
1630067112781,-0.875,0.046875,0.484375
1630067112812,-0.875,0.046875,0.484375
1630067112843,-0.875,0.046875,0.484375
1630067112875,-0.875,0.046875,0.484375
1630067112906,-0.859375,0.046875,0.484375
1630067112937,-0.875,0.046875,0.484375
1630067112968,-0.875,0.046875,0.453125
1630067113000,-0.875,0.046875,0.5
1630067113031,-0.875,0.046875,0.5
1630067113062,-0.875,0.046875,0.484375
1630067113093,-0.875,0.046875,0.484375
1630067113125,-0.875,0.046875,0.484375
1630067113156,-0.859375,0.046875,0.484375
1630067113187,-0.859375,0.046875,0.484375
1630067113218,-0.859375,0.046875,0.484375
1630067113250,-0.875,0.046875,0.484375
1630067113281,-0.859375,0.046875,0.484375
1630067113312,-0.859375,0.046875,0.484375
1630067113343,-0.875,0.046875,0.484375
1630067113375,-0.875,0.046875,0.484375
1630067113406,-0.859375,0.046875,0.5
1630067113437,-0.859375,0.046875,0.5
1630067113468,-0.875,0.046875,0.5
1630067113500,-0.859375,0.046875,0.484375
1630067113531,-0.859375,0.046875,0.484375
1630067113562,-0.875,0.046875,0.5
1630067113593,-0.859375,0.046875,0.5
1630067113625,-0.859375,0.046875,0.5
1630067113656,-0.859375,0.046875,0.5
1630067113687,-0.859375,0.046875,0.484375
1630067113718,-0.859375,0.046875,0.5
1630067113750,-0.875,0.046875,0.5
1630067113781,-0.859375,0.046875,0.5
1630067113812,-0.859375,0.046875,0.5
1630067113843,-0.859375,0.046875,0.5
1630067113875,-0.859375,0.046875,0.484375
1630067113906,-0.859375,0.046875,0.5
1630067113937,-0.859375,0.046875,0.5
1630067113968,-0.859375,0.046875,0.484375
1630067114000,-0.859375,0.046875,0.5
1630067114031,-0.859375,0.046875,0.5
1630067114062,-0.859375,0.046875,0.5
1630067114093,-0.859375,0.046875,0.5
1630067114125,-0.859375,0.046875,0.5
1630067114156,-0.875,0.046875,0.5
1630067114187,-0.859375,0.046875,0.5
1630067114218,-0.859375,0.046875,0.5
1630067114250,-0.859375,0.046875,0.5
1630067114281,-0.859375,0.046875,0.5
1630067114312,-0.859375,0.046875,0.484375
1630067114343,-0.859375,0.046875,0.5
1630067114375,-0.859375,0.046875,0.5
1630067114406,-0.859375,0.046875,0.5
1630067114437,-0.859375,0.046875,0.5
1630067114468,-0.859375,0.046875,0.5
1630067114500,-0.859375,0.046875,0.5
1630067114531,-0.859375,0.046875,0.5
1630067114562,-0.859375,0.046875,0.5
1630067114593,-0.875,0.046875,0.5
1630067114625,-0.859375,0.046875,0.5
1630067114656,-0.859375,0.046875,0.484375
1630067114687,-0.875,0.046875,0.484375
1630067114718,-0.875,0.046875,0.484375
1630067114750,-0.859375,0.046875,0.484375
1630067114781,-0.859375,0.046875,0.484375
1630067114812,-0.859375,0.046875,0.5
1630067114843,-0.875,0.046875,0.5
1630067114875,-0.875,0.046875,0.484375
1630067114906,-0.859375,0.046875,0.5
1630067114937,-0.859375,0.046875,0.5
1630067114968,-0.859375,0.046875,0.5
1630067115000,-0.859375,0.046875,0.5
1630067115031,-0.875,0.046875,0.5
1630067115062,-0.859375,0.046875,0.5
1630067115093,-0.875,0.046875,0.484375
1630067115125,-0.875,0.046875,0.484375
1630067115156,-0.859375,0.046875,0.5
1630067115187,-0.859375,0.046875,0.5
1630067115218,-0.859375,0.046875,0.484375
1630067115250,-0.859375,0.046875,0.5
1630067115281,-0.875,0.046875,0.5
1630067115312,-0.859375,0.046875,0.484375
1630067115343,-0.859375,0.046875,0.5
1630067115375,-0.875,0.046875,0.5
1630067115406,-0.875,0.046875,0.5
1630067115437,-0.859375,0.046875,0.5
1630067115468,-0.859375,0.046875,0.5
1630067115500,-0.875,0.046875,0.5
1630067115531,-0.875,0.046875,0.5
1630067115562,-0.875,0.046875,0.484375
1630067115593,-0.859375,0.046875,0.5
1630067115625,-0.859375,0.046875,0.5
1630067115656,-0.875,0.046875,0.5
1630067115687,-0.859375,0.046875,0.515625
1630067115718,-0.859375,0.046875,0.5
1630067115750,-0.859375,0.046875,0.484375
1630067115781,-0.859375,0.046875,0.484375
1630067115812,-0.859375,0.046875,0.484375
1630067115843,-0.875,0.046875,0.5
1630067115875,-0.859375,0.046875,0.5
1630067115906,-0.859375,0.046875,0.484375
1630067115937,-0.859375,0.046875,0.5
1630067115968,-0.875,0.046875,0.484375
1630067116000,-0.859375,0.046875,0.484375
1630067116031,-0.875,0.046875,0.484375
1630067116062,-0.859375,0.046875,0.5
1630067116093,-0.875,0.046875,0.484375
1630067116125,-0.875,0.046875,0.484375
1630067116156,-0.875,0.046875,0.5
1630067116187,-0.875,0.046875,0.484375
1630067116218,-0.875,0.046875,0.484375
1630067116250,-0.875,0.046875,0.484375
1630067116281,-0.875,0.046875,0.484375
1630067116312,-0.875,0.046875,0.484375
1630067116343,-0.875,0.046875,0.484375
1630067116375,-0.875,0.0625,0.46875
1630067116406,-0.875,0.046875,0.46875
1630067116437,-0.875,0.046875,0.484375
1630067116468,-0.890625,0.046875,0.484375
1630067116500,-0.875,0.046875,0.46875
1630067116531,-0.890625,0.046875,0.46875
1630067116562,-0.875,0.046875,0.484375
1630067116593,-0.875,0.046875,0.484375
1630067116625,-0.875,0.046875,0.46875
1630067116656,-0.875,0.046875,0.453125
1630067116687,-0.875,0.046875,0.453125
1630067116718,-0.875,0.046875,0.46875
1630067116750,-0.875,0.03125,0.46875
1630067116781,-0.890625,0.046875,0.46875
1630067116812,-0.890625,0.046875,0.46875
1630067116843,-0.875,0.046875,0.46875
1630067116875,-0.875,0.03125,0.453125
1630067116906,-0.890625,0.03125,0.453125
1630067116937,-0.890625,0.046875,0.453125
1630067116968,-0.875,0.046875,0.46875
1630067117000,-0.890625,0.046875,0.453125
1630067117031,-0.90625,0.046875,0.453125
1630067117062,-0.890625,0.046875,0.453125
1630067117093,-0.890625,0.046875,0.453125
1630067117125,-0.890625,0.046875,0.453125
1630067117156,-0.890625,0.03125,0.4375
1630067117187,-0.890625,0.03125,0.453125
1630067117218,-0.890625,0.03125,0.453125
1630067117250,-0.890625,0.046875,0.4375
1630067117281,-0.890625,0.046875,0.453125
1630067117312,-0.875,0.03125,0.453125
1630067117343,-0.90625,0.03125,0.453125
1630067117375,-0.90625,0.046875,0.4375
1630067117406,-0.90625,0.046875,0.421875
1630067117437,-0.90625,0.03125,0.421875
1630067117468,-0.90625,0.046875,0.421875
1630067117500,-0.90625,0.046875,0.421875
1630067117531,-0.90625,0.046875,0.421875
1630067117562,-0.90625,0.046875,0.421875
1630067117593,-0.90625,0.046875,0.421875
1630067117625,-0.90625,0.03125,0.40625
1630067117656,-0.90625,0.046875,0.390625
1630067117687,-0.90625,0.046875,0.390625
1630067117718,-0.921875,0.03125,0.40625
1630067117750,-0.921875,0.046875,0.390625
1630067117781,-0.921875,0.046875,0.375
1630067117812,-0.921875,0.03125,0.375
1630067117843,-0.921875,0.03125,0.375
1630067117875,-0.921875,0.046875,0.375
1630067117906,-0.921875,0.046875,0.375
1630067117937,-0.921875,0.046875,0.375
1630067117968,-0.9375,0.03125,0.375
1630067118000,-0.9375,0.03125,0.375
1630067118031,-0.921875,0.046875,0.375
1630067118062,-0.921875,0.046875,0.375
1630067118093,-0.9375,0.046875,0.390625
1630067118125,-0.90625,0.046875,0.390625
1630067118156,-0.921875,0.046875,0.390625
1630067118187,-0.90625,0.03125,0.40625
1630067118218,-0.921875,0.03125,0.390625
1630067118250,-0.921875,0.03125,0.390625
1630067118281,-0.90625,0.046875,0.421875
1630067118312,-0.921875,0.03125,0.40625
1630067118343,-0.921875,0.046875,0.375
1630067118375,-0.921875,0.046875,0.375
1630067118406,-0.953125,0.03125,0.375
1630067118437,-0.890625,0.046875,0.40625
1630067118468,-0.90625,0.046875,0.40625
1630067118500,-0.90625,0.03125,0.421875
1630067118531,-0.90625,0.03125,0.40625
1630067118562,-0.921875,0.03125,0.40625
1630067118593,-0.921875,0.03125,0.40625
1630067118625,-0.890625,0.03125,0.421875
1630067118656,-0.90625,0.046875,0.421875
1630067118687,-0.90625,0.03125,0.4375
1630067118718,-0.90625,0.046875,0.421875
1630067118750,-0.90625,0.046875,0.421875
1630067118781,-0.921875,0.03125,0.40625
1630067118812,-0.90625,0.046875,0.421875
1630067118843,-0.90625,0.046875,0.421875
1630067118875,-0.90625,0.046875,0.421875
1630067118906,-0.90625,0.046875,0.421875
1630067118937,-0.90625,0.046875,0.40625
1630067118968,-0.90625,0.046875,0.421875
1630067119000,-0.90625,0.046875,0.421875
1630067119031,-0.90625,0.046875,0.40625
1630067119062,-0.90625,0.046875,0.421875
1630067119093,-0.90625,0.046875,0.421875
1630067119125,-0.90625,0.046875,0.421875
1630067119156,-0.90625,0.046875,0.421875
1630067119187,-0.90625,0.046875,0.421875
1630067119218,-0.90625,0.046875,0.421875
1630067119250,-0.90625,0.0625,0.40625
1630067119281,-0.90625,0.046875,0.40625
1630067119312,-0.921875,0.0625,0.40625
1630067119343,-0.921875,0.0625,0.40625
1630067119375,-0.90625,0.046875,0.421875
1630067119406,-0.90625,0.046875,0.421875
1630067119437,-0.90625,0.046875,0.40625
1630067119468,-0.90625,0.046875,0.421875
1630067119500,-0.90625,0.046875,0.421875
1630067119531,-0.90625,0.046875,0.40625
1630067119562,-0.90625,0.046875,0.421875
1630067119593,-0.90625,0.046875,0.4375
1630067119625,-0.90625,0.046875,0.421875
1630067119656,-0.921875,0.046875,0.40625
1630067119687,-0.90625,0.046875,0.421875
1630067119718,-0.90625,0.046875,0.40625
1630067119750,-0.90625,0.046875,0.40625
1630067119781,-0.90625,0.0625,0.421875
1630067119812,-0.90625,0.046875,0.421875
1630067119843,-0.90625,0.046875,0.421875
1630067119875,-0.90625,0.046875,0.421875
1630067119906,-0.90625,0.046875,0.421875
1630067119937,-0.90625,0.046875,0.421875
1630067119968,-0.90625,0.046875,0.421875
1630067120000,-0.90625,0.046875,0.421875
1630067120031,-0.90625,0.046875,0.421875
1630067120062,-0.90625,0.046875,0.421875
1630067120093,-0.90625,0.046875,0.421875
1630067120125,-0.921875,0.046875,0.40625
1630067120156,-0.890625,0.046875,0.421875
1630067120187,-0.890625,0.046875,0.421875
1630067120218,-0.90625,0.046875,0.4375
1630067120250,-0.90625,0.046875,0.421875
1630067120281,-0.890625,0.046875,0.453125
1630067120312,-0.890625,0.046875,0.453125
1630067120343,-0.890625,0.046875,0.4375
1630067120375,-0.890625,0.0625,0.4375
1630067120406,-0.890625,0.046875,0.4375
1630067120437,-0.890625,0.046875,0.453125
1630067120468,-0.890625,0.046875,0.453125
1630067120500,-0.890625,0.046875,0.453125
1630067120531,-0.890625,0.0625,0.453125
1630067120562,-0.890625,0.0625,0.453125
1630067120593,-0.890625,0.046875,0.4375
1630067120625,-0.890625,0.046875,0.4375
1630067120656,-0.890625,0.0625,0.453125
1630067120687,-0.890625,0.046875,0.453125
1630067120718,-0.890625,0.0625,0.4375
1630067120750,-0.890625,0.0625,0.453125
1630067120781,-0.890625,0.0625,0.453125
1630067120812,-0.890625,0.046875,0.453125
1630067120843,-0.890625,0.0625,0.453125
1630067120875,-0.890625,0.0625,0.4375
1630067120906,-0.890625,0.0625,0.453125
1630067120937,-0.890625,0.0625,0.453125
1630067120968,-0.890625,0.046875,0.453125
1630067121000,-0.890625,0.046875,0.453125
1630067121031,-0.890625,0.046875,0.453125
1630067121062,-0.890625,0.046875,0.4375
1630067121093,-0.890625,0.046875,0.453125
1630067121125,-0.890625,0.046875,0.453125
1630067121156,-0.890625,0.046875,0.4375
1630067121187,-0.890625,0.046875,0.4375
1630067121218,-0.890625,0.046875,0.453125
1630067121250,-0.890625,0.046875,0.453125
1630067121281,-0.890625,0.046875,0.4375
1630067121312,-0.890625,0.046875,0.453125
1630067121343,-0.890625,0.046875,0.453125
1630067121375,-0.890625,0.046875,0.453125
1630067121406,-0.890625,0.046875,0.453125
1630067121437,-0.890625,0.0625,0.453125
1630067121468,-0.890625,0.046875,0.4375
1630067121500,-0.890625,0.046875,0.4375
1630067121531,-0.890625,0.046875,0.4375
1630067121562,-0.90625,0.046875,0.421875
1630067121593,-0.90625,0.046875,0.421875
1630067121625,-0.890625,0.046875,0.4375
1630067121656,-0.875,0.046875,0.453125
1630067121687,-0.890625,0.0625,0.46875
1630067121718,-0.890625,0.0625,0.453125
1630067121750,-0.890625,0.046875,0.453125
1630067121781,-0.890625,0.046875,0.453125
1630067121812,-0.890625,0.046875,0.4375
1630067121843,-0.890625,0.046875,0.453125
1630067121875,-0.890625,0.046875,0.4375
1630067121906,-0.890625,0.046875,0.4375
1630067121937,-0.890625,0.046875,0.453125
1630067121968,-0.890625,0.046875,0.453125
1630067122000,-0.890625,0.046875,0.4375
1630067122031,-0.90625,0.046875,0.421875
1630067122062,-0.890625,0.046875,0.4375
1630067122093,-0.90625,0.046875,0.4375
1630067122125,-0.90625,0.046875,0.421875
1630067122156,-0.90625,0.046875,0.421875
1630067122187,-0.890625,0.046875,0.4375
1630067122218,-0.890625,0.046875,0.4375
1630067122250,-0.90625,0.046875,0.4375
1630067122281,-0.90625,0.046875,0.4375
1630067122312,-0.890625,0.0625,0.4375
1630067122343,-0.90625,0.046875,0.4375
1630067122375,-0.90625,0.046875,0.4375
1630067122406,-0.890625,0.0625,0.4375
1630067122437,-0.890625,0.0625,0.4375
1630067122468,-0.90625,0.046875,0.4375
1630067122500,-0.890625,0.046875,0.4375
1630067122531,-0.890625,0.046875,0.4375
1630067122562,-0.890625,0.046875,0.4375
1630067122593,-0.890625,0.046875,0.4375
1630067122625,-0.90625,0.046875,0.4375
1630067122656,-0.90625,0.046875,0.4375
1630067122687,-0.890625,0.046875,0.4375
1630067122718,-0.890625,0.046875,0.4375
1630067122750,-0.890625,0.046875,0.4375
1630067122781,-0.890625,0.046875,0.4375
1630067122812,-0.890625,0.046875,0.4375
1630067122843,-0.890625,0.046875,0.4375
1630067122875,-0.90625,0.046875,0.4375
1630067122906,-0.890625,0.046875,0.4375
1630067122937,-0.890625,0.046875,0.4375
1630067122968,-0.890625,0.046875,0.4375
1630067123000,-0.90625,0.046875,0.4375
1630067123031,-0.890625,0.046875,0.4375
1630067123062,-0.890625,0.046875,0.4375
1630067123093,-0.890625,0.046875,0.4375
1630067123125,-0.90625,0.046875,0.4375
1630067123156,-0.890625,0.046875,0.4375
1630067123187,-0.90625,0.046875,0.4375
1630067123218,-0.890625,0.046875,0.4375
1630067123250,-0.890625,0.046875,0.4375
1630067123281,-0.90625,0.046875,0.4375
1630067123312,-0.890625,0.046875,0.4375
1630067123343,-0.890625,0.046875,0.4375
1630067123375,-0.890625,0.046875,0.4375
1630067123406,-0.890625,0.046875,0.4375
1630067123437,-0.90625,0.046875,0.4375
1630067123468,-0.890625,0.046875,0.4375
1630067123500,-0.890625,0.046875,0.4375
1630067123531,-0.90625,0.046875,0.4375
1630067123562,-0.90625,0.046875,0.4375
1630067123593,-0.890625,0.046875,0.4375
1630067123625,-0.890625,0.046875,0.4375
1630067123656,-0.890625,0.046875,0.4375
1630067123687,-0.90625,0.046875,0.4375
1630067123718,-0.90625,0.046875,0.4375
1630067123750,-0.90625,0.046875,0.4375
1630067123781,-0.890625,0.046875,0.4375
1630067123812,-0.90625,0.046875,0.4375
1630067123843,-0.890625,0.046875,0.4375
1630067123875,-0.90625,0.046875,0.4375
1630067123906,-0.890625,0.046875,0.4375
1630067123937,-0.890625,0.046875,0.4375
1630067123968,-0.890625,0.046875,0.4375
1630067124000,-0.90625,0.046875,0.4375
1630067124031,-0.890625,0.046875,0.4375
1630067124062,-0.890625,0.046875,0.453125
1630067124093,-0.90625,0.046875,0.421875
1630067124125,-0.90625,0.046875,0.421875
1630067124156,-0.90625,0.046875,0.421875
1630067124187,-0.90625,0.046875,0.421875
1630067124218,-0.90625,0.046875,0.40625
1630067124250,-0.921875,0.046875,0.421875
1630067124281,-0.90625,0.046875,0.4375
1630067124312,-0.90625,0.046875,0.4375
1630067124343,-0.90625,0.046875,0.421875
1630067124375,-0.90625,0.046875,0.421875
1630067124406,-0.90625,0.046875,0.421875
1630067124437,-0.90625,0.046875,0.4375
1630067124468,-0.90625,0.0625,0.4375
1630067124500,-0.90625,0.046875,0.421875
1630067124531,-0.90625,0.046875,0.4375
1630067124562,-0.90625,0.046875,0.421875
1630067124593,-0.890625,0.046875,0.421875
1630067124625,-0.890625,0.046875,0.421875
1630067124656,-0.90625,0.046875,0.421875
1630067124687,-0.90625,0.046875,0.421875
1630067124718,-0.890625,0.046875,0.4375
1630067124750,-0.90625,0.046875,0.421875
1630067124781,-0.90625,0.046875,0.421875
1630067124812,-0.90625,0.046875,0.421875
1630067124843,-0.90625,0.046875,0.421875
1630067124875,-0.90625,0.046875,0.4375
1630067124906,-0.90625,0.046875,0.421875
1630067124937,-0.90625,0.046875,0.421875
1630067124968,-0.90625,0.046875,0.421875
1630067125000,-0.90625,0.046875,0.4375
1630067125031,-0.90625,0.0625,0.421875
1630067125062,-0.90625,0.046875,0.40625
1630067125093,-0.90625,0.046875,0.40625
1630067125125,-0.90625,0.046875,0.40625
1630067125156,-0.90625,0.046875,0.40625
1630067125187,-0.90625,0.046875,0.40625
1630067125218,-0.90625,0.046875,0.40625
1630067125250,-0.90625,0.046875,0.421875
1630067125281,-0.90625,0.046875,0.421875
1630067125312,-0.90625,0.046875,0.421875
1630067125343,-0.90625,0.046875,0.40625
1630067125375,-0.90625,0.046875,0.40625
1630067125406,-0.90625,0.046875,0.40625
1630067125437,-0.90625,0.046875,0.40625
1630067125468,-0.90625,0.046875,0.40625
1630067125500,-0.90625,0.046875,0.421875
1630067125531,-0.90625,0.046875,0.421875
1630067125562,-0.90625,0.0625,0.40625
1630067125593,-0.90625,0.046875,0.421875
1630067125625,-0.90625,0.0625,0.40625
1630067125656,-0.90625,0.0625,0.421875
1630067125687,-0.90625,0.046875,0.421875
1630067125718,-0.90625,0.046875,0.40625
1630067125750,-0.90625,0.0625,0.421875
1630067125781,-0.90625,0.0625,0.421875
1630067125812,-0.90625,0.046875,0.421875
1630067125843,-0.90625,0.0625,0.4375
1630067125875,-0.90625,0.046875,0.421875
1630067125906,-0.90625,0.0625,0.421875
1630067125937,-0.890625,0.046875,0.4375
1630067125968,-0.890625,0.0625,0.4375
1630067126000,-0.890625,0.0625,0.4375
1630067126031,-0.90625,0.0625,0.4375
1630067126062,-0.890625,0.0625,0.4375
1630067126093,-0.890625,0.0625,0.4375
1630067126125,-0.890625,0.0625,0.4375
1630067126156,-0.890625,0.0625,0.4375
1630067126187,-0.890625,0.0625,0.4375
1630067126218,-0.890625,0.0625,0.4375
1630067126250,-0.890625,0.0625,0.4375
1630067126281,-0.890625,0.0625,0.4375
1630067126312,-0.890625,0.0625,0.4375
1630067126343,-0.890625,0.0625,0.4375
1630067126375,-0.890625,0.0625,0.4375
1630067126406,-0.890625,0.0625,0.4375
1630067126437,-0.890625,0.0625,0.4375
1630067126468,-0.90625,0.0625,0.4375
1630067126500,-0.890625,0.0625,0.4375
1630067126531,-0.890625,0.0625,0.421875
1630067126562,-0.890625,0.0625,0.453125
1630067126593,-0.890625,0.0625,0.453125
1630067126625,-0.890625,0.0625,0.4375
1630067126656,-0.890625,0.0625,0.453125
1630067126687,-0.890625,0.0625,0.453125
1630067126718,-0.890625,0.0625,0.453125
1630067126750,-0.890625,0.0625,0.4375
1630067126781,-0.890625,0.0625,0.453125
1630067126812,-0.890625,0.0625,0.453125
1630067126843,-0.890625,0.0625,0.453125
1630067126875,-0.890625,0.0625,0.453125
1630067126906,-0.890625,0.0625,0.453125
1630067126937,-0.890625,0.0625,0.453125
1630067126968,-0.890625,0.0625,0.4375
1630067127000,-0.890625,0.0625,0.453125
1630067127031,-0.890625,0.0625,0.453125
1630067127062,-0.890625,0.0625,0.4375
1630067127093,-0.890625,0.0625,0.4375
1630067127125,-0.890625,0.0625,0.453125
1630067127156,-0.890625,0.0625,0.4375
1630067127187,-0.890625,0.0625,0.4375
1630067127218,-0.890625,0.0625,0.4375
1630067127250,-0.890625,0.0625,0.453125
1630067127281,-0.890625,0.0625,0.4375
1630067127312,-0.890625,0.0625,0.4375
1630067127343,-0.890625,0.0625,0.4375
1630067127375,-0.890625,0.0625,0.453125
1630067127406,-0.890625,0.0625,0.4375
1630067127437,-0.890625,0.0625,0.453125
1630067127468,-0.890625,0.0625,0.453125
1630067127500,-0.890625,0.0625,0.453125
1630067127531,-0.890625,0.0625,0.4375
1630067127562,-0.890625,0.0625,0.4375
1630067127593,-0.890625,0.0625,0.453125
1630067127625,-0.890625,0.0625,0.4375
1630067127656,-0.890625,0.0625,0.453125
1630067127687,-0.890625,0.0625,0.453125
1630067127718,-0.890625,0.0625,0.453125
1630067127750,-0.890625,0.0625,0.453125
1630067127781,-0.890625,0.0625,0.453125
1630067127812,-0.890625,0.0625,0.453125
1630067127843,-0.890625,0.0625,0.453125
1630067127875,-0.890625,0.0625,0.453125
1630067127906,-0.890625,0.0625,0.4375
1630067127937,-0.890625,0.0625,0.453125
1630067127968,-0.890625,0.0625,0.453125
1630067128000,-0.890625,0.0625,0.453125
1630067128031,-0.890625,0.0625,0.453125
1630067128062,-0.890625,0.0625,0.453125
1630067128093,-0.890625,0.0625,0.4375
1630067128125,-0.890625,0.0625,0.453125
1630067128156,-0.890625,0.0625,0.453125
1630067128187,-0.890625,0.0625,0.4375
1630067128218,-0.890625,0.0625,0.453125
1630067128250,-0.890625,0.0625,0.453125
1630067128281,-0.890625,0.0625,0.453125
1630067128312,-0.890625,0.0625,0.453125
1630067128343,-0.890625,0.046875,0.453125
1630067128375,-0.890625,0.046875,0.453125
1630067128406,-0.890625,0.046875,0.453125
1630067128437,-0.890625,0.0625,0.453125
1630067128468,-0.890625,0.046875,0.453125
1630067128500,-0.890625,0.046875,0.453125
1630067128531,-0.890625,0.0625,0.46875
1630067128562,-0.890625,0.046875,0.453125
1630067128593,-0.890625,0.0625,0.453125
1630067128625,-0.890625,0.0625,0.453125
1630067128656,-0.890625,0.046875,0.453125
1630067128687,-0.890625,0.0625,0.453125
1630067128718,-0.890625,0.0625,0.453125
1630067128750,-0.890625,0.0625,0.453125
1630067128781,-0.890625,0.0625,0.453125
1630067128812,-0.890625,0.046875,0.453125
1630067128843,-0.890625,0.0625,0.453125
1630067128875,-0.890625,0.0625,0.46875
1630067128906,-0.890625,0.0625,0.453125
1630067128937,-0.890625,0.046875,0.453125
1630067128968,-0.890625,0.046875,0.453125
1630067129000,-0.890625,0.046875,0.453125
1630067129031,-0.890625,0.046875,0.453125
1630067129062,-0.890625,0.0625,0.453125
1630067129093,-0.890625,0.046875,0.453125
1630067129125,-0.890625,0.046875,0.453125
1630067129156,-0.890625,0.0625,0.453125
1630067129187,-0.890625,0.046875,0.453125
1630067129218,-0.890625,0.046875,0.453125
1630067129250,-0.890625,0.046875,0.453125
1630067129281,-0.890625,0.046875,0.453125
1630067129312,-0.890625,0.046875,0.4375
1630067129343,-0.890625,0.0625,0.4375
1630067129375,-0.890625,0.046875,0.453125
1630067129406,-0.890625,0.046875,0.453125
1630067129437,-0.890625,0.046875,0.453125
1630067129468,-0.890625,0.046875,0.453125
1630067129500,-0.890625,0.0625,0.453125
1630067129531,-0.890625,0.046875,0.453125
1630067129562,-0.890625,0.046875,0.453125
1630067129593,-0.890625,0.046875,0.4375
1630067129625,-0.90625,0.046875,0.4375
1630067129656,-0.890625,0.0625,0.4375
1630067129687,-0.890625,0.0625,0.421875
1630067129718,-0.90625,0.0625,0.4375
1630067129750,-0.90625,0.0625,0.453125
1630067129781,-0.890625,0.0625,0.4375
1630067129812,-0.890625,0.0625,0.4375
1630067129843,-0.890625,0.0625,0.4375
1630067129875,-0.890625,0.0625,0.4375
1630067129906,-0.90625,0.0625,0.4375
1630067129937,-0.90625,0.0625,0.4375
1630067129968,-0.890625,0.0625,0.4375
1630067130000,-0.890625,0.0625,0.4375
1630067130031,-0.890625,0.0625,0.4375
1630067130062,-0.90625,0.0625,0.4375
1630067130093,-0.890625,0.0625,0.4375
1630067130125,-0.890625,0.0625,0.4375
1630067130156,-0.890625,0.0625,0.4375
1630067130187,-0.90625,0.0625,0.421875
1630067130218,-0.90625,0.0625,0.40625
1630067130250,-0.90625,0.0625,0.40625
1630067130281,-0.90625,0.0625,0.421875
1630067130312,-0.90625,0.078125,0.421875
1630067130343,-0.90625,0.078125,0.40625
1630067130375,-0.90625,0.0625,0.40625
1630067130406,-0.90625,0.0625,0.421875
1630067130437,-0.90625,0.0625,0.421875
1630067130468,-0.90625,0.078125,0.40625
1630067130500,-0.90625,0.0625,0.421875
1630067130531,-0.90625,0.0625,0.40625
1630067130562,-0.90625,0.0625,0.40625
1630067130593,-0.90625,0.0625,0.421875
1630067130625,-0.90625,0.0625,0.421875
1630067130656,-0.90625,0.0625,0.421875
1630067130687,-0.921875,0.0625,0.40625
1630067130718,-0.90625,0.0625,0.40625
1630067130750,-0.921875,0.0625,0.40625
1630067130781,-0.90625,0.0625,0.421875
1630067130812,-0.90625,0.0625,0.40625
1630067130843,-0.90625,0.0625,0.40625
1630067130875,-0.90625,0.0625,0.421875
1630067130906,-0.90625,0.0625,0.421875
1630067130937,-0.90625,0.0625,0.40625
1630067130968,-0.90625,0.0625,0.40625
1630067131000,-0.90625,0.0625,0.421875
1630067131031,-0.90625,0.0625,0.421875
1630067131062,-0.90625,0.0625,0.40625
1630067131093,-0.90625,0.0625,0.40625
1630067131125,-0.90625,0.0625,0.421875
1630067131156,-0.90625,0.0625,0.421875
1630067131187,-0.90625,0.0625,0.421875
1630067131218,-0.90625,0.0625,0.40625
1630067131250,-0.90625,0.0625,0.421875
1630067131281,-0.90625,0.0625,0.40625
1630067131312,-0.90625,0.0625,0.421875
1630067131343,-0.90625,0.0625,0.421875
1630067131375,-0.90625,0.0625,0.40625
1630067131406,-0.90625,0.0625,0.421875
1630067131437,-0.90625,0.0625,0.4375
1630067131468,-0.90625,0.0625,0.421875
1630067131500,-0.890625,0.0625,0.421875
1630067131531,-0.90625,0.0625,0.421875
1630067131562,-0.90625,0.0625,0.421875
1630067131593,-0.890625,0.046875,0.40625
1630067131625,-0.90625,0.0625,0.421875
1630067131656,-0.90625,0.046875,0.421875
1630067131687,-0.890625,0.0625,0.4375
1630067131718,-0.90625,0.0625,0.4375
1630067131750,-0.890625,0.0625,0.453125
1630067131781,-0.90625,0.0625,0.4375
1630067131812,-0.890625,0.0625,0.4375
1630067131843,-0.875,0.046875,0.484375
1630067131875,-0.875,0.0625,0.484375
1630067131906,-0.875,0.0625,0.484375
1630067131937,-0.875,0.0625,0.46875
1630067131968,-0.875,0.0625,0.484375
1630067132000,-0.875,0.0625,0.484375
1630067132031,-0.875,0.0625,0.484375
1630067132062,-0.875,0.0625,0.46875
1630067132093,-0.875,0.0625,0.484375
1630067132125,-0.875,0.0625,0.484375
1630067132156,-0.875,0.0625,0.484375
1630067132187,-0.875,0.0625,0.484375
1630067132218,-0.875,0.0625,0.484375
1630067132250,-0.875,0.0625,0.46875
1630067132281,-0.875,0.0625,0.484375
1630067132312,-0.875,0.0625,0.484375
1630067132343,-0.875,0.0625,0.46875
1630067132375,-0.875,0.0625,0.484375
1630067132406,-0.875,0.0625,0.484375
1630067132437,-0.875,0.0625,0.484375
1630067132468,-0.875,0.0625,0.484375
1630067132500,-0.875,0.0625,0.484375
1630067132531,-0.875,0.046875,0.46875
1630067132562,-0.875,0.0625,0.46875
1630067132593,-0.875,0.046875,0.46875
1630067132625,-0.875,0.0625,0.484375
1630067132656,-0.875,0.0625,0.46875
1630067132687,-0.875,0.0625,0.46875
1630067132718,-0.875,0.046875,0.46875
1630067132750,-0.875,0.0625,0.46875
1630067132781,-0.875,0.046875,0.484375
1630067132812,-0.875,0.046875,0.46875
1630067132843,-0.875,0.046875,0.46875
1630067132875,-0.875,0.046875,0.46875
1630067132906,-0.875,0.046875,0.46875
1630067132937,-0.875,0.046875,0.484375
1630067132968,-0.875,0.0625,0.484375
1630067133000,-0.875,0.0625,0.484375
1630067133031,-0.875,0.046875,0.484375
1630067133062,-0.875,0.046875,0.46875
1630067133093,-0.875,0.046875,0.453125
1630067133125,-0.890625,0.046875,0.453125
1630067133156,-0.890625,0.046875,0.453125
1630067133187,-0.890625,0.046875,0.453125
1630067133218,-0.890625,0.046875,0.453125
1630067133250,-0.890625,0.046875,0.4375
1630067133281,-0.90625,0.046875,0.421875
1630067133312,-0.890625,0.046875,0.4375
1630067133343,-0.890625,0.046875,0.4375
1630067133375,-0.90625,0.0625,0.40625
1630067133406,-0.90625,0.0625,0.421875
1630067133437,-0.90625,0.046875,0.4375
1630067133468,-0.90625,0.0625,0.453125
1630067133500,-0.890625,0.0625,0.4375
1630067133531,-0.890625,0.0625,0.453125
1630067133562,-0.90625,0.0625,0.4375
1630067133593,-0.890625,0.0625,0.4375
1630067133625,-0.890625,0.0625,0.4375
1630067133656,-0.890625,0.0625,0.4375
1630067133687,-0.890625,0.0625,0.4375
1630067133718,-0.890625,0.0625,0.4375
1630067133750,-0.90625,0.0625,0.4375
1630067133781,-0.890625,0.0625,0.4375
1630067133812,-0.890625,0.0625,0.4375
1630067133843,-0.890625,0.0625,0.4375
1630067133875,-0.90625,0.0625,0.4375
1630067133906,-0.90625,0.0625,0.4375
1630067133937,-0.90625,0.0625,0.4375
1630067133968,-0.90625,0.0625,0.4375
1630067134000,-0.890625,0.0625,0.4375
1630067134031,-0.890625,0.0625,0.4375
1630067134062,-0.90625,0.0625,0.4375
1630067134093,-0.921875,0.0625,0.40625
1630067134125,-0.90625,0.0625,0.40625
1630067134156,-0.890625,0.0625,0.421875
1630067134187,-0.90625,0.0625,0.40625
1630067134218,-0.90625,0.0625,0.40625
1630067134250,-0.90625,0.046875,0.421875
1630067134281,-0.90625,0.0625,0.40625
1630067134312,-0.90625,0.0625,0.40625
1630067134343,-0.90625,0.0625,0.40625
1630067134375,-0.921875,0.046875,0.40625
1630067134406,-0.921875,0.0625,0.40625
1630067134437,-0.90625,0.0625,0.40625
1630067134468,-0.921875,0.0625,0.390625
1630067134500,-0.921875,0.0625,0.390625
1630067134531,-0.921875,0.0625,0.390625
1630067134562,-0.921875,0.0625,0.390625
1630067134593,-0.921875,0.0625,0.390625
1630067134625,-0.921875,0.0625,0.390625
1630067134656,-0.921875,0.046875,0.390625
1630067134687,-0.921875,0.046875,0.40625
1630067134718,-0.921875,0.046875,0.390625
1630067134750,-0.921875,0.046875,0.390625
1630067134781,-0.90625,0.0625,0.375
1630067134812,-0.921875,0.046875,0.375
1630067134843,-0.921875,0.046875,0.375
1630067134875,-0.921875,0.046875,0.390625
1630067134906,-0.921875,0.046875,0.390625
1630067134937,-0.921875,0.046875,0.390625
1630067134968,-0.921875,0.0625,0.390625
1630067135000,-0.921875,0.0625,0.390625
1630067135031,-0.921875,0.046875,0.390625
1630067135062,-0.921875,0.046875,0.390625
1630067135093,-0.921875,0.046875,0.390625
1630067135125,-0.921875,0.0625,0.390625
1630067135156,-0.90625,0.0625,0.390625
1630067135187,-0.921875,0.0625,0.390625
1630067135218,-0.921875,0.046875,0.390625
1630067135250,-0.921875,0.046875,0.390625
1630067135281,-0.90625,0.046875,0.390625
1630067135312,-0.921875,0.046875,0.390625
1630067135343,-0.921875,0.046875,0.390625
1630067135375,-0.921875,0.046875,0.390625
1630067135406,-0.921875,0.046875,0.375
1630067135437,-0.921875,0.046875,0.390625
1630067135468,-0.921875,0.046875,0.390625
1630067135500,-0.921875,0.046875,0.390625
1630067135531,-0.921875,0.046875,0.390625
1630067135562,-0.921875,0.046875,0.390625
1630067135593,-0.921875,0.046875,0.390625
1630067135625,-0.921875,0.046875,0.390625
1630067135656,-0.921875,0.046875,0.390625
1630067135687,-0.921875,0.046875,0.390625
1630067135718,-0.921875,0.046875,0.390625
1630067135750,-0.921875,0.046875,0.390625
1630067135781,-0.921875,0.046875,0.390625
1630067135812,-0.921875,0.046875,0.375
1630067135843,-0.921875,0.046875,0.375
1630067135875,-0.921875,0.0625,0.375
1630067135906,-0.921875,0.046875,0.390625
1630067135937,-0.921875,0.046875,0.390625
1630067135968,-0.921875,0.046875,0.390625
1630067136000,-0.921875,0.046875,0.390625
1630067136031,-0.90625,0.046875,0.390625
1630067136062,-0.921875,0.046875,0.390625
1630067136093,-0.921875,0.0625,0.390625
1630067136125,-0.921875,0.046875,0.390625
1630067136156,-0.921875,0.0625,0.390625
1630067136187,-0.921875,0.046875,0.390625
1630067136218,-0.921875,0.046875,0.390625
1630067136250,-0.921875,0.046875,0.390625
1630067136281,-0.921875,0.046875,0.390625
1630067136312,-0.921875,0.046875,0.390625
1630067136343,-0.921875,0.046875,0.390625
1630067136375,-0.921875,0.046875,0.390625
1630067136406,-0.921875,0.046875,0.390625
1630067136437,-0.921875,0.046875,0.390625
1630067136468,-0.90625,0.046875,0.390625
1630067136500,-0.921875,0.0625,0.390625
1630067136531,-0.921875,0.046875,0.375
1630067136562,-0.921875,0.0625,0.375
1630067136593,-0.90625,0.0625,0.375
1630067136625,-0.921875,0.0625,0.390625
1630067136656,-0.921875,0.046875,0.390625
1630067136687,-0.921875,0.046875,0.390625
1630067136718,-0.921875,0.046875,0.375
1630067136750,-0.921875,0.0625,0.390625
1630067136781,-0.921875,0.0625,0.390625
1630067136812,-0.921875,0.0625,0.390625
1630067136843,-0.90625,0.0625,0.390625
1630067136875,-0.921875,0.0625,0.375
1630067136906,-0.921875,0.0625,0.375
1630067136937,-0.921875,0.0625,0.390625
1630067136968,-0.921875,0.046875,0.375
1630067137000,-0.921875,0.046875,0.375
1630067137031,-0.90625,0.0625,0.390625
1630067137062,-0.921875,0.0625,0.375
1630067137093,-0.9375,0.046875,0.359375
1630067137125,-0.921875,0.046875,0.375
1630067137156,-0.921875,0.0625,0.375
1630067137187,-0.9375,0.0625,0.375
1630067137218,-0.9375,0.0625,0.359375
1630067137250,-0.921875,0.0625,0.359375
1630067137281,-0.9375,0.0625,0.34375
1630067137312,-0.9375,0.0625,0.34375
1630067137343,-0.921875,0.0625,0.359375
1630067137375,-0.9375,0.0625,0.34375
1630067137406,-0.9375,0.046875,0.34375
1630067137437,-0.9375,0.0625,0.3125
1630067137468,-0.9375,0.046875,0.34375
1630067137500,-0.921875,0.0625,0.359375
1630067137531,-0.9375,0.0625,0.34375
1630067137562,-0.9375,0.0625,0.34375
1630067137593,-0.9375,0.0625,0.34375
1630067137625,-0.9375,0.0625,0.34375
1630067137656,-0.9375,0.0625,0.328125
1630067137687,-0.953125,0.0625,0.328125
1630067137718,-0.9375,0.0625,0.328125
1630067137750,-0.9375,0.046875,0.328125
1630067137781,-0.9375,0.0625,0.328125
1630067137812,-0.9375,0.046875,0.328125
1630067137843,-0.953125,0.0625,0.328125
1630067137875,-0.953125,0.0625,0.328125
1630067137906,-0.9375,0.046875,0.328125
1630067137937,-0.9375,0.046875,0.328125
1630067137968,-0.9375,0.046875,0.328125
1630067138000,-0.953125,0.046875,0.296875
1630067138031,-0.953125,0.046875,0.3125
1630067138062,-0.9375,0.046875,0.3125
1630067138093,-0.953125,0.046875,0.3125
1630067138125,-0.953125,0.046875,0.3125
1630067138156,-0.9375,0.046875,0.3125
1630067138187,-0.9375,0.046875,0.3125
1630067138218,-0.953125,0.046875,0.296875
1630067138250,-0.9375,0.046875,0.3125
1630067138281,-0.9375,0.046875,0.3125
1630067138312,-0.953125,0.046875,0.296875
1630067138343,-0.953125,0.0625,0.296875
1630067138375,-0.953125,0.046875,0.296875
1630067138406,-0.953125,0.046875,0.28125
1630067138437,-0.96875,0.046875,0.28125
1630067138468,-0.953125,0.0625,0.28125
1630067138500,-0.96875,0.046875,0.265625
1630067138531,-0.953125,0.046875,0.28125
1630067138562,-0.96875,0.046875,0.265625
1630067138593,-0.96875,0.046875,0.25
1630067138625,-0.96875,0.046875,0.25
1630067138656,-0.96875,0.046875,0.25
1630067138687,-0.96875,0.046875,0.25
1630067138718,-0.96875,0.046875,0.265625
1630067138750,-0.96875,0.046875,0.265625
1630067138781,-0.96875,0.046875,0.265625
1630067138812,-0.96875,0.046875,0.265625
1630067138843,-0.96875,0.046875,0.25
1630067138875,-0.953125,0.046875,0.265625
1630067138906,-0.953125,0.046875,0.265625
1630067138937,-0.96875,0.046875,0.25
1630067138968,-0.984375,0.046875,0.25
1630067139000,-0.953125,0.046875,0.25
1630067139031,-0.953125,0.046875,0.265625
1630067139062,-0.96875,0.046875,0.265625
1630067139093,-0.984375,0.0625,0.265625
1630067139125,-0.9375,0.0625,0.28125
1630067139156,-0.96875,0.0625,0.265625
1630067139187,-0.96875,0.0625,0.265625
1630067139218,-0.96875,0.0625,0.25
1630067139250,-0.953125,0.046875,0.265625
1630067139281,-0.96875,0.046875,0.28125
1630067139312,-0.96875,0.046875,0.28125
1630067139343,-0.96875,0.0625,0.28125
1630067139375,-0.9375,0.046875,0.3125
1630067139406,-0.953125,0.046875,0.296875
1630067139437,-0.953125,0.046875,0.28125
1630067139468,-0.96875,0.046875,0.265625
1630067139500,-0.953125,0.046875,0.265625
1630067139531,-0.953125,0.046875,0.28125
1630067139562,-0.953125,0.046875,0.28125
1630067139593,-0.953125,0.046875,0.28125
1630067139625,-0.953125,0.046875,0.28125
1630067139656,-0.953125,0.046875,0.28125
1630067139687,-0.96875,0.046875,0.28125
1630067139718,-0.953125,0.046875,0.296875
1630067139750,-0.953125,0.046875,0.296875
1630067139781,-0.953125,0.046875,0.296875
1630067139812,-0.953125,0.046875,0.296875
1630067139843,-0.953125,0.046875,0.296875
1630067139875,-0.953125,0.0625,0.296875
1630067139906,-0.953125,0.046875,0.296875
1630067139937,-0.953125,0.046875,0.296875
1630067139968,-0.953125,0.046875,0.296875
1630067140000,-0.953125,0.046875,0.296875
1630067140031,-0.953125,0.046875,0.28125
1630067140062,-0.953125,0.046875,0.296875
1630067140093,-0.953125,0.046875,0.296875
1630067140125,-0.953125,0.046875,0.28125
1630067140156,-0.953125,0.046875,0.28125
1630067140187,-0.953125,0.046875,0.296875
1630067140218,-0.953125,0.0625,0.296875
1630067140250,-0.953125,0.046875,0.296875
1630067140281,-0.953125,0.046875,0.296875
1630067140312,-0.953125,0.046875,0.296875
1630067140343,-0.953125,0.046875,0.28125
1630067140375,-0.953125,0.0625,0.296875
1630067140406,-0.953125,0.0625,0.28125
1630067140437,-0.96875,0.0625,0.296875
1630067140468,-0.96875,0.046875,0.28125
1630067140500,-0.96875,0.0625,0.28125
1630067140531,-0.9375,0.0625,0.296875
1630067140562,-0.9375,0.0625,0.3125
1630067140593,-0.953125,0.0625,0.328125
1630067140625,-0.953125,0.0625,0.328125
1630067140656,-0.953125,0.046875,0.328125
1630067140687,-0.9375,0.0625,0.328125
1630067140718,-0.9375,0.0625,0.328125
1630067140750,-0.9375,0.0625,0.3125
1630067140781,-0.953125,0.0625,0.3125
1630067140812,-0.9375,0.0625,0.3125
1630067140843,-0.9375,0.0625,0.3125
1630067140875,-0.9375,0.0625,0.328125
1630067140906,-0.953125,0.0625,0.3125
1630067140937,-0.953125,0.0625,0.328125
1630067140968,-0.9375,0.0625,0.328125
1630067141000,-0.9375,0.0625,0.328125
1630067141031,-0.953125,0.0625,0.328125
1630067141062,-0.9375,0.0625,0.328125
1630067141093,-0.9375,0.0625,0.328125
1630067141125,-0.9375,0.0625,0.328125
1630067141156,-0.9375,0.0625,0.328125
1630067141187,-0.9375,0.0625,0.328125
1630067141218,-0.953125,0.0625,0.3125
1630067141250,-0.9375,0.0625,0.328125
1630067141281,-0.9375,0.0625,0.328125
1630067141312,-0.9375,0.0625,0.34375
1630067141343,-0.921875,0.0625,0.375
1630067141375,-0.921875,0.0625,0.375
1630067141406,-0.921875,0.0625,0.375
1630067141437,-0.921875,0.0625,0.375
1630067141468,-0.921875,0.0625,0.359375
1630067141500,-0.921875,0.0625,0.359375
1630067141531,-0.921875,0.078125,0.359375
1630067141562,-0.921875,0.0625,0.359375
1630067141593,-0.921875,0.0625,0.375
1630067141625,-0.921875,0.0625,0.375
1630067141656,-0.921875,0.0625,0.375
1630067141687,-0.921875,0.0625,0.375
1630067141718,-0.921875,0.0625,0.375
1630067141750,-0.921875,0.0625,0.375
1630067141781,-0.921875,0.0625,0.375
1630067141812,-0.921875,0.0625,0.375
1630067141843,-0.921875,0.0625,0.359375
1630067141875,-0.921875,0.0625,0.375
1630067141906,-0.921875,0.0625,0.359375
1630067141937,-0.921875,0.0625,0.375
1630067141968,-0.9375,0.0625,0.359375
1630067142000,-0.890625,0.0625,0.390625
1630067142031,-0.921875,0.0625,0.375
1630067142062,-0.921875,0.0625,0.375
1630067142093,-0.921875,0.0625,0.390625
1630067142125,-0.921875,0.078125,0.390625
1630067142156,-0.921875,0.078125,0.390625
1630067142187,-0.921875,0.078125,0.375
1630067142218,-0.921875,0.078125,0.390625
1630067142250,-0.90625,0.078125,0.390625
1630067142281,-0.921875,0.0625,0.375
1630067142312,-0.90625,0.078125,0.390625
1630067142343,-0.921875,0.078125,0.390625
1630067142375,-0.921875,0.078125,0.375
1630067142406,-0.921875,0.0625,0.375
1630067142437,-0.921875,0.0625,0.375
1630067142468,-0.921875,0.0625,0.359375
1630067142500,-0.921875,0.0625,0.359375
1630067142531,-0.921875,0.0625,0.390625
1630067142562,-0.921875,0.0625,0.375
1630067142593,-0.921875,0.0625,0.359375
1630067142625,-0.921875,0.0625,0.359375
1630067142656,-0.921875,0.0625,0.375
1630067142687,-0.921875,0.0625,0.375
1630067142718,-0.921875,0.0625,0.359375
1630067142750,-0.9375,0.0625,0.359375
1630067142781,-0.921875,0.0625,0.375
1630067142812,-0.921875,0.0625,0.375
1630067142843,-0.921875,0.0625,0.375
1630067142875,-0.921875,0.0625,0.375
1630067142906,-0.921875,0.0625,0.359375
1630067142937,-0.9375,0.0625,0.375
1630067142968,-0.921875,0.0625,0.375
1630067143000,-0.921875,0.0625,0.359375
1630067143031,-0.921875,0.0625,0.375
1630067143062,-0.921875,0.0625,0.375
1630067143093,-0.921875,0.0625,0.359375
1630067143125,-0.921875,0.0625,0.359375
1630067143156,-0.921875,0.0625,0.359375
1630067143187,-0.921875,0.0625,0.359375
1630067143218,-0.921875,0.0625,0.375
1630067143250,-0.921875,0.0625,0.359375
1630067143281,-0.921875,0.0625,0.375
1630067143312,-0.9375,0.0625,0.375
1630067143343,-0.921875,0.0625,0.359375
1630067143375,-0.921875,0.0625,0.359375
1630067143406,-0.921875,0.0625,0.359375
1630067143437,-0.9375,0.0625,0.359375
1630067143468,-0.9375,0.0625,0.359375
1630067143500,-0.921875,0.0625,0.359375
1630067143531,-0.921875,0.0625,0.34375
1630067143562,-0.9375,0.0625,0.34375
1630067143593,-0.9375,0.046875,0.375
1630067143625,-0.9375,0.0625,0.359375
1630067143656,-0.921875,0.0625,0.375
1630067143687,-0.921875,0.0625,0.375
1630067143718,-0.9375,0.0625,0.359375
1630067143750,-0.921875,0.0625,0.359375
1630067143781,-0.921875,0.0625,0.359375
1630067143812,-0.921875,0.0625,0.359375
1630067143843,-0.921875,0.0625,0.359375
1630067143875,-0.921875,0.0625,0.359375
1630067143906,-0.921875,0.078125,0.375
1630067143937,-0.9375,0.0625,0.359375
1630067143968,-0.9375,0.0625,0.359375
1630067144000,-0.9375,0.078125,0.359375
1630067144031,-0.9375,0.0625,0.34375
1630067144062,-0.9375,0.0625,0.34375
1630067144093,-0.9375,0.0625,0.34375
1630067144125,-0.9375,0.078125,0.34375
1630067144156,-0.9375,0.078125,0.34375
1630067144187,-0.9375,0.0625,0.34375
1630067144218,-0.9375,0.0625,0.359375
1630067144250,-0.9375,0.0625,0.359375
1630067144281,-0.9375,0.0625,0.34375
1630067144312,-0.9375,0.0625,0.34375
1630067144343,-0.9375,0.0625,0.34375
1630067144375,-0.9375,0.0625,0.34375
1630067144406,-0.9375,0.0625,0.34375
1630067144437,-0.9375,0.0625,0.34375
1630067144468,-0.9375,0.0625,0.359375
1630067144500,-0.921875,0.0625,0.359375
1630067144531,-0.9375,0.0625,0.34375
1630067144562,-0.9375,0.0625,0.359375
1630067144593,-0.9375,0.0625,0.34375
1630067144625,-0.9375,0.0625,0.34375
1630067144656,-0.9375,0.0625,0.34375
1630067144687,-0.9375,0.0625,0.34375
1630067144718,-0.9375,0.0625,0.34375
1630067144750,-0.9375,0.0625,0.34375
1630067144781,-0.9375,0.0625,0.34375
1630067144812,-0.921875,0.0625,0.34375
1630067144843,-0.9375,0.0625,0.34375
1630067144875,-0.9375,0.0625,0.34375
1630067144906,-0.9375,0.0625,0.34375
1630067144937,-0.9375,0.0625,0.34375
1630067144968,-0.9375,0.0625,0.34375
1630067145000,-0.9375,0.0625,0.34375
1630067145031,-0.9375,0.0625,0.359375
1630067145062,-0.921875,0.0625,0.359375
1630067145093,-0.9375,0.0625,0.34375
1630067145125,-0.9375,0.0625,0.34375
1630067145156,-0.921875,0.0625,0.359375
1630067145187,-0.9375,0.0625,0.34375
1630067145218,-0.9375,0.0625,0.34375
1630067145250,-0.921875,0.0625,0.359375
1630067145281,-0.9375,0.0625,0.359375
1630067145312,-0.9375,0.0625,0.359375
1630067145343,-0.921875,0.0625,0.359375
1630067145375,-0.9375,0.0625,0.34375
1630067145406,-0.9375,0.0625,0.359375
1630067145437,-0.921875,0.0625,0.359375
1630067145468,-0.9375,0.0625,0.359375
1630067145500,-0.921875,0.0625,0.359375
1630067145531,-0.921875,0.0625,0.359375
1630067145562,-0.921875,0.0625,0.375
1630067145593,-0.921875,0.0625,0.375
1630067145625,-0.921875,0.0625,0.375
1630067145656,-0.921875,0.0625,0.375
1630067145687,-0.921875,0.0625,0.375
1630067145718,-0.921875,0.0625,0.375
1630067145750,-0.921875,0.0625,0.375
1630067145781,-0.921875,0.0625,0.359375
1630067145812,-0.921875,0.078125,0.375
1630067145843,-0.921875,0.0625,0.375
1630067145875,-0.9375,0.0625,0.375
1630067145906,-0.921875,0.0625,0.375
1630067145937,-0.921875,0.0625,0.375
1630067145968,-0.921875,0.0625,0.375
1630067146000,-0.921875,0.0625,0.375
1630067146031,-0.921875,0.078125,0.375
1630067146062,-0.921875,0.078125,0.375
1630067146093,-0.921875,0.0625,0.375
1630067146125,-0.921875,0.0625,0.375
1630067146156,-0.921875,0.0625,0.375
1630067146187,-0.921875,0.0625,0.375
1630067146218,-0.921875,0.078125,0.375
1630067146250,-0.921875,0.0625,0.375
1630067146281,-0.921875,0.078125,0.375
1630067146312,-0.921875,0.0625,0.375
1630067146343,-0.921875,0.078125,0.375
1630067146375,-0.921875,0.078125,0.375
1630067146406,-0.921875,0.078125,0.375
1630067146437,-0.921875,0.078125,0.359375
1630067146468,-0.921875,0.078125,0.375
1630067146500,-0.921875,0.078125,0.375
1630067146531,-0.9375,0.078125,0.359375
1630067146562,-0.921875,0.078125,0.375
1630067146593,-0.921875,0.078125,0.375
1630067146625,-0.921875,0.078125,0.375
1630067146656,-0.921875,0.078125,0.359375
1630067146687,-0.921875,0.078125,0.359375
1630067146718,-0.921875,0.078125,0.359375
1630067146750,-0.9375,0.078125,0.375
1630067146781,-0.921875,0.078125,0.375
1630067146812,-0.921875,0.09375,0.375
1630067146843,-0.921875,0.078125,0.34375
1630067146875,-0.9375,0.078125,0.34375
1630067146906,-0.921875,0.078125,0.359375
1630067146937,-0.921875,0.078125,0.359375
1630067146968,-0.921875,0.078125,0.359375
1630067147000,-0.921875,0.078125,0.359375
1630067147031,-0.921875,0.078125,0.375
1630067147062,-0.921875,0.078125,0.375
1630067147093,-0.921875,0.078125,0.359375
1630067147125,-0.921875,0.078125,0.359375
1630067147156,-0.9375,0.078125,0.359375
1630067147187,-0.921875,0.078125,0.359375
1630067147218,-0.921875,0.078125,0.359375
1630067147250,-0.921875,0.078125,0.359375
1630067147281,-0.921875,0.078125,0.359375
1630067147312,-0.921875,0.078125,0.375
1630067147343,-0.921875,0.078125,0.359375
1630067147375,-0.921875,0.078125,0.375
1630067147406,-0.921875,0.078125,0.359375
1630067147437,-0.921875,0.078125,0.359375
1630067147468,-0.921875,0.078125,0.359375
1630067147500,-0.921875,0.078125,0.359375
1630067147531,-0.921875,0.078125,0.359375
1630067147562,-0.921875,0.078125,0.375
1630067147593,-0.921875,0.078125,0.375
1630067147625,-0.9375,0.078125,0.359375
1630067147656,-0.9375,0.078125,0.359375
1630067147687,-0.921875,0.078125,0.359375
1630067147718,-0.921875,0.078125,0.359375
1630067147750,-0.921875,0.078125,0.359375
1630067147781,-0.921875,0.078125,0.359375
1630067147812,-0.921875,0.078125,0.375
1630067147843,-0.921875,0.078125,0.359375
1630067147875,-0.921875,0.078125,0.359375
1630067147906,-0.921875,0.078125,0.375
1630067147937,-0.921875,0.078125,0.375
1630067147968,-0.921875,0.078125,0.359375
1630067148000,-0.921875,0.078125,0.375
1630067148031,-0.921875,0.078125,0.359375
1630067148062,-0.921875,0.078125,0.375
1630067148093,-0.921875,0.078125,0.375
1630067148125,-0.921875,0.078125,0.375
1630067148156,-0.921875,0.078125,0.375
1630067148187,-0.921875,0.078125,0.375
1630067148218,-0.921875,0.078125,0.375
1630067148250,-0.90625,0.078125,0.375
1630067148281,-0.921875,0.078125,0.375
1630067148312,-0.921875,0.078125,0.375
1630067148343,-0.921875,0.078125,0.375
1630067148375,-0.921875,0.078125,0.375
1630067148406,-0.90625,0.078125,0.375
1630067148437,-0.921875,0.078125,0.390625
1630067148468,-0.921875,0.078125,0.375
1630067148500,-0.921875,0.078125,0.375
1630067148531,-0.921875,0.078125,0.375
1630067148562,-0.921875,0.078125,0.390625
1630067148593,-0.921875,0.078125,0.375
1630067148625,-0.921875,0.078125,0.375
1630067148656,-0.921875,0.078125,0.390625
1630067148687,-0.921875,0.078125,0.375
1630067148718,-0.921875,0.078125,0.390625
1630067148750,-0.921875,0.078125,0.375
1630067148781,-0.921875,0.078125,0.390625
1630067148812,-0.921875,0.0625,0.375
1630067148843,-0.921875,0.0625,0.375
