timestamp,ax,ay,az
1630070094718,0.515625,-0.6875,0.53125
1630070094750,0.515625,-0.6875,0.515625
1630070094781,0.515625,-0.703125,0.515625
1630070094812,0.515625,-0.703125,0.515625
1630070094843,0.5,-0.6875,0.53125
1630070094875,0.515625,-0.6875,0.53125
1630070094906,0.484375,-0.6875,0.515625
1630070094937,0.515625,-0.6875,0.546875
1630070094968,0.515625,-0.6875,0.53125
1630070095000,0.484375,-0.6875,0.515625
1630070095031,0.5,-0.6875,0.546875
1630070095062,0.53125,-0.6875,0.5625
1630070095093,0.53125,-0.671875,0.546875
1630070095125,0.46875,-0.6875,0.546875
1630070095156,0.46875,-0.671875,0.546875
1630070095187,0.546875,-0.6875,0.546875
1630070095218,0.546875,-0.6875,0.53125
1630070095250,0.5,-0.703125,0.515625
1630070095281,0.5625,-0.6875,0.515625
1630070095312,0.546875,-0.671875,0.515625
1630070095343,0.53125,-0.703125,0.515625
1630070095375,0.484375,-0.703125,0.53125
1630070095406,0.484375,-0.6875,0.546875
1630070095437,0.515625,-0.6875,0.53125
1630070095468,0.515625,-0.671875,0.53125
1630070095500,0.515625,-0.671875,0.546875
1630070095531,0.515625,-0.671875,0.546875
1630070095562,0.53125,-0.671875,0.546875
1630070095593,0.515625,-0.671875,0.546875
1630070095625,0.515625,-0.671875,0.546875
1630070095656,0.515625,-0.6875,0.53125
1630070095687,0.515625,-0.6875,0.53125
1630070095718,0.515625,-0.671875,0.546875
1630070095750,0.515625,-0.671875,0.53125
1630070095781,0.515625,-0.6875,0.53125
1630070095812,0.515625,-0.6875,0.53125
1630070095843,0.515625,-0.671875,0.53125
1630070095875,0.515625,-0.671875,0.546875
1630070095906,0.515625,-0.671875,0.546875
1630070095937,0.515625,-0.671875,0.546875
1630070095968,0.515625,-0.671875,0.546875
1630070096000,0.515625,-0.671875,0.546875
1630070096031,0.5,-0.671875,0.546875
1630070096062,0.515625,-0.671875,0.546875
1630070096093,0.515625,-0.6875,0.546875
1630070096125,0.5,-0.671875,0.546875
1630070096156,0.515625,-0.6875,0.53125
1630070096187,0.515625,-0.671875,0.546875
1630070096218,0.515625,-0.6875,0.546875
1630070096250,0.515625,-0.6875,0.546875
1630070096281,0.5,-0.671875,0.546875
1630070096312,0.515625,-0.671875,0.546875
1630070096343,0.5,-0.671875,0.546875
1630070096375,0.5,-0.671875,0.546875
1630070096406,0.5,-0.671875,0.546875
1630070096437,0.515625,-0.6875,0.546875
1630070096468,0.515625,-0.671875,0.546875
1630070096500,0.515625,-0.6875,0.546875
1630070096531,0.5,-0.671875,0.546875
1630070096562,0.5,-0.6875,0.546875
1630070096593,0.5,-0.6875,0.53125
1630070096625,0.515625,-0.6875,0.546875
1630070096656,0.53125,-0.671875,0.546875
1630070096687,0.515625,-0.671875,0.546875
1630070096718,0.515625,-0.671875,0.546875
1630070096750,0.515625,-0.671875,0.546875
1630070096781,0.515625,-0.6875,0.546875
1630070096812,0.515625,-0.671875,0.546875
1630070096843,0.515625,-0.671875,0.546875
1630070096875,0.515625,-0.671875,0.546875
1630070096906,0.515625,-0.671875,0.546875
1630070096937,0.515625,-0.671875,0.53125
1630070096968,0.515625,-0.6875,0.53125
1630070097000,0.515625,-0.671875,0.546875
1630070097031,0.515625,-0.671875,0.53125
1630070097062,0.515625,-0.671875,0.53125
1630070097093,0.515625,-0.671875,0.546875
1630070097125,0.515625,-0.671875,0.546875
1630070097156,0.515625,-0.671875,0.53125
1630070097187,0.515625,-0.671875,0.546875
1630070097218,0.5,-0.671875,0.546875
1630070097250,0.515625,-0.671875,0.53125
1630070097281,0.515625,-0.671875,0.546875
1630070097312,0.515625,-0.671875,0.546875
1630070097343,0.515625,-0.671875,0.53125
1630070097375,0.515625,-0.671875,0.546875
1630070097406,0.515625,-0.6875,0.546875
1630070097437,0.515625,-0.6875,0.546875
1630070097468,0.515625,-0.6875,0.546875
1630070097500,0.515625,-0.671875,0.546875
1630070097531,0.515625,-0.6875,0.546875
1630070097562,0.515625,-0.671875,0.546875
1630070097593,0.515625,-0.6875,0.53125
1630070097625,0.515625,-0.6875,0.53125
1630070097656,0.515625,-0.6875,0.546875
1630070097687,0.5,-0.6875,0.546875
1630070097718,0.5,-0.671875,0.546875
1630070097750,0.5,-0.671875,0.546875
1630070097781,0.5,-0.671875,0.546875
1630070097812,0.5,-0.671875,0.546875
1630070097843,0.5,-0.671875,0.546875
1630070097875,0.5,-0.671875,0.546875
1630070097906,0.5,-0.671875,0.5625
1630070097937,0.5,-0.671875,0.5625
1630070097968,0.5,-0.671875,0.5625
1630070098000,0.484375,-0.671875,0.546875
1630070098031,0.5,-0.671875,0.546875
1630070098062,0.5,-0.6875,0.546875
1630070098093,0.484375,-0.6875,0.546875
1630070098125,0.5,-0.6875,0.546875
1630070098156,0.484375,-0.6875,0.5625
1630070098187,0.484375,-0.6875,0.5625
1630070098218,0.484375,-0.671875,0.5625
1630070098250,0.484375,-0.671875,0.5625
1630070098281,0.484375,-0.671875,0.5625
1630070098312,0.484375,-0.671875,0.5625
1630070098343,0.484375,-0.6875,0.5625
1630070098375,0.484375,-0.671875,0.5625
1630070098406,0.484375,-0.671875,0.5625
1630070098437,0.484375,-0.6875,0.5625
1630070098468,0.46875,-0.6875,0.5625
1630070098500,0.484375,-0.671875,0.5625
1630070098531,0.484375,-0.671875,0.5625
1630070098562,0.484375,-0.671875,0.5625
1630070098593,0.484375,-0.671875,0.5625
1630070098625,0.515625,-0.671875,0.5625
1630070098656,0.515625,-0.671875,0.5625
1630070098687,0.515625,-0.671875,0.546875
1630070098718,0.5,-0.671875,0.578125
1630070098750,0.484375,-0.671875,0.59375
1630070098781,0.46875,-0.671875,0.59375
1630070098812,0.46875,-0.671875,0.578125
1630070098843,0.46875,-0.6875,0.546875
1630070098875,0.5,-0.703125,0.5
1630070098906,0.53125,-0.703125,0.515625
1630070098937,0.5625,-0.6875,0.53125
1630070098968,0.546875,-0.6875,0.53125
1630070099000,0.5,-0.6875,0.5625
1630070099031,0.5,-0.671875,0.59375
1630070099062,0.484375,-0.671875,0.609375
1630070099093,0.5,-0.65625,0.625
1630070099125,0.4375,-0.671875,0.609375
1630070099156,0.4375,-0.703125,0.53125
1630070099187,0.515625,-0.734375,0.46875
1630070099218,0.53125,-0.71875,0.453125
1630070099250,0.5625,-0.75,0.453125
1630070099281,0.578125,-0.75,0.484375
1630070099312,0.578125,-0.6875,0.59375
1630070099343,0.484375,-0.6875,0.65625
1630070099375,0.46875,-0.671875,0.640625
1630070099406,0.328125,-0.671875,0.65625
1630070099437,0.3125,-0.65625,0.703125
1630070099468,0.28125,-0.65625,0.71875
1630070099500,0.296875,-0.609375,0.65625
1630070099531,0.3125,-0.59375,0.65625
1630070099562,0.3125,-0.578125,0.640625
1630070099593,0.3125,-0.609375,0.65625
1630070099625,0.234375,-0.578125,0.609375
1630070099656,0.328125,-0.65625,0.640625
1630070099687,0.375,-0.671875,0.640625
1630070099718,0.359375,-0.671875,0.6875
1630070099750,0.28125,-0.59375,0.734375
1630070099781,0.3125,-0.5625,0.796875
1630070099812,0.359375,-0.5625,0.8125
1630070099843,0.3125,-0.5625,0.75
1630070099875,0.296875,-0.5625,0.703125
1630070099906,0.453125,-0.578125,0.6875
1630070099937,0.46875,-0.59375,0.640625
1630070099968,0.53125,-0.65625,0.734375
1630070100000,0.484375,-0.59375,0.84375
1630070100031,0.375,-0.578125,0.765625
1630070100062,0.515625,-0.5,0.75
1630070100093,0.578125,-0.59375,0.71875
1630070100125,0.609375,-0.46875,0.71875
1630070100156,0.609375,-0.46875,0.703125
1630070100187,0.59375,-0.421875,0.65625
1630070100218,0.59375,-0.34375,0.59375
1630070100250,0.609375,-0.296875,0.578125
1630070100281,0.609375,-0.34375,0.578125
1630070100312,0.65625,-0.421875,0.59375
1630070100343,0.703125,-0.484375,0.609375
1630070100375,0.625,-0.6875,0.625
1630070100406,0.453125,-0.734375,0.625
1630070100437,0.390625,-0.71875,0.71875
1630070100468,0.453125,-0.625,0.859375
1630070100500,0.34375,-0.625,0.890625
1630070100531,0.203125,-0.671875,0.625
1630070100562,0.46875,-0.5625,0.578125
1630070100593,0.515625,-0.4375,0.625
1630070100625,0.25,-0.46875,1.0625
1630070100656,0.046875,-0.46875,1.046875
1630070100687,0.46875,-0.265625,0.828125
1630070100718,0.609375,-0.28125,0.75
1630070100750,0.5625,-0.421875,0.625
1630070100781,0.453125,-0.4375,0.578125
1630070100812,0.5,-0.484375,0.625
1630070100843,0.5,-0.484375,0.671875
1630070100875,0.578125,-0.453125,0.65625
1630070100906,0.71875,-0.4375,0.59375
1630070100937,0.71875,-0.359375,0.6875
1630070100968,0.71875,-0.328125,0.671875
1630070101000,0.65625,-0.3125,0.609375
1630070101031,0.8125,-0.34375,0.578125
1630070101062,0.859375,-0.34375,0.53125
1630070101093,0.890625,-0.375,0.328125
1630070101125,0.875,-0.390625,0.25
1630070101156,0.921875,-0.390625,0.1875
1630070101187,0.9375,-0.359375,0.0625
1630070101218,1.1875,-0.25,0.171875
1630070101250,0.921875,-0.28125,0.328125
1630070101281,0.828125,-0.296875,0.375
1630070101312,0.8125,-0.359375,0.21875
1630070101343,1.0625,-0.203125,0.09375
1630070101375,1.0625,-0.234375,0.09375
1630070101406,1.0625,-0.328125,0.328125
1630070101437,0.9375,-0.265625,0.390625
1630070101468,0.796875,-0.28125,0.5
1630070101500,0.65625,-0.3125,0.46875
1630070101531,0.890625,-0.296875,0.453125
1630070101562,0.578125,-0.421875,0.515625
1630070101593,0.65625,-0.421875,0.59375
1630070101625,0.75,-0.40625,0.515625
1630070101656,0.625,-0.40625,0.65625
1630070101687,0.6875,-0.40625,0.59375
1630070101718,0.984375,-0.390625,0.515625
1630070101750,0.890625,-0.40625,0.5
1630070101781,0.953125,-0.4375,0.484375
1630070101812,0.671875,-0.4375,0.59375
1630070101843,0.578125,-0.4375,0.625
1630070101875,0.5,-0.375,0.625
1630070101906,0.671875,-0.375,0.59375
1630070101937,0.8125,-0.359375,0.578125
1630070101968,0.8125,-0.359375,0.640625
1630070102000,0.671875,-0.34375,0.640625
1630070102031,0.625,-0.359375,0.640625
1630070102062,0.65625,-0.375,0.640625
1630070102093,0.671875,-0.390625,0.640625
1630070102125,0.6875,-0.390625,0.640625
1630070102156,0.671875,-0.390625,0.640625
1630070102187,0.671875,-0.375,0.640625
1630070102218,0.671875,-0.390625,0.640625
1630070102250,0.671875,-0.375,0.640625
1630070102281,0.671875,-0.375,0.640625
1630070102312,0.671875,-0.390625,0.625
1630070102343,0.671875,-0.390625,0.625
1630070102375,0.6875,-0.390625,0.625
1630070102406,0.671875,-0.390625,0.625
1630070102437,0.671875,-0.375,0.640625
1630070102468,0.6875,-0.375,0.640625
1630070102500,0.6875,-0.375,0.625
1630070102531,0.671875,-0.375,0.640625
1630070102562,0.671875,-0.375,0.640625
1630070102593,0.65625,-0.375,0.640625
1630070102625,0.671875,-0.375,0.640625
1630070102656,0.65625,-0.390625,0.640625
1630070102687,0.671875,-0.375,0.625
1630070102718,0.671875,-0.390625,0.625
1630070102750,0.65625,-0.375,0.640625
1630070102781,0.671875,-0.390625,0.640625
1630070102812,0.6875,-0.375,0.640625
1630070102843,0.65625,-0.375,0.625
1630070102875,0.671875,-0.390625,0.640625
1630070102906,0.671875,-0.390625,0.640625
1630070102937,0.671875,-0.375,0.640625
1630070102968,0.671875,-0.390625,0.640625
1630070103000,0.671875,-0.375,0.640625
1630070103031,0.671875,-0.375,0.640625
1630070103062,0.671875,-0.375,0.640625
1630070103093,0.6875,-0.375,0.640625
1630070103125,0.671875,-0.375,0.640625
1630070103156,0.671875,-0.375,0.640625
1630070103187,0.6875,-0.375,0.640625
1630070103218,0.6875,-0.375,0.640625
1630070103250,0.671875,-0.375,0.640625
1630070103281,0.671875,-0.375,0.625
1630070103312,0.671875,-0.375,0.640625
1630070103343,0.671875,-0.375,0.625
1630070103375,0.671875,-0.375,0.640625
1630070103406,0.671875,-0.375,0.640625
1630070103437,0.6875,-0.375,0.640625
1630070103468,0.671875,-0.375,0.640625
1630070103500,0.671875,-0.375,0.640625
1630070103531,0.6875,-0.375,0.640625
1630070103562,0.671875,-0.375,0.640625
1630070103593,0.671875,-0.375,0.640625
1630070103625,0.65625,-0.375,0.625
1630070103656,0.6875,-0.375,0.640625
1630070103687,0.671875,-0.375,0.640625
1630070103718,0.671875,-0.375,0.640625
1630070103750,0.671875,-0.375,0.640625
1630070103781,0.671875,-0.375,0.640625
1630070103812,0.671875,-0.375,0.640625
1630070103843,0.671875,-0.375,0.640625
1630070103875,0.65625,-0.375,0.640625
1630070103906,0.671875,-0.375,0.640625
1630070103937,0.671875,-0.375,0.640625
1630070103968,0.671875,-0.375,0.640625
1630070104000,0.671875,-0.375,0.640625
1630070104031,0.671875,-0.375,0.640625
1630070104062,0.671875,-0.375,0.640625
1630070104093,0.671875,-0.375,0.640625
1630070104125,0.671875,-0.375,0.640625
1630070104156,0.671875,-0.375,0.640625
1630070104187,0.671875,-0.375,0.640625
1630070104218,0.671875,-0.375,0.640625
1630070104250,0.65625,-0.375,0.640625
1630070104281,0.671875,-0.375,0.640625
1630070104312,0.671875,-0.375,0.640625
1630070104343,0.671875,-0.375,0.640625
1630070104375,0.671875,-0.375,0.640625
1630070104406,0.671875,-0.375,0.640625
1630070104437,0.671875,-0.375,0.65625
1630070104468,0.671875,-0.375,0.65625
1630070104500,0.671875,-0.375,0.640625
1630070104531,0.671875,-0.375,0.640625
1630070104562,0.671875,-0.375,0.640625
1630070104593,0.65625,-0.375,0.640625
1630070104625,0.65625,-0.375,0.640625
1630070104656,0.65625,-0.375,0.640625
1630070104687,0.671875,-0.375,0.640625
1630070104718,0.671875,-0.375,0.640625
1630070104750,0.671875,-0.375,0.640625
1630070104781,0.671875,-0.375,0.640625
1630070104812,0.65625,-0.375,0.65625
1630070104843,0.671875,-0.375,0.640625
1630070104875,0.671875,-0.375,0.640625
1630070104906,0.65625,-0.375,0.640625
1630070104937,0.671875,-0.375,0.640625
1630070104968,0.671875,-0.375,0.640625
1630070105000,0.671875,-0.375,0.65625
1630070105031,0.671875,-0.375,0.640625
1630070105062,0.65625,-0.375,0.640625
1630070105093,0.671875,-0.375,0.65625
1630070105125,0.671875,-0.375,0.640625
1630070105156,0.671875,-0.375,0.65625
1630070105187,0.65625,-0.375,0.640625
1630070105218,0.65625,-0.375,0.640625
1630070105250,0.65625,-0.375,0.65625
1630070105281,0.65625,-0.375,0.640625
1630070105312,0.671875,-0.375,0.65625
1630070105343,0.65625,-0.375,0.640625
1630070105375,0.671875,-0.375,0.65625
1630070105406,0.65625,-0.375,0.65625
1630070105437,0.671875,-0.375,0.640625
1630070105468,0.671875,-0.375,0.640625
1630070105500,0.671875,-0.375,0.65625
1630070105531,0.671875,-0.375,0.65625
1630070105562,0.671875,-0.375,0.640625
1630070105593,0.65625,-0.375,0.640625
1630070105625,0.65625,-0.375,0.640625
1630070105656,0.671875,-0.375,0.640625
1630070105687,0.671875,-0.375,0.65625
1630070105718,0.671875,-0.375,0.65625
1630070105750,0.65625,-0.375,0.65625
1630070105781,0.671875,-0.375,0.640625
1630070105812,0.671875,-0.375,0.65625
1630070105843,0.671875,-0.375,0.640625
1630070105875,0.65625,-0.375,0.640625
1630070105906,0.65625,-0.375,0.640625
1630070105937,0.65625,-0.375,0.640625
1630070105968,0.65625,-0.375,0.640625
1630070106000,0.671875,-0.375,0.65625
1630070106031,0.65625,-0.375,0.65625
1630070106062,0.671875,-0.375,0.65625
1630070106093,0.671875,-0.375,0.65625
1630070106125,0.671875,-0.359375,0.65625
1630070106156,0.65625,-0.375,0.65625
1630070106187,0.65625,-0.375,0.65625
1630070106218,0.671875,-0.375,0.640625
1630070106250,0.65625,-0.375,0.65625
1630070106281,0.65625,-0.375,0.65625
1630070106312,0.65625,-0.375,0.65625
1630070106343,0.65625,-0.375,0.65625
1630070106375,0.65625,-0.375,0.65625
1630070106406,0.65625,-0.375,0.65625
1630070106437,0.671875,-0.375,0.65625
1630070106468,0.65625,-0.375,0.65625
1630070106500,0.65625,-0.375,0.65625
1630070106531,0.65625,-0.375,0.65625
1630070106562,0.65625,-0.375,0.65625
1630070106593,0.65625,-0.375,0.65625
1630070106625,0.671875,-0.375,0.65625
1630070106656,0.65625,-0.375,0.65625
1630070106687,0.65625,-0.375,0.65625
1630070106718,0.671875,-0.375,0.65625
1630070106750,0.65625,-0.375,0.65625
1630070106781,0.65625,-0.375,0.65625
1630070106812,0.65625,-0.375,0.65625
1630070106843,0.65625,-0.375,0.65625
1630070106875,0.65625,-0.375,0.65625
1630070106906,0.65625,-0.375,0.65625
1630070106937,0.65625,-0.375,0.65625
1630070106968,0.65625,-0.375,0.65625
1630070107000,0.65625,-0.375,0.65625
1630070107031,0.65625,-0.375,0.65625
1630070107062,0.65625,-0.375,0.65625
1630070107093,0.65625,-0.375,0.65625
1630070107125,0.65625,-0.375,0.65625
1630070107156,0.65625,-0.375,0.65625
1630070107187,0.65625,-0.375,0.65625
1630070107218,0.65625,-0.375,0.65625
1630070107250,0.65625,-0.375,0.65625
1630070107281,0.65625,-0.375,0.65625
1630070107312,0.65625,-0.375,0.65625
1630070107343,0.65625,-0.375,0.65625
1630070107375,0.65625,-0.375,0.65625
1630070107406,0.65625,-0.375,0.65625
1630070107437,0.65625,-0.375,0.65625
1630070107468,0.65625,-0.375,0.65625
1630070107500,0.65625,-0.375,0.65625
1630070107531,0.65625,-0.375,0.65625
1630070107562,0.65625,-0.375,0.65625
1630070107593,0.65625,-0.375,0.65625
1630070107625,0.65625,-0.375,0.65625
1630070107656,0.640625,-0.375,0.65625
1630070107687,0.640625,-0.375,0.65625
1630070107718,0.65625,-0.375,0.65625
1630070107750,0.65625,-0.375,0.65625
1630070107781,0.65625,-0.375,0.65625
1630070107812,0.65625,-0.375,0.65625
1630070107843,0.65625,-0.375,0.65625
1630070107875,0.65625,-0.375,0.65625
1630070107906,0.65625,-0.375,0.65625
1630070107937,0.65625,-0.375,0.65625
1630070107968,0.65625,-0.375,0.65625
1630070108000,0.65625,-0.375,0.65625
1630070108031,0.65625,-0.375,0.65625
1630070108062,0.65625,-0.375,0.65625
1630070108093,0.65625,-0.375,0.65625
1630070108125,0.65625,-0.375,0.65625
1630070108156,0.65625,-0.375,0.65625
1630070108187,0.65625,-0.375,0.65625
1630070108218,0.65625,-0.375,0.65625
1630070108250,0.65625,-0.375,0.65625
1630070108281,0.65625,-0.375,0.65625
1630070108312,0.65625,-0.375,0.65625
1630070108343,0.65625,-0.375,0.65625
1630070108375,0.65625,-0.375,0.65625
1630070108406,0.65625,-0.375,0.65625
1630070108437,0.65625,-0.375,0.65625
1630070108468,0.65625,-0.375,0.65625
1630070108500,0.65625,-0.375,0.65625
1630070108531,0.65625,-0.375,0.65625
1630070108562,0.65625,-0.375,0.65625
1630070108593,0.65625,-0.375,0.65625
1630070108625,0.65625,-0.375,0.65625
1630070108656,0.65625,-0.375,0.65625
1630070108687,0.65625,-0.375,0.65625
1630070108718,0.65625,-0.375,0.65625
1630070108750,0.65625,-0.375,0.65625
1630070108781,0.65625,-0.375,0.65625
1630070108812,0.65625,-0.375,0.65625
1630070108843,0.65625,-0.375,0.65625
1630070108875,0.65625,-0.375,0.65625
1630070108906,0.65625,-0.375,0.65625
1630070108937,0.65625,-0.375,0.65625
1630070108968,0.65625,-0.375,0.65625
1630070109000,0.65625,-0.375,0.65625
1630070109031,0.65625,-0.375,0.65625
1630070109062,0.65625,-0.375,0.65625
1630070109093,0.65625,-0.375,0.65625
1630070109125,0.65625,-0.375,0.65625
1630070109156,0.65625,-0.375,0.65625
1630070109187,0.65625,-0.375,0.65625
1630070109218,0.65625,-0.375,0.65625
1630070109250,0.65625,-0.375,0.65625
1630070109281,0.65625,-0.375,0.65625
1630070109312,0.65625,-0.375,0.65625
1630070109343,0.65625,-0.375,0.65625
1630070109375,0.65625,-0.375,0.65625
1630070109406,0.65625,-0.375,0.65625
1630070109437,0.65625,-0.375,0.65625
1630070109468,0.65625,-0.375,0.65625
1630070109500,0.65625,-0.375,0.65625
1630070109531,0.65625,-0.375,0.65625
1630070109562,0.65625,-0.375,0.65625
1630070109593,0.65625,-0.375,0.65625
1630070109625,0.65625,-0.375,0.65625
1630070109656,0.640625,-0.375,0.65625
1630070109687,0.65625,-0.375,0.65625
1630070109718,0.640625,-0.375,0.65625
1630070109750,0.640625,-0.375,0.65625
1630070109781,0.65625,-0.375,0.65625
1630070109812,0.65625,-0.375,0.65625
1630070109843,0.640625,-0.375,0.65625
1630070109875,0.65625,-0.375,0.65625
1630070109906,0.65625,-0.375,0.65625
1630070109937,0.640625,-0.375,0.65625
1630070109968,0.65625,-0.375,0.65625
1630070110000,0.640625,-0.375,0.65625
1630070110031,0.65625,-0.375,0.65625
1630070110062,0.65625,-0.375,0.65625
1630070110093,0.640625,-0.375,0.65625
1630070110125,0.640625,-0.375,0.671875
1630070110156,0.640625,-0.375,0.65625
1630070110187,0.65625,-0.375,0.671875
1630070110218,0.65625,-0.375,0.65625
1630070110250,0.65625,-0.375,0.65625
1630070110281,0.640625,-0.375,0.65625
1630070110312,0.65625,-0.375,0.65625
1630070110343,0.640625,-0.375,0.65625
1630070110375,0.640625,-0.375,0.65625
1630070110406,0.65625,-0.375,0.65625
1630070110437,0.65625,-0.375,0.65625
1630070110468,0.640625,-0.375,0.65625
1630070110500,0.65625,-0.375,0.65625
1630070110531,0.640625,-0.375,0.65625
1630070110562,0.65625,-0.375,0.65625
1630070110593,0.640625,-0.375,0.65625
1630070110625,0.65625,-0.375,0.65625
1630070110656,0.65625,-0.375,0.65625
1630070110687,0.640625,-0.375,0.671875
1630070110718,0.65625,-0.375,0.65625
1630070110750,0.65625,-0.375,0.65625
1630070110781,0.65625,-0.375,0.65625
1630070110812,0.65625,-0.375,0.65625
1630070110843,0.65625,-0.375,0.65625
1630070110875,0.65625,-0.375,0.65625
1630070110906,0.640625,-0.375,0.65625
1630070110937,0.65625,-0.375,0.65625
1630070110968,0.65625,-0.375,0.65625
1630070111000,0.65625,-0.375,0.65625
1630070111031,0.640625,-0.375,0.671875
1630070111062,0.640625,-0.375,0.65625
1630070111093,0.65625,-0.375,0.65625
1630070111125,0.640625,-0.375,0.65625
1630070111156,0.640625,-0.375,0.65625
1630070111187,0.65625,-0.375,0.65625
1630070111218,0.640625,-0.375,0.65625
1630070111250,0.65625,-0.375,0.671875
1630070111281,0.65625,-0.375,0.65625
1630070111312,0.65625,-0.375,0.65625
1630070111343,0.640625,-0.375,0.65625
1630070111375,0.640625,-0.375,0.65625
1630070111406,0.65625,-0.375,0.65625
1630070111437,0.65625,-0.375,0.65625
1630070111468,0.640625,-0.375,0.65625
1630070111500,0.640625,-0.375,0.65625
1630070111531,0.65625,-0.375,0.65625
1630070111562,0.640625,-0.375,0.65625
1630070111593,0.65625,-0.375,0.65625
1630070111625,0.65625,-0.375,0.65625
1630070111656,0.65625,-0.375,0.65625
1630070111687,0.65625,-0.375,0.65625
1630070111718,0.65625,-0.375,0.65625
1630070111750,0.65625,-0.375,0.65625
1630070111781,0.65625,-0.375,0.65625
1630070111812,0.65625,-0.375,0.65625
1630070111843,0.65625,-0.375,0.65625
1630070111875,0.65625,-0.375,0.65625
1630070111906,0.65625,-0.375,0.65625
1630070111937,0.640625,-0.375,0.65625
1630070111968,0.65625,-0.375,0.671875
1630070112000,0.640625,-0.375,0.65625
1630070112031,0.65625,-0.375,0.671875
1630070112062,0.640625,-0.375,0.671875
1630070112093,0.640625,-0.375,0.65625
1630070112125,0.65625,-0.375,0.671875
1630070112156,0.640625,-0.375,0.65625
1630070112187,0.640625,-0.375,0.65625
1630070112218,0.65625,-0.375,0.671875
1630070112250,0.640625,-0.375,0.671875
1630070112281,0.640625,-0.375,0.671875
1630070112312,0.640625,-0.375,0.65625
1630070112343,0.640625,-0.375,0.65625
1630070112375,0.640625,-0.375,0.671875
1630070112406,0.640625,-0.375,0.671875
1630070112437,0.65625,-0.375,0.671875
1630070112468,0.65625,-0.375,0.671875
1630070112500,0.640625,-0.375,0.65625
1630070112531,0.640625,-0.375,0.671875
1630070112562,0.640625,-0.375,0.671875
1630070112593,0.640625,-0.375,0.65625
1630070112625,0.640625,-0.375,0.671875
1630070112656,0.640625,-0.375,0.671875
1630070112687,0.640625,-0.375,0.65625
1630070112718,0.640625,-0.375,0.671875
1630070112750,0.640625,-0.375,0.65625
1630070112781,0.640625,-0.375,0.65625
1630070112812,0.640625,-0.375,0.65625
1630070112843,0.640625,-0.375,0.65625
1630070112875,0.640625,-0.375,0.671875
1630070112906,0.640625,-0.375,0.65625
1630070112937,0.640625,-0.375,0.671875
1630070112968,0.640625,-0.375,0.671875
1630070113000,0.640625,-0.375,0.671875
1630070113031,0.640625,-0.375,0.65625
1630070113062,0.640625,-0.375,0.65625
1630070113093,0.640625,-0.375,0.671875
1630070113125,0.640625,-0.375,0.671875
1630070113156,0.640625,-0.375,0.65625
1630070113187,0.640625,-0.375,0.65625
1630070113218,0.640625,-0.375,0.671875
1630070113250,0.640625,-0.375,0.65625
1630070113281,0.640625,-0.375,0.65625
1630070113312,0.640625,-0.375,0.671875
1630070113343,0.640625,-0.375,0.65625
1630070113375,0.65625,-0.375,0.671875
1630070113406,0.65625,-0.375,0.65625
1630070113437,0.640625,-0.375,0.65625
1630070113468,0.65625,-0.375,0.65625
1630070113500,0.640625,-0.375,0.65625
1630070113531,0.640625,-0.375,0.65625
1630070113562,0.65625,-0.375,0.65625
1630070113593,0.640625,-0.375,0.65625
1630070113625,0.65625,-0.375,0.65625
1630070113656,0.65625,-0.375,0.671875
1630070113687,0.640625,-0.375,0.65625
1630070113718,0.640625,-0.375,0.671875
1630070113750,0.65625,-0.375,0.65625
1630070113781,0.640625,-0.375,0.65625
1630070113812,0.65625,-0.375,0.65625
1630070113843,0.65625,-0.375,0.65625
1630070113875,0.640625,-0.375,0.65625
1630070113906,0.65625,-0.375,0.65625
1630070113937,0.65625,-0.375,0.65625
1630070113968,0.65625,-0.375,0.65625
1630070114000,0.65625,-0.375,0.65625
1630070114031,0.65625,-0.375,0.65625
1630070114062,0.65625,-0.375,0.65625
1630070114093,0.65625,-0.375,0.65625
1630070114125,0.640625,-0.375,0.65625
1630070114156,0.65625,-0.375,0.65625
1630070114187,0.640625,-0.375,0.65625
1630070114218,0.640625,-0.375,0.65625
1630070114250,0.65625,-0.375,0.65625
1630070114281,0.640625,-0.375,0.65625
1630070114312,0.640625,-0.375,0.671875
1630070114343,0.65625,-0.375,0.65625
1630070114375,0.640625,-0.375,0.671875
1630070114406,0.640625,-0.375,0.65625
1630070114437,0.640625,-0.375,0.65625
1630070114468,0.640625,-0.375,0.65625
1630070114500,0.640625,-0.375,0.65625
1630070114531,0.640625,-0.375,0.671875
1630070114562,0.640625,-0.375,0.65625
1630070114593,0.640625,-0.375,0.65625
1630070114625,0.640625,-0.375,0.65625
1630070114656,0.65625,-0.375,0.671875
1630070114687,0.640625,-0.375,0.671875
1630070114718,0.640625,-0.375,0.65625
1630070114750,0.640625,-0.375,0.65625
1630070114781,0.640625,-0.375,0.65625
1630070114812,0.640625,-0.375,0.65625
1630070114843,0.640625,-0.375,0.671875
1630070114875,0.640625,-0.375,0.671875
1630070114906,0.640625,-0.375,0.671875
1630070114937,0.640625,-0.375,0.671875
1630070114968,0.640625,-0.375,0.671875
1630070115000,0.640625,-0.375,0.671875
1630070115031,0.640625,-0.375,0.671875
1630070115062,0.640625,-0.375,0.671875
1630070115093,0.640625,-0.375,0.671875
1630070115125,0.640625,-0.375,0.671875
1630070115156,0.625,-0.375,0.671875
1630070115187,0.640625,-0.375,0.671875
1630070115218,0.640625,-0.375,0.65625
1630070115250,0.625,-0.375,0.671875
1630070115281,0.640625,-0.375,0.671875
1630070115312,0.640625,-0.375,0.671875
1630070115343,0.640625,-0.375,0.671875
1630070115375,0.640625,-0.375,0.671875
1630070115406,0.640625,-0.375,0.671875
1630070115437,0.640625,-0.375,0.671875
1630070115468,0.640625,-0.375,0.671875
1630070115500,0.640625,-0.375,0.671875
1630070115531,0.640625,-0.375,0.671875
1630070115562,0.640625,-0.375,0.671875
1630070115593,0.640625,-0.375,0.671875
1630070115625,0.640625,-0.375,0.671875
1630070115656,0.640625,-0.375,0.671875
1630070115687,0.640625,-0.375,0.671875
1630070115718,0.640625,-0.375,0.671875
1630070115750,0.640625,-0.375,0.671875
1630070115781,0.640625,-0.375,0.671875
1630070115812,0.640625,-0.375,0.671875
1630070115843,0.640625,-0.375,0.671875
1630070115875,0.640625,-0.375,0.671875
1630070115906,0.640625,-0.375,0.671875
1630070115937,0.640625,-0.375,0.671875
1630070115968,0.640625,-0.375,0.671875
1630070116000,0.640625,-0.375,0.671875
1630070116031,0.640625,-0.375,0.671875
1630070116062,0.640625,-0.375,0.671875
1630070116093,0.640625,-0.375,0.671875
1630070116125,0.65625,-0.375,0.671875
1630070116156,0.640625,-0.375,0.671875
1630070116187,0.640625,-0.375,0.671875
1630070116218,0.640625,-0.375,0.671875
1630070116250,0.640625,-0.375,0.65625
1630070116281,0.640625,-0.375,0.671875
1630070116312,0.640625,-0.375,0.65625
1630070116343,0.640625,-0.375,0.65625
1630070116375,0.640625,-0.375,0.65625
1630070116406,0.703125,-0.359375,0.671875
1630070116437,0.6875,-0.359375,0.671875
1630070116468,0.5625,-0.390625,0.65625
1630070116500,0.609375,-0.390625,0.671875
1630070116531,0.640625,-0.390625,0.671875
1630070116562,0.609375,-0.375,0.65625
1630070116593,0.65625,-0.375,0.671875
1630070116625,0.671875,-0.375,0.671875
1630070116656,0.671875,-0.375,0.65625
1630070116687,0.65625,-0.375,0.65625
1630070116718,0.640625,-0.375,0.65625
1630070116750,0.65625,-0.375,0.65625
1630070116781,0.65625,-0.375,0.671875
1630070116812,0.65625,-0.375,0.65625
1630070116843,0.640625,-0.375,0.65625
1630070116875,0.65625,-0.375,0.65625
1630070116906,0.65625,-0.375,0.65625
1630070116937,0.65625,-0.375,0.65625
1630070116968,0.65625,-0.375,0.65625
1630070117000,0.65625,-0.375,0.65625
1630070117031,0.65625,-0.375,0.65625
1630070117062,0.65625,-0.375,0.65625
1630070117093,0.65625,-0.375,0.65625
1630070117125,0.65625,-0.375,0.65625
1630070117156,0.65625,-0.375,0.65625
1630070117187,0.65625,-0.375,0.65625
1630070117218,0.65625,-0.375,0.65625
1630070117250,0.65625,-0.375,0.65625
1630070117281,0.640625,-0.375,0.65625
1630070117312,0.65625,-0.375,0.65625
1630070117343,0.65625,-0.359375,0.65625
1630070117375,0.65625,-0.375,0.65625
1630070117406,0.65625,-0.359375,0.65625
1630070117437,0.671875,-0.359375,0.65625
1630070117468,0.65625,-0.359375,0.65625
1630070117500,0.65625,-0.359375,0.65625
1630070117531,0.65625,-0.375,0.640625
1630070117562,0.65625,-0.390625,0.640625
1630070117593,0.65625,-0.390625,0.640625
1630070117625,0.640625,-0.359375,0.671875
1630070117656,0.65625,-0.375,0.671875
1630070117687,0.65625,-0.375,0.65625
1630070117718,0.6875,-0.375,0.640625
1630070117750,0.671875,-0.375,0.640625
1630070117781,0.671875,-0.359375,0.65625
1630070117812,0.671875,-0.359375,0.65625
1630070117843,0.671875,-0.359375,0.640625
1630070117875,0.671875,-0.359375,0.625
1630070117906,0.6875,-0.359375,0.640625
1630070117937,0.6875,-0.375,0.640625
1630070117968,0.6875,-0.375,0.65625
1630070118000,0.65625,-0.390625,0.640625
1630070118031,0.65625,-0.40625,0.625
1630070118062,0.65625,-0.40625,0.640625
1630070118093,0.671875,-0.390625,0.65625
1630070118125,0.671875,-0.375,0.640625
1630070118156,0.640625,-0.375,0.625
1630070118187,0.6875,-0.359375,0.65625
1630070118218,0.671875,-0.359375,0.65625
1630070118250,0.671875,-0.34375,0.65625
1630070118281,0.671875,-0.359375,0.65625
1630070118312,0.6875,-0.375,0.65625
1630070118343,0.6875,-0.34375,0.640625
1630070118375,0.671875,-0.34375,0.625
1630070118406,0.640625,-0.359375,0.640625
1630070118437,0.65625,-0.375,0.640625
1630070118468,0.640625,-0.390625,0.640625
1630070118500,0.640625,-0.4375,0.65625
1630070118531,0.640625,-0.4375,0.65625
1630070118562,0.640625,-0.375,0.625
1630070118593,0.65625,-0.359375,0.640625
1630070118625,0.6875,-0.359375,0.671875
1630070118656,0.671875,-0.375,0.65625
1630070118687,0.671875,-0.375,0.640625
1630070118718,0.65625,-0.375,0.65625
1630070118750,0.65625,-0.375,0.65625
1630070118781,0.65625,-0.359375,0.65625
1630070118812,0.671875,-0.375,0.65625
1630070118843,0.671875,-0.375,0.65625
1630070118875,0.65625,-0.375,0.65625
1630070118906,0.65625,-0.375,0.65625
1630070118937,0.65625,-0.375,0.65625
1630070118968,0.65625,-0.390625,0.65625
1630070119000,0.640625,-0.390625,0.640625
1630070119031,0.65625,-0.390625,0.640625
1630070119062,0.65625,-0.375,0.640625
1630070119093,0.65625,-0.375,0.65625
1630070119125,0.65625,-0.375,0.640625
1630070119156,0.65625,-0.390625,0.640625
1630070119187,0.65625,-0.375,0.65625
1630070119218,0.65625,-0.375,0.65625
1630070119250,0.65625,-0.375,0.65625
1630070119281,0.65625,-0.375,0.65625
1630070119312,0.65625,-0.375,0.65625
1630070119343,0.65625,-0.375,0.65625
1630070119375,0.65625,-0.375,0.65625
1630070119406,0.65625,-0.375,0.65625
1630070119437,0.65625,-0.375,0.640625
1630070119468,0.65625,-0.375,0.65625
1630070119500,0.65625,-0.375,0.65625
1630070119531,0.65625,-0.390625,0.65625
1630070119562,0.65625,-0.375,0.65625
1630070119593,0.65625,-0.375,0.640625
1630070119625,0.65625,-0.375,0.65625
1630070119656,0.65625,-0.375,0.65625
1630070119687,0.65625,-0.375,0.65625
1630070119718,0.65625,-0.375,0.65625
1630070119750,0.671875,-0.375,0.65625
1630070119781,0.65625,-0.375,0.65625
1630070119812,0.640625,-0.375,0.65625
1630070119843,0.65625,-0.375,0.65625
1630070119875,0.65625,-0.390625,0.65625
1630070119906,0.65625,-0.375,0.65625
1630070119937,0.65625,-0.375,0.65625
1630070119968,0.65625,-0.375,0.65625
1630070120000,0.65625,-0.375,0.65625
1630070120031,0.65625,-0.375,0.65625
1630070120062,0.640625,-0.375,0.65625
1630070120093,0.640625,-0.390625,0.65625
1630070120125,0.65625,-0.390625,0.65625
1630070120156,0.65625,-0.375,0.65625
1630070120187,0.65625,-0.375,0.65625
1630070120218,0.640625,-0.390625,0.65625
1630070120250,0.65625,-0.375,0.65625
1630070120281,0.65625,-0.375,0.65625
1630070120312,0.640625,-0.390625,0.65625
1630070120343,0.65625,-0.390625,0.65625
1630070120375,0.65625,-0.390625,0.65625
1630070120406,0.65625,-0.375,0.65625
1630070120437,0.640625,-0.390625,0.65625
1630070120468,0.640625,-0.390625,0.65625
1630070120500,0.640625,-0.390625,0.65625
1630070120531,0.640625,-0.390625,0.65625
1630070120562,0.640625,-0.390625,0.65625
1630070120593,0.65625,-0.375,0.65625
1630070120625,0.640625,-0.390625,0.65625
1630070120656,0.640625,-0.390625,0.65625
1630070120687,0.640625,-0.375,0.65625
1630070120718,0.65625,-0.375,0.65625
1630070120750,0.65625,-0.390625,0.65625
1630070120781,0.640625,-0.390625,0.65625
1630070120812,0.640625,-0.390625,0.65625
1630070120843,0.640625,-0.390625,0.65625
1630070120875,0.640625,-0.390625,0.65625
1630070120906,0.640625,-0.390625,0.65625
1630070120937,0.65625,-0.375,0.65625
1630070120968,0.65625,-0.390625,0.65625
1630070121000,0.65625,-0.375,0.65625
1630070121031,0.65625,-0.375,0.65625
1630070121062,0.640625,-0.390625,0.65625
1630070121093,0.65625,-0.390625,0.65625
1630070121125,0.65625,-0.375,0.65625
1630070121156,0.65625,-0.390625,0.65625
1630070121187,0.65625,-0.390625,0.65625
1630070121218,0.640625,-0.390625,0.65625
1630070121250,0.65625,-0.375,0.65625
1630070121281,0.65625,-0.375,0.65625
1630070121312,0.640625,-0.375,0.65625
1630070121343,0.65625,-0.375,0.65625
1630070121375,0.65625,-0.375,0.65625
1630070121406,0.65625,-0.375,0.65625
1630070121437,0.65625,-0.390625,0.65625
1630070121468,0.640625,-0.390625,0.65625
1630070121500,0.65625,-0.390625,0.65625
1630070121531,0.65625,-0.390625,0.65625
1630070121562,0.65625,-0.390625,0.65625
1630070121593,0.65625,-0.390625,0.65625
1630070121625,0.65625,-0.390625,0.65625
1630070121656,0.65625,-0.375,0.65625
1630070121687,0.640625,-0.375,0.65625
1630070121718,0.640625,-0.375,0.65625
1630070121750,0.65625,-0.375,0.65625
1630070121781,0.640625,-0.375,0.65625
1630070121812,0.640625,-0.375,0.65625
1630070121843,0.65625,-0.375,0.65625
1630070121875,0.65625,-0.375,0.65625
1630070121906,0.65625,-0.375,0.65625
1630070121937,0.65625,-0.375,0.65625
1630070121968,0.65625,-0.390625,0.65625
1630070122000,0.65625,-0.390625,0.65625
1630070122031,0.65625,-0.375,0.65625
1630070122062,0.65625,-0.375,0.65625
1630070122093,0.65625,-0.375,0.65625
1630070122125,0.65625,-0.375,0.65625
1630070122156,0.65625,-0.375,0.65625
1630070122187,0.65625,-0.375,0.65625
1630070122218,0.65625,-0.375,0.65625
1630070122250,0.65625,-0.390625,0.65625
1630070122281,0.65625,-0.375,0.65625
1630070122312,0.65625,-0.375,0.65625
1630070122343,0.65625,-0.375,0.65625
1630070122375,0.65625,-0.375,0.65625
1630070122406,0.65625,-0.375,0.65625
1630070122437,0.65625,-0.375,0.65625
1630070122468,0.65625,-0.375,0.65625
1630070122500,0.65625,-0.375,0.65625
1630070122531,0.65625,-0.375,0.65625
1630070122562,0.65625,-0.375,0.65625
1630070122593,0.65625,-0.375,0.65625
1630070122625,0.65625,-0.375,0.65625
1630070122656,0.65625,-0.375,0.65625
1630070122687,0.65625,-0.375,0.65625
1630070122718,0.65625,-0.375,0.65625
1630070122750,0.65625,-0.375,0.65625
1630070122781,0.65625,-0.375,0.65625
1630070122812,0.65625,-0.375,0.65625
1630070122843,0.65625,-0.375,0.65625
1630070122875,0.65625,-0.375,0.65625
1630070122906,0.640625,-0.375,0.65625
1630070122937,0.65625,-0.390625,0.65625
1630070122968,0.65625,-0.375,0.65625
1630070123000,0.65625,-0.375,0.65625
1630070123031,0.640625,-0.375,0.65625
1630070123062,0.640625,-0.375,0.65625
1630070123093,0.65625,-0.375,0.65625
1630070123125,0.65625,-0.375,0.65625
1630070123156,0.65625,-0.375,0.65625
1630070123187,0.640625,-0.390625,0.65625
1630070123218,0.640625,-0.375,0.65625
1630070123250,0.65625,-0.375,0.65625
1630070123281,0.640625,-0.375,0.65625
1630070123312,0.640625,-0.375,0.65625
1630070123343,0.65625,-0.375,0.65625
1630070123375,0.640625,-0.390625,0.65625
1630070123406,0.640625,-0.375,0.65625
1630070123437,0.640625,-0.390625,0.65625
1630070123468,0.65625,-0.390625,0.65625
1630070123500,0.640625,-0.375,0.65625
1630070123531,0.640625,-0.375,0.671875
1630070123562,0.640625,-0.375,0.65625
1630070123593,0.640625,-0.375,0.65625
1630070123625,0.65625,-0.390625,0.671875
1630070123656,0.640625,-0.375,0.65625
1630070123687,0.640625,-0.375,0.65625
1630070123718,0.640625,-0.390625,0.65625
1630070123750,0.640625,-0.390625,0.65625
1630070123781,0.640625,-0.375,0.65625
1630070123812,0.640625,-0.390625,0.65625
1630070123843,0.640625,-0.390625,0.65625
1630070123875,0.640625,-0.390625,0.671875
1630070123906,0.640625,-0.390625,0.65625
1630070123937,0.640625,-0.390625,0.671875
1630070123968,0.640625,-0.390625,0.65625
1630070124000,0.640625,-0.390625,0.65625
1630070124031,0.640625,-0.375,0.65625
1630070124062,0.640625,-0.375,0.65625
1630070124093,0.640625,-0.390625,0.65625
1630070124125,0.640625,-0.375,0.671875
1630070124156,0.640625,-0.390625,0.65625
1630070124187,0.640625,-0.375,0.65625
1630070124218,0.640625,-0.390625,0.65625
1630070124250,0.640625,-0.390625,0.65625
1630070124281,0.640625,-0.375,0.65625
1630070124312,0.640625,-0.375,0.65625
1630070124343,0.65625,-0.390625,0.65625
1630070124375,0.640625,-0.375,0.65625
1630070124406,0.640625,-0.375,0.65625
1630070124437,0.65625,-0.375,0.65625
1630070124468,0.640625,-0.375,0.65625
1630070124500,0.640625,-0.375,0.65625
1630070124531,0.65625,-0.375,0.65625
1630070124562,0.65625,-0.390625,0.65625
1630070124593,0.640625,-0.375,0.65625
1630070124625,0.65625,-0.375,0.65625
1630070124656,0.640625,-0.375,0.65625
1630070124687,0.640625,-0.375,0.65625
1630070124718,0.65625,-0.390625,0.65625
1630070124750,0.65625,-0.390625,0.65625
1630070124781,0.640625,-0.375,0.65625
1630070124812,0.640625,-0.375,0.65625
1630070124843,0.640625,-0.375,0.65625
1630070124875,0.65625,-0.390625,0.65625
1630070124906,0.65625,-0.375,0.65625
1630070124937,0.65625,-0.375,0.65625
1630070124968,0.65625,-0.390625,0.65625
1630070125000,0.640625,-0.375,0.65625
1630070125031,0.65625,-0.375,0.65625
1630070125062,0.640625,-0.375,0.65625
1630070125093,0.65625,-0.375,0.65625
1630070125125,0.640625,-0.375,0.65625
1630070125156,0.65625,-0.375,0.65625
1630070125187,0.65625,-0.375,0.65625
1630070125218,0.640625,-0.375,0.65625
1630070125250,0.65625,-0.375,0.65625
1630070125281,0.640625,-0.375,0.65625
1630070125312,0.65625,-0.375,0.65625
1630070125343,0.65625,-0.375,0.65625
1630070125375,0.65625,-0.375,0.65625
1630070125406,0.65625,-0.375,0.65625
1630070125437,0.65625,-0.375,0.65625
1630070125468,0.65625,-0.375,0.65625
1630070125500,0.65625,-0.375,0.65625
1630070125531,0.65625,-0.375,0.65625
1630070125562,0.65625,-0.375,0.65625
1630070125593,0.65625,-0.375,0.65625
1630070125625,0.65625,-0.375,0.65625
1630070125656,0.65625,-0.390625,0.65625
1630070125687,0.65625,-0.375,0.65625
1630070125718,0.65625,-0.375,0.65625
1630070125750,0.65625,-0.390625,0.65625
1630070125781,0.65625,-0.375,0.65625
1630070125812,0.65625,-0.375,0.65625
1630070125843,0.640625,-0.375,0.65625
1630070125875,0.640625,-0.390625,0.65625
1630070125906,0.640625,-0.390625,0.65625
1630070125937,0.640625,-0.375,0.65625
1630070125968,0.65625,-0.375,0.65625
1630070126000,0.640625,-0.375,0.65625
1630070126031,0.65625,-0.375,0.65625
1630070126062,0.640625,-0.375,0.65625
1630070126093,0.640625,-0.375,0.65625
1630070126125,0.65625,-0.375,0.65625
1630070126156,0.640625,-0.375,0.65625
1630070126187,0.640625,-0.375,0.65625
1630070126218,0.65625,-0.375,0.65625
1630070126250,0.640625,-0.375,0.671875
1630070126281,0.640625,-0.375,0.65625
1630070126312,0.640625,-0.390625,0.65625
1630070126343,0.640625,-0.390625,0.65625
1630070126375,0.65625,-0.375,0.65625
1630070126406,0.640625,-0.375,0.65625
1630070126437,0.640625,-0.390625,0.65625
1630070126468,0.640625,-0.375,0.65625
1630070126500,0.640625,-0.390625,0.65625
1630070126531,0.640625,-0.375,0.671875
1630070126562,0.640625,-0.390625,0.671875
1630070126593,0.640625,-0.390625,0.65625
1630070126625,0.640625,-0.390625,0.65625
1630070126656,0.640625,-0.375,0.65625
1630070126687,0.640625,-0.390625,0.65625
1630070126718,0.640625,-0.390625,0.65625
1630070126750,0.640625,-0.375,0.65625
1630070126781,0.640625,-0.375,0.65625
1630070126812,0.640625,-0.375,0.65625
1630070126843,0.640625,-0.375,0.65625
1630070126875,0.640625,-0.375,0.65625
1630070126906,0.640625,-0.375,0.65625
1630070126937,0.640625,-0.375,0.671875
1630070126968,0.640625,-0.390625,0.65625
1630070127000,0.640625,-0.375,0.65625
1630070127031,0.640625,-0.390625,0.65625
1630070127062,0.640625,-0.390625,0.65625
1630070127093,0.65625,-0.375,0.65625
1630070127125,0.65625,-0.375,0.65625
1630070127156,0.65625,-0.375,0.65625
1630070127187,0.65625,-0.375,0.65625
1630070127218,0.640625,-0.375,0.65625
1630070127250,0.640625,-0.375,0.65625
1630070127281,0.65625,-0.375,0.65625
1630070127312,0.640625,-0.375,0.65625
1630070127343,0.65625,-0.390625,0.65625
1630070127375,0.65625,-0.375,0.65625
1630070127406,0.65625,-0.375,0.65625
1630070127437,0.65625,-0.375,0.65625
1630070127468,0.65625,-0.390625,0.65625
1630070127500,0.65625,-0.375,0.65625
1630070127531,0.640625,-0.375,0.65625
1630070127562,0.65625,-0.375,0.65625
1630070127593,0.65625,-0.375,0.65625
1630070127625,0.65625,-0.390625,0.65625
1630070127656,0.65625,-0.375,0.65625
1630070127687,0.640625,-0.375,0.65625
1630070127718,0.640625,-0.375,0.65625
1630070127750,0.65625,-0.375,0.65625
1630070127781,0.65625,-0.375,0.65625
1630070127812,0.65625,-0.375,0.65625
1630070127843,0.65625,-0.375,0.65625
1630070127875,0.65625,-0.375,0.65625
1630070127906,0.65625,-0.375,0.65625
1630070127937,0.65625,-0.375,0.65625
1630070127968,0.65625,-0.375,0.65625
1630070128000,0.65625,-0.375,0.65625
1630070128031,0.65625,-0.375,0.65625
1630070128062,0.65625,-0.375,0.65625
1630070128093,0.65625,-0.390625,0.65625
1630070128125,0.65625,-0.375,0.65625
1630070128156,0.65625,-0.375,0.65625
1630070128187,0.65625,-0.375,0.65625
1630070128218,0.65625,-0.375,0.65625
1630070128250,0.65625,-0.375,0.65625
1630070128281,0.65625,-0.375,0.65625
1630070128312,0.65625,-0.375,0.65625
1630070128343,0.65625,-0.375,0.65625
1630070128375,0.65625,-0.390625,0.65625
1630070128406,0.65625,-0.375,0.65625
1630070128437,0.65625,-0.375,0.65625
1630070128468,0.65625,-0.375,0.65625
1630070128500,0.65625,-0.375,0.65625
1630070128531,0.65625,-0.375,0.65625
1630070128562,0.65625,-0.390625,0.65625
1630070128593,0.65625,-0.375,0.65625
1630070128625,0.65625,-0.375,0.65625
1630070128656,0.65625,-0.375,0.65625
1630070128687,0.65625,-0.375,0.65625
1630070128718,0.65625,-0.390625,0.65625
1630070128750,0.640625,-0.390625,0.65625
1630070128781,0.65625,-0.375,0.65625
1630070128812,0.65625,-0.375,0.65625
1630070128843,0.640625,-0.390625,0.65625
1630070128875,0.65625,-0.390625,0.65625
1630070128906,0.65625,-0.390625,0.65625
1630070128937,0.65625,-0.390625,0.65625
1630070128968,0.640625,-0.375,0.65625
1630070129000,0.640625,-0.375,0.65625
1630070129031,0.640625,-0.375,0.65625
1630070129062,0.640625,-0.390625,0.65625
1630070129093,0.640625,-0.375,0.671875
1630070129125,0.640625,-0.390625,0.65625
1630070129156,0.65625,-0.390625,0.65625
1630070129187,0.640625,-0.390625,0.65625
1630070129218,0.640625,-0.390625,0.65625
1630070129250,0.640625,-0.390625,0.65625
1630070129281,0.640625,-0.390625,0.65625
1630070129312,0.640625,-0.390625,0.65625
1630070129343,0.640625,-0.390625,0.65625
1630070129375,0.65625,-0.375,0.65625
1630070129406,0.65625,-0.375,0.65625
1630070129437,0.640625,-0.390625,0.65625
1630070129468,0.640625,-0.390625,0.65625
1630070129500,0.65625,-0.375,0.65625
1630070129531,0.65625,-0.375,0.671875
1630070129562,0.65625,-0.390625,0.65625
1630070129593,0.65625,-0.375,0.65625
1630070129625,0.65625,-0.375,0.65625
1630070129656,0.65625,-0.375,0.65625
1630070129687,0.65625,-0.375,0.65625
1630070129718,0.65625,-0.390625,0.65625
1630070129750,0.65625,-0.390625,0.65625
1630070129781,0.65625,-0.375,0.65625
1630070129812,0.65625,-0.375,0.65625
1630070129843,0.65625,-0.375,0.65625
1630070129875,0.65625,-0.390625,0.65625
1630070129906,0.65625,-0.375,0.65625
1630070129937,0.65625,-0.375,0.65625
1630070129968,0.65625,-0.375,0.65625
1630070130000,0.65625,-0.375,0.65625
1630070130031,0.65625,-0.375,0.65625
1630070130062,0.65625,-0.375,0.65625
1630070130093,0.65625,-0.390625,0.65625
1630070130125,0.65625,-0.375,0.65625
1630070130156,0.65625,-0.375,0.65625
1630070130187,0.65625,-0.390625,0.65625
1630070130218,0.65625,-0.375,0.65625
1630070130250,0.65625,-0.375,0.640625
1630070130281,0.65625,-0.375,0.65625
1630070130312,0.65625,-0.375,0.65625
1630070130343,0.65625,-0.375,0.65625
1630070130375,0.65625,-0.375,0.65625
1630070130406,0.65625,-0.375,0.65625
1630070130437,0.65625,-0.375,0.65625
1630070130468,0.65625,-0.375,0.640625
1630070130500,0.65625,-0.375,0.65625
1630070130531,0.65625,-0.375,0.65625
1630070130562,0.65625,-0.390625,0.65625
1630070130593,0.65625,-0.375,0.65625
1630070130625,0.65625,-0.375,0.65625
1630070130656,0.65625,-0.390625,0.65625
1630070130687,0.65625,-0.375,0.65625
1630070130718,0.65625,-0.375,0.65625
1630070130750,0.65625,-0.375,0.65625
1630070130781,0.65625,-0.375,0.640625
1630070130812,0.65625,-0.375,0.65625
1630070130843,0.65625,-0.390625,0.65625
1630070130875,0.65625,-0.375,0.65625
1630070130906,0.65625,-0.375,0.65625
1630070130937,0.65625,-0.375,0.65625
1630070130968,0.65625,-0.390625,0.65625
1630070131000,0.640625,-0.375,0.65625
1630070131031,0.65625,-0.375,0.65625
1630070131062,0.65625,-0.375,0.65625
1630070131093,0.65625,-0.375,0.65625
1630070131125,0.65625,-0.375,0.65625
1630070131156,0.65625,-0.375,0.65625
1630070131187,0.65625,-0.375,0.65625
1630070131218,0.640625,-0.375,0.65625
1630070131250,0.65625,-0.375,0.65625
1630070131281,0.65625,-0.375,0.65625
1630070131312,0.65625,-0.375,0.65625
1630070131343,0.65625,-0.390625,0.65625
1630070131375,0.65625,-0.375,0.65625
1630070131406,0.65625,-0.375,0.65625
1630070131437,0.640625,-0.390625,0.65625
1630070131468,0.640625,-0.390625,0.65625
1630070131500,0.65625,-0.375,0.65625
1630070131531,0.65625,-0.375,0.65625
1630070131562,0.65625,-0.375,0.65625
1630070131593,0.640625,-0.375,0.65625
1630070131625,0.640625,-0.375,0.65625
1630070131656,0.65625,-0.390625,0.65625
1630070131687,0.65625,-0.390625,0.65625
1630070131718,0.640625,-0.375,0.65625
1630070131750,0.640625,-0.375,0.65625
1630070131781,0.640625,-0.375,0.65625
1630070131812,0.65625,-0.390625,0.671875
1630070131843,0.640625,-0.375,0.65625
1630070131875,0.640625,-0.390625,0.65625
1630070131906,0.640625,-0.390625,0.65625
1630070131937,0.640625,-0.375,0.65625
1630070131968,0.640625,-0.390625,0.65625
1630070132000,0.640625,-0.375,0.65625
1630070132031,0.640625,-0.390625,0.65625
1630070132062,0.65625,-0.375,0.65625
1630070132093,0.65625,-0.375,0.65625
1630070132125,0.640625,-0.375,0.65625
1630070132156,0.640625,-0.375,0.65625
1630070132187,0.65625,-0.375,0.671875
1630070132218,0.640625,-0.390625,0.65625
1630070132250,0.65625,-0.375,0.65625
1630070132281,0.640625,-0.375,0.65625
1630070132312,0.640625,-0.375,0.65625
1630070132343,0.65625,-0.375,0.65625
1630070132375,0.65625,-0.375,0.65625
1630070132406,0.65625,-0.375,0.65625
1630070132437,0.65625,-0.375,0.65625
1630070132468,0.65625,-0.375,0.65625
1630070132500,0.65625,-0.375,0.65625
1630070132531,0.640625,-0.375,0.65625
1630070132562,0.640625,-0.390625,0.65625
1630070132593,0.65625,-0.390625,0.65625
1630070132625,0.640625,-0.375,0.65625
1630070132656,0.65625,-0.375,0.65625
1630070132687,0.65625,-0.375,0.65625
1630070132718,0.65625,-0.375,0.65625
1630070132750,0.65625,-0.375,0.65625
1630070132781,0.65625,-0.375,0.65625
1630070132812,0.65625,-0.375,0.65625
1630070132843,0.65625,-0.375,0.65625
1630070132875,0.65625,-0.390625,0.65625
1630070132906,0.65625,-0.390625,0.65625
1630070132937,0.65625,-0.375,0.65625
1630070132968,0.65625,-0.375,0.65625
1630070133000,0.640625,-0.390625,0.65625
1630070133031,0.65625,-0.375,0.65625
1630070133062,0.640625,-0.375,0.65625
1630070133093,0.65625,-0.375,0.65625
1630070133125,0.65625,-0.375,0.65625
1630070133156,0.65625,-0.375,0.65625
1630070133187,0.65625,-0.375,0.65625
1630070133218,0.65625,-0.375,0.65625
1630070133250,0.65625,-0.375,0.65625
1630070133281,0.65625,-0.375,0.65625
1630070133312,0.65625,-0.375,0.65625
1630070133343,0.65625,-0.375,0.65625
1630070133375,0.65625,-0.375,0.65625
1630070133406,0.65625,-0.375,0.65625
1630070133437,0.65625,-0.375,0.65625
1630070133468,0.65625,-0.375,0.65625
1630070133500,0.65625,-0.375,0.65625
1630070133531,0.65625,-0.375,0.65625
1630070133562,0.65625,-0.375,0.65625
1630070133593,0.65625,-0.390625,0.65625
1630070133625,0.65625,-0.375,0.65625
1630070133656,0.65625,-0.375,0.65625
1630070133687,0.640625,-0.375,0.65625
1630070133718,0.65625,-0.375,0.65625
1630070133750,0.640625,-0.375,0.65625
1630070133781,0.65625,-0.390625,0.65625
1630070133812,0.65625,-0.375,0.65625
1630070133843,0.640625,-0.375,0.65625
1630070133875,0.65625,-0.375,0.65625
1630070133906,0.65625,-0.375,0.65625
1630070133937,0.65625,-0.375,0.65625
1630070133968,0.65625,-0.375,0.65625
1630070134000,0.65625,-0.375,0.65625
1630070134031,0.640625,-0.375,0.65625
1630070134062,0.65625,-0.375,0.65625
1630070134093,0.640625,-0.375,0.65625
1630070134125,0.65625,-0.375,0.65625
1630070134156,0.65625,-0.375,0.65625
1630070134187,0.65625,-0.375,0.65625
1630070134218,0.640625,-0.390625,0.65625
1630070134250,0.640625,-0.375,0.65625
1630070134281,0.65625,-0.375,0.65625
1630070134312,0.640625,-0.390625,0.65625
1630070134343,0.65625,-0.375,0.65625
1630070134375,0.640625,-0.375,0.65625
1630070134406,0.640625,-0.390625,0.65625
1630070134437,0.65625,-0.375,0.65625
1630070134468,0.65625,-0.375,0.65625
1630070134500,0.65625,-0.375,0.65625
1630070134531,0.65625,-0.375,0.65625
1630070134562,0.640625,-0.375,0.65625
1630070134593,0.640625,-0.375,0.65625
1630070134625,0.640625,-0.375,0.65625
1630070134656,0.640625,-0.390625,0.65625
1630070134687,0.640625,-0.390625,0.65625
1630070134718,0.640625,-0.375,0.65625
1630070134750,0.640625,-0.375,0.65625
1630070134781,0.640625,-0.390625,0.65625
1630070134812,0.640625,-0.375,0.65625
1630070134843,0.65625,-0.375,0.65625
1630070134875,0.65625,-0.375,0.65625
1630070134906,0.65625,-0.390625,0.65625
1630070134937,0.640625,-0.375,0.65625
1630070134968,0.65625,-0.390625,0.65625
1630070135000,0.640625,-0.390625,0.65625
1630070135031,0.65625,-0.375,0.65625
1630070135062,0.65625,-0.375,0.65625
1630070135093,0.640625,-0.375,0.65625
1630070135125,0.65625,-0.390625,0.65625
1630070135156,0.65625,-0.375,0.65625
1630070135187,0.640625,-0.390625,0.65625
1630070135218,0.65625,-0.375,0.65625
1630070135250,0.640625,-0.375,0.65625
1630070135281,0.65625,-0.375,0.65625
1630070135312,0.65625,-0.375,0.65625
1630070135343,0.65625,-0.375,0.65625
1630070135375,0.65625,-0.375,0.65625
1630070135406,0.65625,-0.375,0.65625
1630070135437,0.65625,-0.375,0.65625
1630070135468,0.65625,-0.375,0.65625
1630070135500,0.65625,-0.375,0.65625
1630070135531,0.65625,-0.375,0.65625
1630070135562,0.65625,-0.375,0.65625
1630070135593,0.65625,-0.375,0.65625
1630070135625,0.640625,-0.375,0.65625
1630070135656,0.65625,-0.375,0.65625
1630070135687,0.65625,-0.375,0.65625
1630070135718,0.65625,-0.375,0.65625
1630070135750,0.65625,-0.375,0.65625
1630070135781,0.640625,-0.375,0.65625
1630070135812,0.65625,-0.375,0.65625
1630070135843,0.65625,-0.375,0.65625
1630070135875,0.65625,-0.375,0.65625
1630070135906,0.65625,-0.375,0.65625
1630070135937,0.65625,-0.375,0.65625
1630070135968,0.65625,-0.375,0.65625
1630070136000,0.65625,-0.375,0.65625
1630070136031,0.65625,-0.375,0.65625
1630070136062,0.65625,-0.375,0.65625
1630070136093,0.65625,-0.375,0.65625
1630070136125,0.65625,-0.390625,0.65625
1630070136156,0.65625,-0.375,0.65625
1630070136187,0.65625,-0.375,0.65625
1630070136218,0.65625,-0.375,0.65625
1630070136250,0.65625,-0.375,0.65625
1630070136281,0.65625,-0.375,0.65625
1630070136312,0.65625,-0.375,0.65625
1630070136343,0.65625,-0.375,0.65625
1630070136375,0.65625,-0.390625,0.65625
1630070136406,0.65625,-0.375,0.65625
1630070136437,0.640625,-0.375,0.65625
1630070136468,0.65625,-0.390625,0.65625
1630070136500,0.65625,-0.375,0.65625
1630070136531,0.640625,-0.375,0.65625
1630070136562,0.65625,-0.375,0.65625
1630070136593,0.640625,-0.375,0.65625
1630070136625,0.640625,-0.375,0.65625
1630070136656,0.65625,-0.375,0.65625
1630070136687,0.65625,-0.375,0.65625
1630070136718,0.65625,-0.375,0.65625
1630070136750,0.65625,-0.375,0.65625
1630070136781,0.640625,-0.375,0.65625
1630070136812,0.640625,-0.375,0.65625
1630070136843,0.640625,-0.390625,0.65625
1630070136875,0.640625,-0.375,0.671875
1630070136906,0.640625,-0.375,0.65625
1630070136937,0.640625,-0.375,0.65625
1630070136968,0.640625,-0.375,0.65625
1630070137000,0.65625,-0.390625,0.65625
1630070137031,0.640625,-0.390625,0.65625
1630070137062,0.640625,-0.375,0.671875
1630070137093,0.640625,-0.390625,0.65625
1630070137125,0.625,-0.375,0.671875
1630070137156,0.65625,-0.375,0.671875
1630070137187,0.625,-0.390625,0.65625
1630070137218,0.640625,-0.375,0.65625
1630070137250,0.640625,-0.375,0.65625
1630070137281,0.640625,-0.375,0.65625
1630070137312,0.640625,-0.390625,0.65625
1630070137343,0.640625,-0.390625,0.65625
1630070137375,0.640625,-0.390625,0.65625
1630070137406,0.640625,-0.375,0.671875
1630070137437,0.640625,-0.375,0.65625
1630070137468,0.640625,-0.375,0.65625
1630070137500,0.640625,-0.375,0.65625
1630070137531,0.65625,-0.375,0.65625
1630070137562,0.640625,-0.390625,0.65625
1630070137593,0.640625,-0.390625,0.65625
1630070137625,0.640625,-0.375,0.65625
1630070137656,0.640625,-0.390625,0.65625
1630070137687,0.640625,-0.375,0.65625
1630070137718,0.640625,-0.375,0.65625
1630070137750,0.640625,-0.390625,0.65625
1630070137781,0.640625,-0.375,0.65625
1630070137812,0.65625,-0.375,0.65625
1630070137843,0.640625,-0.390625,0.65625
1630070137875,0.65625,-0.375,0.65625
1630070137906,0.640625,-0.390625,0.65625
1630070137937,0.640625,-0.390625,0.65625
1630070137968,0.65625,-0.375,0.671875
1630070138000,0.640625,-0.375,0.65625
1630070138031,0.65625,-0.390625,0.65625
1630070138062,0.65625,-0.375,0.65625
1630070138093,0.640625,-0.375,0.65625
1630070138125,0.65625,-0.375,0.65625
1630070138156,0.65625,-0.375,0.65625
1630070138187,0.65625,-0.375,0.65625
1630070138218,0.65625,-0.375,0.65625
1630070138250,0.640625,-0.375,0.65625
1630070138281,0.65625,-0.375,0.65625
1630070138312,0.65625,-0.375,0.65625
1630070138343,0.65625,-0.375,0.65625
1630070138375,0.65625,-0.375,0.65625
1630070138406,0.65625,-0.375,0.65625
1630070138437,0.65625,-0.375,0.65625
1630070138468,0.65625,-0.375,0.65625
1630070138500,0.65625,-0.375,0.65625
1630070138531,0.65625,-0.375,0.65625
1630070138562,0.65625,-0.375,0.65625
1630070138593,0.65625,-0.375,0.65625
1630070138625,0.65625,-0.375,0.65625
1630070138656,0.65625,-0.375,0.65625
1630070138687,0.65625,-0.375,0.65625
1630070138718,0.65625,-0.375,0.65625
1630070138750,0.65625,-0.375,0.65625
1630070138781,0.65625,-0.375,0.65625
1630070138812,0.65625,-0.375,0.65625
1630070138843,0.65625,-0.375,0.65625
1630070138875,0.65625,-0.375,0.65625
1630070138906,0.640625,-0.375,0.65625
1630070138937,0.65625,-0.375,0.65625
1630070138968,0.65625,-0.390625,0.65625
1630070139000,0.65625,-0.375,0.65625
1630070139031,0.65625,-0.375,0.65625
1630070139062,0.65625,-0.375,0.65625
1630070139093,0.65625,-0.375,0.65625
1630070139125,0.65625,-0.375,0.65625
1630070139156,0.65625,-0.375,0.65625
1630070139187,0.65625,-0.375,0.65625
1630070139218,0.65625,-0.375,0.65625
1630070139250,0.65625,-0.375,0.65625
1630070139281,0.65625,-0.375,0.65625
1630070139312,0.65625,-0.375,0.65625
1630070139343,0.65625,-0.375,0.65625
1630070139375,0.65625,-0.375,0.65625
1630070139406,0.65625,-0.375,0.65625
1630070139437,0.640625,-0.375,0.65625
1630070139468,0.65625,-0.375,0.65625
1630070139500,0.65625,-0.375,0.65625
1630070139531,0.640625,-0.375,0.65625
1630070139562,0.65625,-0.375,0.65625
1630070139593,0.65625,-0.375,0.65625
1630070139625,0.640625,-0.375,0.65625
1630070139656,0.65625,-0.375,0.65625
1630070139687,0.640625,-0.375,0.671875
1630070139718,0.640625,-0.390625,0.65625
1630070139750,0.640625,-0.375,0.65625
1630070139781,0.640625,-0.375,0.65625
1630070139812,0.640625,-0.375,0.65625
1630070139843,0.640625,-0.390625,0.65625
1630070139875,0.640625,-0.375,0.65625
1630070139906,0.640625,-0.375,0.65625
1630070139937,0.640625,-0.375,0.671875
1630070139968,0.640625,-0.390625,0.65625
1630070140000,0.65625,-0.375,0.65625
1630070140031,0.640625,-0.375,0.65625
1630070140062,0.640625,-0.390625,0.65625
1630070140093,0.640625,-0.390625,0.671875
1630070140125,0.640625,-0.390625,0.65625
1630070140156,0.640625,-0.390625,0.65625
1630070140187,0.640625,-0.390625,0.65625
1630070140218,0.640625,-0.390625,0.65625
1630070140250,0.640625,-0.375,0.65625
1630070140281,0.640625,-0.375,0.65625
1630070140312,0.640625,-0.375,0.65625
1630070140343,0.640625,-0.375,0.65625
1630070140375,0.640625,-0.375,0.65625
1630070140406,0.640625,-0.375,0.671875
1630070140437,0.640625,-0.390625,0.65625
1630070140468,0.640625,-0.390625,0.65625
1630070140500,0.640625,-0.375,0.65625
1630070140531,0.640625,-0.375,0.65625
1630070140562,0.640625,-0.375,0.65625
1630070140593,0.65625,-0.375,0.65625
1630070140625,0.65625,-0.375,0.65625
1630070140656,0.65625,-0.375,0.65625
1630070140687,0.640625,-0.375,0.65625
1630070140718,0.640625,-0.375,0.65625
1630070140750,0.65625,-0.375,0.65625
1630070140781,0.640625,-0.375,0.65625
1630070140812,0.640625,-0.375,0.65625
1630070140843,0.65625,-0.375,0.65625
1630070140875,0.65625,-0.375,0.65625
1630070140906,0.65625,-0.375,0.65625
1630070140937,0.65625,-0.375,0.65625
1630070140968,0.640625,-0.375,0.65625
1630070141000,0.65625,-0.375,0.65625
1630070141031,0.65625,-0.375,0.65625
1630070141062,0.65625,-0.375,0.65625
1630070141093,0.65625,-0.375,0.65625
1630070141125,0.640625,-0.375,0.65625
1630070141156,0.65625,-0.375,0.65625
1630070141187,0.65625,-0.375,0.65625
1630070141218,0.65625,-0.375,0.65625
1630070141250,0.65625,-0.375,0.65625
1630070141281,0.640625,-0.375,0.65625
1630070141312,0.65625,-0.375,0.65625
1630070141343,0.65625,-0.375,0.65625
1630070141375,0.65625,-0.375,0.65625
1630070141406,0.65625,-0.375,0.65625
1630070141437,0.65625,-0.375,0.65625
1630070141468,0.65625,-0.375,0.65625
1630070141500,0.65625,-0.375,0.65625
1630070141531,0.65625,-0.375,0.65625
1630070141562,0.65625,-0.375,0.65625
1630070141593,0.65625,-0.375,0.65625
1630070141625,0.65625,-0.375,0.65625
1630070141656,0.65625,-0.375,0.65625
1630070141687,0.65625,-0.390625,0.65625
1630070141718,0.65625,-0.375,0.65625
1630070141750,0.65625,-0.375,0.65625
1630070141781,0.65625,-0.375,0.65625
1630070141812,0.65625,-0.375,0.65625
1630070141843,0.65625,-0.375,0.65625
1630070141875,0.640625,-0.375,0.65625
1630070141906,0.640625,-0.375,0.65625
1630070141937,0.65625,-0.375,0.65625
1630070141968,0.65625,-0.375,0.65625
1630070142000,0.65625,-0.375,0.65625
1630070142031,0.640625,-0.375,0.65625
1630070142062,0.640625,-0.375,0.65625
1630070142093,0.65625,-0.375,0.65625
1630070142125,0.640625,-0.375,0.65625
1630070142156,0.640625,-0.375,0.65625
1630070142187,0.640625,-0.375,0.65625
1630070142218,0.640625,-0.375,0.65625
1630070142250,0.640625,-0.375,0.65625
1630070142281,0.640625,-0.375,0.65625
1630070142312,0.640625,-0.375,0.65625
1630070142343,0.65625,-0.375,0.65625
1630070142375,0.640625,-0.375,0.65625
1630070142406,0.640625,-0.375,0.671875
1630070142437,0.640625,-0.390625,0.65625
1630070142468,0.640625,-0.390625,0.65625
1630070142500,0.640625,-0.375,0.65625
1630070142531,0.640625,-0.375,0.65625
1630070142562,0.640625,-0.375,0.65625
1630070142593,0.640625,-0.375,0.65625
1630070142625,0.640625,-0.390625,0.65625
1630070142656,0.640625,-0.375,0.671875
1630070142687,0.65625,-0.375,0.671875
1630070142718,0.640625,-0.390625,0.65625
1630070142750,0.640625,-0.390625,0.671875
1630070142781,0.640625,-0.375,0.65625
1630070142812,0.65625,-0.390625,0.65625
1630070142843,0.640625,-0.390625,0.65625
1630070142875,0.640625,-0.375,0.65625
1630070142906,0.640625,-0.390625,0.65625
1630070142937,0.640625,-0.375,0.65625
1630070142968,0.640625,-0.375,0.671875
1630070143000,0.640625,-0.390625,0.671875
1630070143031,0.640625,-0.375,0.65625
1630070143062,0.640625,-0.375,0.65625
1630070143093,0.640625,-0.375,0.65625
1630070143125,0.65625,-0.375,0.671875
1630070143156,0.640625,-0.375,0.671875
1630070143187,0.640625,-0.375,0.65625
1630070143218,0.65625,-0.390625,0.65625
1630070143250,0.640625,-0.375,0.65625
1630070143281,0.640625,-0.375,0.65625
1630070143312,0.65625,-0.390625,0.65625
1630070143343,0.65625,-0.375,0.65625
1630070143375,0.640625,-0.375,0.65625
1630070143406,0.65625,-0.375,0.65625
1630070143437,0.65625,-0.375,0.65625
1630070143468,0.65625,-0.375,0.65625
1630070143500,0.65625,-0.375,0.65625
1630070143531,0.640625,-0.375,0.65625
1630070143562,0.640625,-0.375,0.65625
1630070143593,0.65625,-0.375,0.65625
1630070143625,0.65625,-0.375,0.65625
1630070143656,0.65625,-0.375,0.65625
1630070143687,0.65625,-0.375,0.65625
1630070143718,0.65625,-0.375,0.65625
1630070143750,0.65625,-0.375,0.65625
1630070143781,0.65625,-0.375,0.65625
1630070143812,0.65625,-0.375,0.65625
1630070143843,0.65625,-0.375,0.65625
1630070143875,0.65625,-0.375,0.65625
1630070143906,0.65625,-0.375,0.65625
1630070143937,0.65625,-0.375,0.65625
1630070143968,0.65625,-0.375,0.65625
1630070144000,0.65625,-0.375,0.65625
1630070144031,0.65625,-0.375,0.65625
1630070144062,0.65625,-0.375,0.65625
1630070144093,0.65625,-0.375,0.65625
1630070144125,0.65625,-0.375,0.65625
1630070144156,0.65625,-0.375,0.65625
1630070144187,0.640625,-0.375,0.65625
1630070144218,0.65625,-0.375,0.65625
1630070144250,0.65625,-0.375,0.65625
1630070144281,0.640625,-0.375,0.65625
1630070144312,0.65625,-0.375,0.65625
1630070144343,0.65625,-0.375,0.65625
1630070144375,0.65625,-0.375,0.65625
1630070144406,0.65625,-0.375,0.65625
1630070144437,0.65625,-0.375,0.65625
1630070144468,0.65625,-0.375,0.65625
1630070144500,0.65625,-0.375,0.65625
1630070144531,0.65625,-0.375,0.65625
1630070144562,0.65625,-0.375,0.65625
1630070144593,0.65625,-0.375,0.65625
1630070144625,0.65625,-0.375,0.65625
1630070144656,0.65625,-0.375,0.65625
1630070144687,0.65625,-0.375,0.65625
1630070144718,0.65625,-0.375,0.65625
1630070144750,0.65625,-0.375,0.65625
1630070144781,0.65625,-0.375,0.65625
1630070144812,0.640625,-0.375,0.65625
1630070144843,0.65625,-0.375,0.65625
1630070144875,0.65625,-0.375,0.65625
1630070144906,0.640625,-0.375,0.65625
1630070144937,0.65625,-0.375,0.65625
1630070144968,0.640625,-0.390625,0.65625
1630070145000,0.640625,-0.375,0.65625
1630070145031,0.640625,-0.375,0.65625
1630070145062,0.640625,-0.375,0.65625
1630070145093,0.640625,-0.390625,0.65625
1630070145125,0.640625,-0.375,0.65625
1630070145156,0.640625,-0.390625,0.65625
1630070145187,0.640625,-0.390625,0.65625
1630070145218,0.640625,-0.375,0.65625
1630070145250,0.640625,-0.375,0.671875
1630070145281,0.640625,-0.390625,0.65625
1630070145312,0.640625,-0.375,0.65625
1630070145343,0.640625,-0.375,0.65625
1630070145375,0.640625,-0.390625,0.65625
1630070145406,0.640625,-0.390625,0.65625
1630070145437,0.640625,-0.375,0.65625
1630070145468,0.640625,-0.375,0.65625
1630070145500,0.640625,-0.375,0.65625
1630070145531,0.65625,-0.375,0.65625
1630070145562,0.640625,-0.390625,0.65625
1630070145593,0.640625,-0.375,0.65625
1630070145625,0.65625,-0.375,0.65625
1630070145656,0.640625,-0.375,0.671875
1630070145687,0.640625,-0.375,0.65625
1630070145718,0.640625,-0.375,0.65625
1630070145750,0.65625,-0.375,0.65625
1630070145781,0.640625,-0.375,0.65625
1630070145812,0.640625,-0.375,0.65625
1630070145843,0.640625,-0.390625,0.65625
1630070145875,0.640625,-0.375,0.65625
1630070145906,0.640625,-0.375,0.65625
1630070145937,0.65625,-0.375,0.65625
1630070145968,0.640625,-0.375,0.65625
1630070146000,0.65625,-0.375,0.65625
1630070146031,0.65625,-0.375,0.65625
1630070146062,0.65625,-0.375,0.65625
1630070146093,0.640625,-0.375,0.65625
1630070146125,0.65625,-0.375,0.65625
1630070146156,0.65625,-0.375,0.65625
1630070146187,0.65625,-0.375,0.65625
1630070146218,0.65625,-0.375,0.671875
1630070146250,0.640625,-0.390625,0.65625
1630070146281,0.65625,-0.375,0.65625
1630070146312,0.65625,-0.375,0.65625
1630070146343,0.640625,-0.375,0.65625
1630070146375,0.65625,-0.375,0.65625
1630070146406,0.65625,-0.375,0.65625
1630070146437,0.65625,-0.375,0.65625
1630070146468,0.65625,-0.375,0.65625
1630070146500,0.65625,-0.375,0.65625
1630070146531,0.65625,-0.375,0.65625
1630070146562,0.65625,-0.375,0.65625
1630070146593,0.65625,-0.375,0.65625
1630070146625,0.65625,-0.375,0.65625
1630070146656,0.65625,-0.375,0.65625
1630070146687,0.65625,-0.375,0.65625
1630070146718,0.65625,-0.375,0.65625
1630070146750,0.65625,-0.375,0.65625
1630070146781,0.65625,-0.375,0.65625
1630070146812,0.65625,-0.375,0.65625
1630070146843,0.65625,-0.375,0.65625
1630070146875,0.65625,-0.375,0.65625
1630070146906,0.65625,-0.375,0.65625
1630070146937,0.65625,-0.390625,0.65625
1630070146968,0.65625,-0.375,0.65625
1630070147000,0.65625,-0.375,0.65625
1630070147031,0.640625,-0.375,0.65625
1630070147062,0.65625,-0.375,0.65625
1630070147093,0.65625,-0.375,0.65625
1630070147125,0.65625,-0.375,0.65625
1630070147156,0.65625,-0.375,0.65625
1630070147187,0.65625,-0.375,0.65625
1630070147218,0.65625,-0.375,0.65625
1630070147250,0.65625,-0.375,0.65625
1630070147281,0.640625,-0.375,0.65625
1630070147312,0.640625,-0.375,0.65625
1630070147343,0.65625,-0.375,0.65625
1630070147375,0.640625,-0.375,0.65625
1630070147406,0.65625,-0.375,0.65625
1630070147437,0.65625,-0.375,0.65625
1630070147468,0.65625,-0.375,0.65625
1630070147500,0.640625,-0.375,0.65625
1630070147531,0.640625,-0.375,0.65625
1630070147562,0.640625,-0.375,0.65625
1630070147593,0.640625,-0.375,0.65625
1630070147625,0.640625,-0.390625,0.65625
1630070147656,0.65625,-0.375,0.65625
1630070147687,0.640625,-0.375,0.65625
1630070147718,0.640625,-0.375,0.65625
1630070147750,0.65625,-0.375,0.65625
1630070147781,0.640625,-0.390625,0.65625
1630070147812,0.640625,-0.375,0.65625
1630070147843,0.640625,-0.375,0.65625
1630070147875,0.640625,-0.375,0.671875
1630070147906,0.640625,-0.375,0.65625
1630070147937,0.640625,-0.375,0.65625
1630070147968,0.640625,-0.390625,0.65625
1630070148000,0.640625,-0.390625,0.65625
1630070148031,0.640625,-0.375,0.671875
1630070148062,0.640625,-0.375,0.65625
1630070148093,0.640625,-0.390625,0.65625
1630070148125,0.640625,-0.390625,0.65625
1630070148156,0.640625,-0.375,0.65625
1630070148187,0.640625,-0.390625,0.65625
1630070148218,0.640625,-0.390625,0.65625
1630070148250,0.640625,-0.375,0.65625
1630070148281,0.640625,-0.390625,0.65625
1630070148312,0.640625,-0.375,0.65625
1630070148343,0.65625,-0.375,0.671875
1630070148375,0.640625,-0.375,0.65625
1630070148406,0.640625,-0.390625,0.65625
1630070148437,0.640625,-0.375,0.65625
1630070148468,0.640625,-0.375,0.65625
1630070148500,0.640625,-0.375,0.65625
1630070148531,0.65625,-0.375,0.65625
1630070148562,0.640625,-0.375,0.65625
1630070148593,0.65625,-0.375,0.65625
1630070148625,0.640625,-0.375,0.65625
1630070148656,0.640625,-0.390625,0.65625
1630070148687,0.65625,-0.375,0.65625
1630070148718,0.65625,-0.375,0.65625
1630070148750,0.640625,-0.375,0.65625
1630070148781,0.65625,-0.375,0.65625
1630070148812,0.640625,-0.375,0.65625
1630070148843,0.65625,-0.375,0.65625
1630070148875,0.65625,-0.375,0.65625
1630070148906,0.640625,-0.375,0.65625
1630070148937,0.65625,-0.375,0.65625
1630070148968,0.65625,-0.390625,0.65625
1630070149000,0.65625,-0.375,0.65625
1630070149031,0.65625,-0.375,0.65625
1630070149062,0.65625,-0.375,0.65625
1630070149093,0.640625,-0.375,0.65625
1630070149125,0.65625,-0.375,0.65625
1630070149156,0.65625,-0.390625,0.65625
1630070149187,0.65625,-0.375,0.65625
1630070149218,0.65625,-0.375,0.65625
1630070149250,0.65625,-0.375,0.65625
1630070149281,0.65625,-0.375,0.65625
1630070149312,0.640625,-0.375,0.65625
1630070149343,0.65625,-0.375,0.65625
1630070149375,0.65625,-0.375,0.65625
1630070149406,0.65625,-0.375,0.65625
1630070149437,0.65625,-0.375,0.65625
1630070149468,0.65625,-0.375,0.65625
1630070149500,0.65625,-0.375,0.65625
1630070149531,0.65625,-0.375,0.65625
1630070149562,0.65625,-0.375,0.65625
1630070149593,0.640625,-0.375,0.65625
1630070149625,0.65625,-0.375,0.65625
1630070149656,0.65625,-0.390625,0.65625
1630070149687,0.65625,-0.375,0.65625
1630070149718,0.640625,-0.375,0.65625
1630070149750,0.65625,-0.375,0.65625
1630070149781,0.65625,-0.375,0.640625
1630070149812,0.65625,-0.375,0.65625
1630070149843,0.65625,-0.375,0.65625
1630070149875,0.65625,-0.375,0.65625
1630070149906,0.640625,-0.375,0.65625
1630070149937,0.65625,-0.375,0.65625
1630070149968,0.65625,-0.375,0.65625
1630070150000,0.640625,-0.375,0.65625
1630070150031,0.65625,-0.375,0.65625
1630070150062,0.65625,-0.375,0.65625
1630070150093,0.65625,-0.375,0.65625
1630070150125,0.65625,-0.375,0.65625
1630070150156,0.640625,-0.390625,0.65625
1630070150187,0.65625,-0.375,0.65625
1630070150218,0.640625,-0.375,0.65625
1630070150250,0.65625,-0.390625,0.65625
1630070150281,0.640625,-0.375,0.65625
1630070150312,0.65625,-0.375,0.65625
1630070150343,0.640625,-0.390625,0.65625
1630070150375,0.640625,-0.375,0.65625
1630070150406,0.65625,-0.375,0.65625
1630070150437,0.640625,-0.375,0.65625
1630070150468,0.640625,-0.375,0.65625
1630070150500,0.640625,-0.375,0.65625
1630070150531,0.640625,-0.375,0.65625
1630070150562,0.640625,-0.375,0.65625
1630070150593,0.640625,-0.390625,0.65625
1630070150625,0.640625,-0.390625,0.65625
1630070150656,0.640625,-0.390625,0.65625
1630070150687,0.640625,-0.375,0.65625
1630070150718,0.640625,-0.375,0.65625
1630070150750,0.640625,-0.375,0.65625
1630070150781,0.640625,-0.390625,0.65625
1630070150812,0.65625,-0.375,0.65625
1630070150843,0.640625,-0.390625,0.65625
1630070150875,0.640625,-0.375,0.65625
1630070150906,0.640625,-0.375,0.65625
1630070150937,0.640625,-0.390625,0.65625
1630070150968,0.640625,-0.375,0.65625
1630070151000,0.640625,-0.390625,0.65625
1630070151031,0.65625,-0.390625,0.65625
1630070151062,0.65625,-0.375,0.65625
1630070151093,0.65625,-0.375,0.65625
1630070151125,0.640625,-0.375,0.65625
1630070151156,0.65625,-0.375,0.65625
1630070151187,0.65625,-0.375,0.65625
1630070151218,0.65625,-0.375,0.65625
1630070151250,0.640625,-0.375,0.65625
1630070151281,0.640625,-0.390625,0.65625
1630070151312,0.65625,-0.375,0.65625
1630070151343,0.65625,-0.375,0.65625
1630070151375,0.65625,-0.375,0.65625
1630070151406,0.65625,-0.375,0.65625
1630070151437,0.65625,-0.375,0.65625
1630070151468,0.65625,-0.375,0.65625
1630070151500,0.65625,-0.375,0.65625
1630070151531,0.65625,-0.375,0.65625
1630070151562,0.640625,-0.375,0.65625
1630070151593,0.65625,-0.375,0.65625
1630070151625,0.65625,-0.375,0.65625
1630070151656,0.65625,-0.375,0.65625
1630070151687,0.65625,-0.390625,0.65625
1630070151718,0.65625,-0.375,0.65625
1630070151750,0.65625,-0.375,0.65625
1630070151781,0.65625,-0.375,0.65625
1630070151812,0.65625,-0.375,0.65625
1630070151843,0.65625,-0.375,0.65625
1630070151875,0.65625,-0.375,0.65625
1630070151906,0.65625,-0.375,0.65625
1630070151937,0.65625,-0.375,0.65625
1630070151968,0.65625,-0.375,0.65625
1630070152000,0.65625,-0.375,0.65625
1630070152031,0.65625,-0.375,0.65625
1630070152062,0.65625,-0.375,0.65625
1630070152093,0.65625,-0.375,0.65625
1630070152125,0.65625,-0.375,0.65625
1630070152156,0.65625,-0.375,0.65625
1630070152187,0.65625,-0.375,0.65625
1630070152218,0.65625,-0.375,0.65625
1630070152250,0.65625,-0.375,0.65625
1630070152281,0.65625,-0.375,0.65625
1630070152312,0.640625,-0.375,0.65625
1630070152343,0.65625,-0.375,0.65625
1630070152375,0.65625,-0.390625,0.65625
1630070152406,0.65625,-0.375,0.65625
1630070152437,0.65625,-0.375,0.65625
1630070152468,0.640625,-0.375,0.65625
1630070152500,0.65625,-0.375,0.65625
1630070152531,0.65625,-0.375,0.65625
1630070152562,0.640625,-0.375,0.65625
1630070152593,0.65625,-0.375,0.65625
1630070152625,0.640625,-0.375,0.65625
1630070152656,0.65625,-0.375,0.65625
1630070152687,0.65625,-0.375,0.65625
1630070152718,0.640625,-0.390625,0.65625
1630070152750,0.65625,-0.390625,0.65625
1630070152781,0.65625,-0.375,0.65625
1630070152812,0.640625,-0.375,0.65625
1630070152843,0.65625,-0.375,0.65625
1630070152875,0.65625,-0.375,0.65625
1630070152906,0.640625,-0.390625,0.65625
1630070152937,0.640625,-0.375,0.671875
1630070152968,0.640625,-0.375,0.65625
1630070153000,0.640625,-0.375,0.65625
1630070153031,0.640625,-0.375,0.671875
1630070153062,0.640625,-0.375,0.671875
1630070153093,0.640625,-0.375,0.671875
1630070153125,0.640625,-0.375,0.671875
1630070153156,0.640625,-0.390625,0.65625
1630070153187,0.640625,-0.390625,0.65625
1630070153218,0.640625,-0.390625,0.671875
1630070153250,0.640625,-0.390625,0.65625
1630070153281,0.640625,-0.375,0.65625
1630070153312,0.640625,-0.375,0.65625
1630070153343,0.640625,-0.375,0.65625
1630070153375,0.640625,-0.390625,0.65625
1630070153406,0.640625,-0.390625,0.65625
1630070153437,0.65625,-0.375,0.671875
1630070153468,0.640625,-0.375,0.65625
1630070153500,0.640625,-0.375,0.65625
1630070153531,0.640625,-0.375,0.65625
1630070153562,0.65625,-0.375,0.65625
1630070153593,0.640625,-0.375,0.65625
1630070153625,0.640625,-0.375,0.65625
1630070153656,0.640625,-0.375,0.65625
1630070153687,0.640625,-0.375,0.65625
1630070153718,0.640625,-0.375,0.65625
1630070153750,0.65625,-0.375,0.65625
1630070153781,0.640625,-0.375,0.65625
1630070153812,0.640625,-0.375,0.65625
1630070153843,0.65625,-0.375,0.65625
1630070153875,0.65625,-0.375,0.65625
1630070153906,0.640625,-0.375,0.65625
1630070153937,0.640625,-0.375,0.65625
1630070153968,0.640625,-0.375,0.65625
1630070154000,0.65625,-0.375,0.65625
1630070154031,0.640625,-0.375,0.65625
1630070154062,0.640625,-0.375,0.65625
1630070154093,0.65625,-0.375,0.65625
1630070154125,0.65625,-0.375,0.65625
1630070154156,0.640625,-0.375,0.65625
1630070154187,0.65625,-0.375,0.65625
1630070154218,0.640625,-0.375,0.65625
1630070154250,0.65625,-0.375,0.65625
1630070154281,0.65625,-0.375,0.65625
1630070154312,0.640625,-0.375,0.65625
1630070154343,0.65625,-0.375,0.65625
1630070154375,0.65625,-0.375,0.65625
1630070154406,0.65625,-0.375,0.65625
1630070154437,0.65625,-0.375,0.65625
1630070154468,0.65625,-0.375,0.65625
1630070154500,0.65625,-0.375,0.65625
1630070154531,0.65625,-0.375,0.65625
1630070154562,0.640625,-0.375,0.65625
1630070154593,0.65625,-0.375,0.65625
1630070154625,0.65625,-0.375,0.65625
1630070154656,0.65625,-0.375,0.65625
1630070154687,0.65625,-0.375,0.65625
1630070154718,0.65625,-0.375,0.65625
1630070154750,0.65625,-0.375,0.65625
1630070154781,0.65625,-0.375,0.65625
1630070154812,0.65625,-0.375,0.65625
1630070154843,0.65625,-0.375,0.65625
1630070154875,0.65625,-0.375,0.65625
1630070154906,0.65625,-0.375,0.65625
1630070154937,0.65625,-0.375,0.65625
1630070154968,0.65625,-0.375,0.65625
1630070155000,0.65625,-0.375,0.65625
1630070155031,0.65625,-0.375,0.65625
1630070155062,0.65625,-0.375,0.65625
1630070155093,0.65625,-0.375,0.65625
1630070155125,0.65625,-0.375,0.65625
1630070155156,0.65625,-0.375,0.65625
1630070155187,0.640625,-0.375,0.65625
1630070155218,0.65625,-0.375,0.65625
1630070155250,0.65625,-0.375,0.65625
1630070155281,0.640625,-0.375,0.65625
1630070155312,0.65625,-0.375,0.65625
1630070155343,0.65625,-0.375,0.65625
1630070155375,0.65625,-0.375,0.671875
1630070155406,0.65625,-0.375,0.65625
1630070155437,0.640625,-0.375,0.65625
1630070155468,0.65625,-0.375,0.65625
1630070155500,0.65625,-0.375,0.65625
1630070155531,0.65625,-0.375,0.65625
1630070155562,0.640625,-0.390625,0.65625
1630070155593,0.640625,-0.375,0.65625
1630070155625,0.640625,-0.375,0.65625
1630070155656,0.640625,-0.375,0.65625
1630070155687,0.640625,-0.375,0.65625
1630070155718,0.65625,-0.375,0.65625
1630070155750,0.640625,-0.375,0.65625
1630070155781,0.640625,-0.375,0.671875
1630070155812,0.640625,-0.390625,0.671875
1630070155843,0.640625,-0.375,0.65625
1630070155875,0.640625,-0.375,0.65625
1630070155906,0.640625,-0.375,0.65625
1630070155937,0.640625,-0.375,0.65625
1630070155968,0.640625,-0.375,0.65625
1630070156000,0.640625,-0.375,0.671875
1630070156031,0.640625,-0.375,0.671875
1630070156062,0.640625,-0.375,0.671875
1630070156093,0.640625,-0.375,0.65625
1630070156125,0.640625,-0.375,0.65625
1630070156156,0.640625,-0.375,0.65625
1630070156187,0.640625,-0.375,0.65625
1630070156218,0.640625,-0.390625,0.65625
1630070156250,0.640625,-0.375,0.65625
1630070156281,0.640625,-0.375,0.65625
1630070156312,0.65625,-0.375,0.65625
1630070156343,0.640625,-0.375,0.65625
1630070156375,0.640625,-0.375,0.65625
1630070156406,0.640625,-0.375,0.671875
1630070156437,0.65625,-0.375,0.65625
1630070156468,0.65625,-0.375,0.65625
1630070156500,0.640625,-0.375,0.65625
1630070156531,0.640625,-0.390625,0.65625
1630070156562,0.65625,-0.375,0.65625
1630070156593,0.65625,-0.375,0.65625
1630070156625,0.640625,-0.375,0.65625
1630070156656,0.65625,-0.375,0.65625
1630070156687,0.640625,-0.375,0.65625
1630070156718,0.640625,-0.375,0.65625
1630070156750,0.65625,-0.375,0.65625
1630070156781,0.640625,-0.375,0.65625
1630070156812,0.65625,-0.375,0.65625
1630070156843,0.65625,-0.375,0.65625
1630070156875,0.640625,-0.375,0.65625
1630070156906,0.65625,-0.375,0.65625
1630070156937,0.640625,-0.375,0.65625
1630070156968,0.640625,-0.375,0.65625
1630070157000,0.65625,-0.375,0.65625
1630070157031,0.65625,-0.375,0.65625
1630070157062,0.65625,-0.375,0.65625
1630070157093,0.65625,-0.375,0.65625
1630070157125,0.65625,-0.375,0.65625
1630070157156,0.65625,-0.375,0.65625
1630070157187,0.65625,-0.375,0.65625
1630070157218,0.65625,-0.375,0.65625
1630070157250,0.65625,-0.375,0.65625
1630070157281,0.65625,-0.375,0.65625
1630070157312,0.65625,-0.375,0.65625
1630070157343,0.65625,-0.375,0.65625
1630070157375,0.65625,-0.375,0.65625
1630070157406,0.65625,-0.375,0.65625
1630070157437,0.65625,-0.375,0.65625
1630070157468,0.65625,-0.375,0.65625
1630070157500,0.65625,-0.375,0.65625
1630070157531,0.65625,-0.375,0.65625
1630070157562,0.65625,-0.375,0.65625
1630070157593,0.65625,-0.375,0.65625
1630070157625,0.65625,-0.375,0.65625
1630070157656,0.65625,-0.375,0.65625
1630070157687,0.65625,-0.375,0.65625
1630070157718,0.65625,-0.375,0.65625
1630070157750,0.65625,-0.375,0.65625
1630070157781,0.65625,-0.375,0.65625
1630070157812,0.640625,-0.375,0.65625
1630070157843,0.65625,-0.375,0.65625
1630070157875,0.65625,-0.375,0.65625
1630070157906,0.640625,-0.375,0.65625
1630070157937,0.65625,-0.375,0.65625
1630070157968,0.65625,-0.390625,0.65625
1630070158000,0.65625,-0.375,0.65625
1630070158031,0.65625,-0.375,0.625
1630070158062,0.640625,-0.375,0.65625
1630070158093,0.65625,-0.375,0.65625
1630070158125,0.65625,-0.375,0.65625
1630070158156,0.65625,-0.375,0.65625
1630070158187,0.640625,-0.375,0.65625
1630070158218,0.65625,-0.375,0.65625
1630070158250,0.65625,-0.375,0.65625
1630070158281,0.65625,-0.375,0.65625
1630070158312,0.640625,-0.375,0.65625
1630070158343,0.640625,-0.375,0.65625
1630070158375,0.65625,-0.375,0.65625
1630070158406,0.65625,-0.375,0.65625
1630070158437,0.640625,-0.375,0.65625
1630070158468,0.65625,-0.375,0.65625
1630070158500,0.640625,-0.375,0.671875
1630070158531,0.640625,-0.375,0.65625
1630070158562,0.640625,-0.375,0.671875
1630070158593,0.640625,-0.375,0.65625
1630070158625,0.640625,-0.375,0.671875
1630070158656,0.65625,-0.375,0.671875
1630070158687,0.640625,-0.390625,0.65625
1630070158718,0.640625,-0.375,0.65625
1630070158750,0.640625,-0.375,0.65625
1630070158781,0.640625,-0.375,0.65625
1630070158812,0.640625,-0.375,0.65625
1630070158843,0.640625,-0.375,0.65625
1630070158875,0.640625,-0.375,0.671875
1630070158906,0.640625,-0.375,0.65625
1630070158937,0.640625,-0.390625,0.65625
1630070158968,0.640625,-0.375,0.65625
1630070159000,0.640625,-0.375,0.65625
1630070159031,0.640625,-0.390625,0.65625
1630070159062,0.640625,-0.375,0.65625
1630070159093,0.640625,-0.375,0.65625
1630070159125,0.65625,-0.375,0.65625
1630070159156,0.65625,-0.375,0.65625
1630070159187,0.640625,-0.375,0.65625
1630070159218,0.65625,-0.375,0.65625
1630070159250,0.640625,-0.375,0.65625
1630070159281,0.640625,-0.375,0.65625
1630070159312,0.65625,-0.375,0.65625
1630070159343,0.65625,-0.390625,0.65625
1630070159375,0.65625,-0.375,0.65625
1630070159406,0.65625,-0.375,0.65625
1630070159437,0.640625,-0.375,0.65625
1630070159468,0.640625,-0.390625,0.65625
1630070159500,0.65625,-0.375,0.65625
1630070159531,0.65625,-0.375,0.65625
1630070159562,0.65625,-0.375,0.65625
1630070159593,0.65625,-0.375,0.65625
1630070159625,0.65625,-0.375,0.65625
1630070159656,0.65625,-0.375,0.65625
1630070159687,0.65625,-0.375,0.65625
1630070159718,0.65625,-0.375,0.65625
1630070159750,0.65625,-0.375,0.65625
1630070159781,0.65625,-0.375,0.65625
1630070159812,0.65625,-0.375,0.65625
1630070159843,0.65625,-0.375,0.65625
1630070159875,0.65625,-0.375,0.65625
1630070159906,0.65625,-0.375,0.65625
1630070159937,0.640625,-0.375,0.65625
1630070159968,0.65625,-0.375,0.65625
1630070160000,0.65625,-0.375,0.65625
1630070160031,0.65625,-0.375,0.65625
1630070160062,0.65625,-0.375,0.65625
1630070160093,0.65625,-0.375,0.65625
1630070160125,0.640625,-0.375,0.65625
1630070160156,0.65625,-0.375,0.65625
1630070160187,0.65625,-0.375,0.65625
1630070160218,0.65625,-0.375,0.65625
1630070160250,0.65625,-0.375,0.65625
1630070160281,0.65625,-0.375,0.65625
1630070160312,0.65625,-0.375,0.65625
1630070160343,0.65625,-0.375,0.65625
1630070160375,0.65625,-0.375,0.65625
1630070160406,0.65625,-0.375,0.65625
1630070160437,0.65625,-0.375,0.65625
1630070160468,0.65625,-0.375,0.65625
1630070160500,0.65625,-0.375,0.65625
1630070160531,0.65625,-0.375,0.65625
1630070160562,0.65625,-0.375,0.65625
1630070160593,0.65625,-0.375,0.65625
1630070160625,0.65625,-0.375,0.65625
1630070160656,0.65625,-0.375,0.65625
1630070160687,0.65625,-0.390625,0.65625
1630070160718,0.65625,-0.375,0.65625
1630070160750,0.65625,-0.375,0.65625
1630070160781,0.640625,-0.375,0.65625
1630070160812,0.65625,-0.375,0.65625
1630070160843,0.65625,-0.375,0.65625
1630070160875,0.65625,-0.375,0.65625
1630070160906,0.65625,-0.375,0.65625
1630070160937,0.65625,-0.375,0.65625
1630070160968,0.65625,-0.375,0.65625
1630070161000,0.65625,-0.375,0.65625
1630070161031,0.640625,-0.375,0.65625
1630070161062,0.65625,-0.375,0.65625
1630070161093,0.65625,-0.375,0.65625
1630070161125,0.65625,-0.375,0.65625
1630070161156,0.640625,-0.375,0.65625
1630070161187,0.65625,-0.375,0.65625
1630070161218,0.65625,-0.375,0.65625
1630070161250,0.640625,-0.375,0.65625
1630070161281,0.640625,-0.375,0.65625
1630070161312,0.640625,-0.375,0.65625
1630070161343,0.65625,-0.375,0.65625
1630070161375,0.640625,-0.390625,0.65625
1630070161406,0.640625,-0.375,0.65625
1630070161437,0.640625,-0.375,0.65625
1630070161468,0.640625,-0.375,0.65625
1630070161500,0.65625,-0.375,0.65625
1630070161531,0.640625,-0.375,0.65625
1630070161562,0.640625,-0.375,0.65625
1630070161593,0.640625,-0.375,0.65625
1630070161625,0.65625,-0.375,0.65625
1630070161656,0.65625,-0.375,0.65625
1630070161687,0.640625,-0.375,0.65625
1630070161718,0.640625,-0.390625,0.65625
1630070161750,0.65625,-0.375,0.65625
1630070161781,0.640625,-0.375,0.65625
1630070161812,0.65625,-0.375,0.65625
1630070161843,0.65625,-0.375,0.65625
1630070161875,0.65625,-0.375,0.65625
1630070161906,0.65625,-0.375,0.65625
1630070161937,0.640625,-0.375,0.65625
1630070161968,0.65625,-0.375,0.65625
1630070162000,0.65625,-0.375,0.65625
1630070162031,0.65625,-0.390625,0.65625
1630070162062,0.65625,-0.375,0.65625
1630070162093,0.65625,-0.375,0.65625
1630070162125,0.65625,-0.375,0.65625
1630070162156,0.65625,-0.375,0.65625
1630070162187,0.65625,-0.375,0.65625
1630070162218,0.65625,-0.375,0.65625
1630070162250,0.65625,-0.375,0.65625
1630070162281,0.65625,-0.375,0.65625
1630070162312,0.65625,-0.375,0.65625
1630070162343,0.65625,-0.375,0.65625
1630070162375,0.65625,-0.375,0.65625
1630070162406,0.65625,-0.375,0.65625
1630070162437,0.640625,-0.375,0.65625
1630070162468,0.65625,-0.375,0.65625
1630070162500,0.65625,-0.375,0.65625
1630070162531,0.65625,-0.375,0.65625
1630070162562,0.65625,-0.375,0.65625
1630070162593,0.65625,-0.375,0.65625
1630070162625,0.640625,-0.375,0.65625
1630070162656,0.65625,-0.375,0.65625
1630070162687,0.65625,-0.375,0.65625
1630070162718,0.65625,-0.375,0.65625
1630070162750,0.65625,-0.375,0.65625
1630070162781,0.640625,-0.375,0.65625
1630070162812,0.65625,-0.375,0.65625
1630070162843,0.65625,-0.375,0.65625
1630070162875,0.65625,-0.375,0.65625
1630070162906,0.65625,-0.375,0.65625
1630070162937,0.65625,-0.375,0.65625
1630070162968,0.65625,-0.375,0.65625
1630070163000,0.65625,-0.375,0.65625
1630070163031,0.65625,-0.375,0.65625
1630070163062,0.65625,-0.375,0.65625
1630070163093,0.65625,-0.375,0.65625
1630070163125,0.65625,-0.375,0.65625
1630070163156,0.65625,-0.375,0.65625
1630070163187,0.65625,-0.375,0.65625
1630070163218,0.65625,-0.375,0.65625
1630070163250,0.65625,-0.375,0.65625
1630070163281,0.65625,-0.375,0.65625
1630070163312,0.65625,-0.375,0.65625
1630070163343,0.65625,-0.375,0.65625
1630070163375,0.65625,-0.375,0.640625
1630070163406,0.65625,-0.375,0.65625
1630070163437,0.65625,-0.375,0.65625
1630070163468,0.640625,-0.375,0.65625
1630070163500,0.65625,-0.375,0.65625
1630070163531,0.65625,-0.375,0.65625
1630070163562,0.65625,-0.375,0.65625
1630070163593,0.65625,-0.375,0.65625
1630070163625,0.65625,-0.375,0.65625
1630070163656,0.65625,-0.375,0.65625
1630070163687,0.65625,-0.375,0.65625
1630070163718,0.65625,-0.375,0.65625
1630070163750,0.65625,-0.375,0.65625
1630070163781,0.65625,-0.375,0.65625
1630070163812,0.65625,-0.375,0.65625
1630070163843,0.65625,-0.375,0.65625
1630070163875,0.65625,-0.375,0.65625
1630070163906,0.65625,-0.375,0.65625
1630070163937,0.640625,-0.375,0.65625
1630070163968,0.65625,-0.375,0.65625
1630070164000,0.640625,-0.375,0.65625
1630070164031,0.640625,-0.375,0.65625
1630070164062,0.65625,-0.375,0.65625
1630070164093,0.65625,-0.375,0.65625
1630070164125,0.640625,-0.375,0.65625
1630070164156,0.640625,-0.375,0.65625
1630070164187,0.640625,-0.375,0.65625
1630070164218,0.640625,-0.375,0.65625
1630070164250,0.65625,-0.375,0.65625
1630070164281,0.640625,-0.375,0.65625
1630070164312,0.640625,-0.375,0.65625
1630070164343,0.640625,-0.375,0.65625
1630070164375,0.640625,-0.375,0.65625
1630070164406,0.640625,-0.375,0.65625
1630070164437,0.640625,-0.375,0.65625
1630070164468,0.65625,-0.375,0.65625
1630070164500,0.640625,-0.375,0.671875
1630070164531,0.640625,-0.375,0.65625
1630070164562,0.65625,-0.375,0.65625
1630070164593,0.65625,-0.390625,0.65625
1630070164625,0.65625,-0.375,0.65625
1630070164656,0.65625,-0.375,0.65625
1630070164687,0.65625,-0.375,0.65625
1630070164718,0.65625,-0.375,0.65625
1630070164750,0.65625,-0.375,0.65625
1630070164781,0.65625,-0.375,0.65625
1630070164812,0.65625,-0.375,0.65625
1630070164843,0.65625,-0.375,0.65625
1630070164875,0.65625,-0.375,0.65625
1630070164906,0.640625,-0.375,0.65625
1630070164937,0.65625,-0.375,0.65625
1630070164968,0.65625,-0.375,0.65625
1630070165000,0.65625,-0.375,0.65625
1630070165031,0.65625,-0.375,0.65625
1630070165062,0.65625,-0.375,0.65625
1630070165093,0.65625,-0.375,0.65625
1630070165125,0.640625,-0.375,0.65625
1630070165156,0.65625,-0.375,0.65625
1630070165187,0.65625,-0.375,0.65625
1630070165218,0.65625,-0.375,0.65625
1630070165250,0.65625,-0.375,0.65625
1630070165281,0.65625,-0.375,0.65625
1630070165312,0.65625,-0.375,0.65625
1630070165343,0.65625,-0.375,0.65625
1630070165375,0.65625,-0.375,0.65625
1630070165406,0.65625,-0.375,0.65625
1630070165437,0.65625,-0.375,0.65625
1630070165468,0.65625,-0.375,0.65625
1630070165500,0.65625,-0.375,0.65625
1630070165531,0.65625,-0.375,0.65625
1630070165562,0.65625,-0.375,0.65625
1630070165593,0.65625,-0.375,0.65625
1630070165625,0.65625,-0.375,0.65625
1630070165656,0.65625,-0.375,0.65625
1630070165687,0.65625,-0.375,0.65625
1630070165718,0.65625,-0.375,0.65625
1630070165750,0.65625,-0.375,0.65625
1630070165781,0.65625,-0.375,0.65625
1630070165812,0.65625,-0.375,0.65625
1630070165843,0.65625,-0.375,0.65625
1630070165875,0.65625,-0.375,0.65625
1630070165906,0.65625,-0.375,0.65625
1630070165937,0.65625,-0.375,0.65625
1630070165968,0.65625,-0.375,0.65625
1630070166000,0.65625,-0.375,0.65625
1630070166031,0.65625,-0.375,0.65625
1630070166062,0.65625,-0.375,0.65625
1630070166093,0.65625,-0.375,0.65625
1630070166125,0.65625,-0.375,0.65625
1630070166156,0.65625,-0.375,0.65625
1630070166187,0.65625,-0.375,0.65625
1630070166218,0.65625,-0.375,0.65625
1630070166250,0.65625,-0.375,0.65625
1630070166281,0.65625,-0.375,0.65625
1630070166312,0.640625,-0.375,0.65625
1630070166343,0.65625,-0.375,0.65625
1630070166375,0.640625,-0.375,0.65625
1630070166406,0.65625,-0.375,0.65625
1630070166437,0.65625,-0.375,0.65625
1630070166468,0.640625,-0.375,0.65625
1630070166500,0.65625,-0.375,0.65625
1630070166531,0.640625,-0.375,0.65625
1630070166562,0.65625,-0.375,0.65625
1630070166593,0.640625,-0.375,0.65625
1630070166625,0.65625,-0.375,0.65625
1630070166656,0.640625,-0.375,0.65625
1630070166687,0.640625,-0.375,0.65625
1630070166718,0.640625,-0.375,0.65625
1630070166750,0.65625,-0.375,0.65625
1630070166781,0.640625,-0.375,0.65625
1630070166812,0.640625,-0.375,0.65625
1630070166843,0.640625,-0.375,0.65625
1630070166875,0.640625,-0.375,0.65625
1630070166906,0.640625,-0.375,0.65625
1630070166937,0.640625,-0.390625,0.671875
1630070166968,0.640625,-0.375,0.65625
1630070167000,0.640625,-0.390625,0.65625
1630070167031,0.65625,-0.375,0.65625
1630070167062,0.640625,-0.375,0.65625
1630070167093,0.640625,-0.390625,0.671875
1630070167125,0.640625,-0.375,0.671875
1630070167156,0.640625,-0.375,0.65625
1630070167187,0.65625,-0.375,0.65625
1630070167218,0.640625,-0.375,0.65625
1630070167250,0.640625,-0.375,0.65625
1630070167281,0.640625,-0.375,0.65625
1630070167312,0.65625,-0.375,0.65625
1630070167343,0.640625,-0.375,0.65625
1630070167375,0.65625,-0.375,0.65625
1630070167406,0.65625,-0.375,0.65625
1630070167437,0.65625,-0.375,0.65625
1630070167468,0.65625,-0.375,0.65625
1630070167500,0.640625,-0.375,0.65625
1630070167531,0.65625,-0.375,0.65625
1630070167562,0.65625,-0.375,0.65625
1630070167593,0.640625,-0.375,0.65625
1630070167625,0.65625,-0.375,0.65625
1630070167656,0.65625,-0.375,0.65625
1630070167687,0.65625,-0.375,0.65625
1630070167718,0.65625,-0.375,0.65625
1630070167750,0.65625,-0.375,0.65625
1630070167781,0.640625,-0.375,0.65625
1630070167812,0.65625,-0.375,0.65625
1630070167843,0.65625,-0.375,0.65625
1630070167875,0.65625,-0.375,0.65625
1630070167906,0.65625,-0.375,0.65625
1630070167937,0.65625,-0.375,0.65625
1630070167968,0.65625,-0.375,0.65625
1630070168000,0.65625,-0.375,0.65625
1630070168031,0.65625,-0.375,0.640625
1630070168062,0.65625,-0.375,0.65625
1630070168093,0.65625,-0.375,0.65625
1630070168125,0.65625,-0.375,0.65625
1630070168156,0.65625,-0.375,0.65625
1630070168187,0.65625,-0.375,0.65625
1630070168218,0.65625,-0.375,0.65625
1630070168250,0.65625,-0.375,0.65625
1630070168281,0.65625,-0.375,0.65625
1630070168312,0.65625,-0.375,0.65625
1630070168343,0.65625,-0.375,0.65625
1630070168375,0.65625,-0.375,0.65625
1630070168406,0.65625,-0.375,0.65625
1630070168437,0.65625,-0.375,0.65625
1630070168468,0.65625,-0.375,0.65625
1630070168500,0.65625,-0.375,0.65625
1630070168531,0.65625,-0.375,0.65625
1630070168562,0.65625,-0.375,0.65625
1630070168593,0.65625,-0.375,0.65625
1630070168625,0.65625,-0.375,0.65625
1630070168656,0.65625,-0.375,0.65625
1630070168687,0.65625,-0.375,0.65625
1630070168718,0.65625,-0.375,0.65625
1630070168750,0.640625,-0.375,0.65625
1630070168781,0.65625,-0.375,0.65625
1630070168812,0.65625,-0.375,0.65625
1630070168843,0.65625,-0.375,0.65625
1630070168875,0.65625,-0.375,0.65625
1630070168906,0.65625,-0.375,0.65625
1630070168937,0.65625,-0.375,0.65625
1630070168968,0.65625,-0.390625,0.65625
1630070169000,0.65625,-0.375,0.65625
1630070169031,0.65625,-0.375,0.65625
1630070169062,0.640625,-0.375,0.65625
1630070169093,0.65625,-0.375,0.65625
1630070169125,0.65625,-0.375,0.65625
1630070169156,0.640625,-0.375,0.65625
1630070169187,0.65625,-0.375,0.65625
1630070169218,0.65625,-0.375,0.65625
1630070169250,0.640625,-0.375,0.65625
1630070169281,0.640625,-0.375,0.65625
1630070169312,0.640625,-0.375,0.65625
1630070169343,0.65625,-0.375,0.65625
1630070169375,0.640625,-0.375,0.65625
1630070169406,0.640625,-0.375,0.65625
1630070169437,0.640625,-0.375,0.65625
1630070169468,0.640625,-0.375,0.65625
1630070169500,0.640625,-0.375,0.65625
1630070169531,0.640625,-0.375,0.65625
1630070169562,0.640625,-0.375,0.65625
1630070169593,0.640625,-0.375,0.65625
1630070169625,0.640625,-0.390625,0.65625
1630070169656,0.640625,-0.375,0.671875
1630070169687,0.640625,-0.375,0.671875
1630070169718,0.640625,-0.375,0.65625
1630070169750,0.65625,-0.375,0.65625
1630070169781,0.65625,-0.375,0.65625
1630070169812,0.640625,-0.390625,0.65625
1630070169843,0.640625,-0.375,0.65625
1630070169875,0.640625,-0.375,0.65625
1630070169906,0.640625,-0.375,0.65625
1630070169937,0.65625,-0.375,0.65625
1630070169968,0.640625,-0.375,0.65625
1630070170000,0.65625,-0.390625,0.65625
1630070170031,0.640625,-0.375,0.671875
1630070170062,0.640625,-0.375,0.65625
1630070170093,0.640625,-0.390625,0.65625
1630070170125,0.640625,-0.375,0.65625
1630070170156,0.65625,-0.375,0.65625
1630070170187,0.65625,-0.375,0.65625
1630070170218,0.640625,-0.375,0.65625
1630070170250,0.65625,-0.375,0.65625
1630070170281,0.640625,-0.375,0.65625
1630070170312,0.65625,-0.375,0.65625
1630070170343,0.65625,-0.375,0.65625
1630070170375,0.640625,-0.375,0.65625
1630070170406,0.640625,-0.375,0.65625
1630070170437,0.65625,-0.375,0.65625
1630070170468,0.65625,-0.375,0.65625
1630070170500,0.65625,-0.375,0.65625
1630070170531,0.65625,-0.375,0.65625
1630070170562,0.65625,-0.375,0.65625
1630070170593,0.65625,-0.375,0.65625
1630070170625,0.65625,-0.375,0.65625
1630070170656,0.640625,-0.375,0.65625
1630070170687,0.65625,-0.375,0.65625
1630070170718,0.65625,-0.375,0.65625
1630070170750,0.65625,-0.375,0.65625
1630070170781,0.65625,-0.375,0.65625
1630070170812,0.65625,-0.375,0.65625
1630070170843,0.65625,-0.375,0.65625
1630070170875,0.65625,-0.375,0.65625
1630070170906,0.65625,-0.375,0.65625
1630070170937,0.65625,-0.375,0.65625
1630070170968,0.65625,-0.375,0.65625
1630070171000,0.65625,-0.375,0.65625
1630070171031,0.65625,-0.375,0.65625
1630070171062,0.65625,-0.375,0.65625
1630070171093,0.65625,-0.375,0.65625
1630070171125,0.65625,-0.375,0.65625
1630070171156,0.65625,-0.375,0.65625
1630070171187,0.65625,-0.375,0.65625
1630070171218,0.65625,-0.375,0.65625
1630070171250,0.65625,-0.375,0.65625
1630070171281,0.65625,-0.375,0.65625
1630070171312,0.65625,-0.375,0.65625
1630070171343,0.65625,-0.375,0.65625
1630070171375,0.65625,-0.375,0.65625
1630070171406,0.65625,-0.375,0.65625
1630070171437,0.65625,-0.375,0.65625
1630070171468,0.65625,-0.375,0.65625
1630070171500,0.65625,-0.375,0.65625
1630070171531,0.65625,-0.375,0.65625
1630070171562,0.65625,-0.375,0.65625
1630070171593,0.65625,-0.375,0.65625
1630070171625,0.65625,-0.375,0.65625
1630070171656,0.65625,-0.375,0.65625
1630070171687,0.65625,-0.375,0.65625
1630070171718,0.65625,-0.375,0.65625
1630070171750,0.640625,-0.375,0.65625
1630070171781,0.65625,-0.375,0.65625
1630070171812,0.65625,-0.375,0.65625
1630070171843,0.65625,-0.375,0.65625
1630070171875,0.65625,-0.375,0.65625
1630070171906,0.65625,-0.375,0.65625
1630070171937,0.65625,-0.375,0.65625
1630070171968,0.640625,-0.375,0.65625
1630070172000,0.65625,-0.375,0.65625
1630070172031,0.65625,-0.375,0.65625
1630070172062,0.65625,-0.375,0.65625
1630070172093,0.640625,-0.375,0.65625
1630070172125,0.640625,-0.375,0.65625
1630070172156,0.65625,-0.375,0.65625
1630070172187,0.65625,-0.375,0.65625
1630070172218,0.65625,-0.375,0.65625
1630070172250,0.640625,-0.375,0.65625
1630070172281,0.640625,-0.375,0.65625
1630070172312,0.65625,-0.375,0.671875
1630070172343,0.640625,-0.390625,0.65625
1630070172375,0.640625,-0.375,0.65625
1630070172406,0.640625,-0.375,0.65625
1630070172437,0.640625,-0.375,0.65625
1630070172468,0.640625,-0.375,0.65625
1630070172500,0.640625,-0.375,0.65625
1630070172531,0.640625,-0.375,0.65625
1630070172562,0.640625,-0.375,0.65625
1630070172593,0.640625,-0.375,0.65625
1630070172625,0.640625,-0.375,0.671875
1630070172656,0.640625,-0.375,0.65625
1630070172687,0.640625,-0.375,0.65625
1630070172718,0.65625,-0.375,0.65625
1630070172750,0.640625,-0.375,0.65625
1630070172781,0.640625,-0.375,0.65625
1630070172812,0.640625,-0.375,0.671875
1630070172843,0.65625,-0.375,0.65625
1630070172875,0.65625,-0.375,0.65625
1630070172906,0.640625,-0.375,0.65625
1630070172937,0.640625,-0.375,0.65625
1630070172968,0.65625,-0.375,0.65625
1630070173000,0.65625,-0.375,0.65625
1630070173031,0.640625,-0.375,0.65625
1630070173062,0.65625,-0.375,0.65625
1630070173093,0.65625,-0.375,0.65625
1630070173125,0.640625,-0.375,0.65625
1630070173156,0.65625,-0.375,0.65625
1630070173187,0.65625,-0.375,0.65625
1630070173218,0.65625,-0.375,0.65625
1630070173250,0.640625,-0.375,0.65625
1630070173281,0.640625,-0.375,0.65625
1630070173312,0.65625,-0.375,0.65625
1630070173343,0.640625,-0.375,0.65625
1630070173375,0.65625,-0.375,0.65625
1630070173406,0.65625,-0.375,0.65625
1630070173437,0.65625,-0.375,0.65625
1630070173468,0.65625,-0.375,0.65625
1630070173500,0.65625,-0.375,0.65625
1630070173531,0.65625,-0.375,0.65625
1630070173562,0.65625,-0.375,0.65625
1630070173593,0.65625,-0.375,0.65625
1630070173625,0.65625,-0.375,0.65625
1630070173656,0.65625,-0.375,0.65625
1630070173687,0.65625,-0.375,0.65625
1630070173718,0.65625,-0.375,0.65625
1630070173750,0.65625,-0.375,0.65625
1630070173781,0.65625,-0.375,0.65625
1630070173812,0.65625,-0.375,0.65625
1630070173843,0.65625,-0.375,0.65625
1630070173875,0.65625,-0.375,0.65625
1630070173906,0.65625,-0.375,0.65625
1630070173937,0.65625,-0.375,0.65625
1630070173968,0.65625,-0.375,0.65625
1630070174000,0.65625,-0.375,0.65625
1630070174031,0.65625,-0.375,0.65625
1630070174062,0.65625,-0.375,0.65625
1630070174093,0.65625,-0.375,0.65625
1630070174125,0.65625,-0.375,0.65625
1630070174156,0.65625,-0.375,0.65625
1630070174187,0.65625,-0.375,0.65625
1630070174218,0.65625,-0.375,0.65625
1630070174250,0.65625,-0.375,0.65625
1630070174281,0.65625,-0.375,0.65625
1630070174312,0.65625,-0.375,0.65625
1630070174343,0.65625,-0.375,0.65625
1630070174375,0.65625,-0.375,0.65625
1630070174406,0.65625,-0.375,0.65625
1630070174437,0.65625,-0.375,0.65625
1630070174468,0.640625,-0.375,0.65625
1630070174500,0.640625,-0.375,0.65625
1630070174531,0.65625,-0.375,0.65625
1630070174562,0.640625,-0.375,0.65625
1630070174593,0.65625,-0.375,0.65625
1630070174625,0.65625,-0.375,0.65625
1630070174656,0.65625,-0.375,0.65625
1630070174687,0.640625,-0.375,0.65625
1630070174718,0.640625,-0.375,0.65625
1630070174750,0.65625,-0.375,0.65625
1630070174781,0.65625,-0.375,0.65625
1630070174812,0.640625,-0.375,0.65625
1630070174843,0.65625,-0.375,0.65625
1630070174875,0.65625,-0.375,0.65625
1630070174906,0.65625,-0.375,0.65625
1630070174937,0.65625,-0.375,0.65625
1630070174968,0.65625,-0.375,0.671875
1630070175000,0.640625,-0.375,0.65625
1630070175031,0.640625,-0.375,0.65625
1630070175062,0.640625,-0.375,0.65625
1630070175093,0.640625,-0.375,0.65625
1630070175125,0.65625,-0.375,0.65625
1630070175156,0.640625,-0.375,0.65625
1630070175187,0.640625,-0.375,0.65625
1630070175218,0.65625,-0.375,0.65625
1630070175250,0.640625,-0.375,0.65625
1630070175281,0.640625,-0.375,0.65625
1630070175312,0.65625,-0.375,0.65625
1630070175343,0.640625,-0.375,0.65625
1630070175375,0.65625,-0.375,0.65625
1630070175406,0.640625,-0.375,0.65625
1630070175437,0.65625,-0.375,0.65625
1630070175468,0.65625,-0.375,0.65625
1630070175500,0.65625,-0.375,0.65625
1630070175531,0.65625,-0.375,0.65625
1630070175562,0.65625,-0.375,0.65625
1630070175593,0.65625,-0.375,0.65625
1630070175625,0.65625,-0.375,0.65625
1630070175656,0.65625,-0.375,0.65625
1630070175687,0.65625,-0.375,0.65625
1630070175718,0.65625,-0.375,0.65625
1630070175750,0.65625,-0.375,0.65625
1630070175781,0.640625,-0.375,0.65625
1630070175812,0.65625,-0.375,0.65625
1630070175843,0.65625,-0.375,0.65625
1630070175875,0.65625,-0.375,0.65625
1630070175906,0.65625,-0.375,0.65625
1630070175937,0.65625,-0.375,0.65625
1630070175968,0.65625,-0.375,0.65625
1630070176000,0.65625,-0.375,0.65625
1630070176031,0.65625,-0.375,0.65625
1630070176062,0.65625,-0.375,0.65625
1630070176093,0.65625,-0.375,0.65625
1630070176125,0.65625,-0.375,0.65625
1630070176156,0.65625,-0.375,0.65625
1630070176187,0.65625,-0.375,0.65625
1630070176218,0.65625,-0.375,0.65625
1630070176250,0.65625,-0.375,0.65625
1630070176281,0.65625,-0.375,0.65625
1630070176312,0.65625,-0.375,0.65625
1630070176343,0.65625,-0.375,0.65625
1630070176375,0.65625,-0.375,0.65625
1630070176406,0.65625,-0.375,0.65625
1630070176437,0.65625,-0.375,0.65625
1630070176468,0.65625,-0.375,0.65625
1630070176500,0.65625,-0.375,0.65625
1630070176531,0.65625,-0.375,0.65625
1630070176562,0.65625,-0.375,0.65625
1630070176593,0.65625,-0.375,0.65625
1630070176625,0.65625,-0.375,0.65625
1630070176656,0.65625,-0.375,0.65625
1630070176687,0.65625,-0.375,0.65625
1630070176718,0.65625,-0.375,0.65625
1630070176750,0.65625,-0.375,0.65625
1630070176781,0.65625,-0.375,0.65625
1630070176812,0.65625,-0.375,0.65625
1630070176843,0.65625,-0.375,0.65625
1630070176875,0.65625,-0.375,0.65625
1630070176906,0.65625,-0.375,0.65625
1630070176937,0.65625,-0.375,0.65625
1630070176968,0.65625,-0.375,0.65625
1630070177000,0.65625,-0.375,0.65625
1630070177031,0.65625,-0.375,0.65625
1630070177062,0.65625,-0.375,0.671875
1630070177093,0.65625,-0.375,0.65625
1630070177125,0.65625,-0.375,0.65625
1630070177156,0.65625,-0.375,0.65625
1630070177187,0.65625,-0.375,0.65625
1630070177218,0.65625,-0.375,0.65625
1630070177250,0.65625,-0.375,0.65625
1630070177281,0.640625,-0.375,0.65625
1630070177312,0.640625,-0.375,0.65625
1630070177343,0.640625,-0.375,0.65625
1630070177375,0.640625,-0.375,0.65625
1630070177406,0.640625,-0.375,0.65625
1630070177437,0.640625,-0.375,0.65625
1630070177468,0.640625,-0.375,0.65625
1630070177500,0.640625,-0.375,0.65625
1630070177531,0.640625,-0.390625,0.65625
1630070177562,0.640625,-0.375,0.65625
1630070177593,0.640625,-0.375,0.65625
1630070177625,0.640625,-0.375,0.671875
1630070177656,0.640625,-0.390625,0.65625
1630070177687,0.640625,-0.375,0.65625
1630070177718,0.640625,-0.375,0.65625
1630070177750,0.640625,-0.375,0.65625
1630070177781,0.640625,-0.375,0.65625
1630070177812,0.65625,-0.375,0.671875
1630070177843,0.65625,-0.375,0.671875
1630070177875,0.640625,-0.390625,0.65625
1630070177906,0.640625,-0.375,0.65625
1630070177937,0.640625,-0.375,0.65625
1630070177968,0.640625,-0.375,0.65625
1630070178000,0.640625,-0.375,0.65625
1630070178031,0.65625,-0.375,0.65625
1630070178062,0.640625,-0.375,0.65625
1630070178093,0.640625,-0.375,0.65625
1630070178125,0.640625,-0.375,0.65625
1630070178156,0.65625,-0.375,0.65625
1630070178187,0.640625,-0.375,0.65625
1630070178218,0.65625,-0.375,0.65625
1630070178250,0.65625,-0.375,0.65625
1630070178281,0.65625,-0.375,0.65625
1630070178312,0.65625,-0.375,0.65625
1630070178343,0.65625,-0.375,0.65625
1630070178375,0.65625,-0.375,0.65625
1630070178406,0.65625,-0.375,0.65625
1630070178437,0.65625,-0.375,0.65625
1630070178468,0.65625,-0.375,0.65625
1630070178500,0.65625,-0.375,0.65625
1630070178531,0.65625,-0.375,0.65625
1630070178562,0.65625,-0.375,0.65625
1630070178593,0.65625,-0.375,0.65625
1630070178625,0.65625,-0.375,0.65625
1630070178656,0.65625,-0.375,0.65625
1630070178687,0.65625,-0.375,0.65625
1630070178718,0.65625,-0.375,0.65625
1630070178750,0.65625,-0.375,0.65625
1630070178781,0.65625,-0.375,0.65625
1630070178812,0.65625,-0.375,0.65625
1630070178843,0.65625,-0.375,0.65625
1630070178875,0.65625,-0.375,0.65625
1630070178906,0.65625,-0.375,0.65625
1630070178937,0.65625,-0.375,0.65625
1630070178968,0.65625,-0.375,0.65625
1630070179000,0.65625,-0.375,0.65625
1630070179031,0.65625,-0.375,0.65625
1630070179062,0.65625,-0.375,0.65625
1630070179093,0.65625,-0.375,0.65625
1630070179125,0.65625,-0.375,0.65625
1630070179156,0.65625,-0.375,0.65625
1630070179187,0.65625,-0.375,0.65625
1630070179218,0.65625,-0.375,0.65625
1630070179250,0.65625,-0.375,0.65625
1630070179281,0.65625,-0.375,0.65625
1630070179312,0.65625,-0.375,0.65625
1630070179343,0.65625,-0.375,0.65625
1630070179375,0.65625,-0.375,0.65625
1630070179406,0.65625,-0.375,0.65625
1630070179437,0.65625,-0.375,0.65625
1630070179468,0.65625,-0.375,0.65625
1630070179500,0.65625,-0.375,0.65625
1630070179531,0.65625,-0.375,0.65625
1630070179562,0.65625,-0.375,0.65625
1630070179593,0.65625,-0.375,0.65625
1630070179625,0.65625,-0.375,0.65625
1630070179656,0.65625,-0.375,0.65625
1630070179687,0.65625,-0.375,0.65625
1630070179718,0.65625,-0.375,0.65625
1630070179750,0.65625,-0.375,0.65625
1630070179781,0.65625,-0.375,0.65625
1630070179812,0.65625,-0.375,0.65625
1630070179843,0.640625,-0.375,0.65625
1630070179875,0.65625,-0.375,0.65625
1630070179906,0.65625,-0.375,0.65625
1630070179937,0.65625,-0.375,0.65625
1630070179968,0.65625,-0.375,0.65625
1630070180000,0.640625,-0.375,0.65625
1630070180031,0.65625,-0.375,0.65625
1630070180062,0.65625,-0.375,0.65625
1630070180093,0.65625,-0.375,0.65625
1630070180125,0.640625,-0.375,0.65625
1630070180156,0.640625,-0.375,0.65625
1630070180187,0.65625,-0.375,0.65625
1630070180218,0.640625,-0.375,0.65625
1630070180250,0.640625,-0.375,0.65625
1630070180281,0.65625,-0.375,0.65625
1630070180312,0.640625,-0.375,0.65625
1630070180343,0.640625,-0.375,0.65625
1630070180375,0.640625,-0.390625,0.65625
1630070180406,0.640625,-0.375,0.65625
1630070180437,0.640625,-0.375,0.65625
1630070180468,0.640625,-0.375,0.65625
1630070180500,0.640625,-0.375,0.65625
1630070180531,0.640625,-0.375,0.65625
1630070180562,0.65625,-0.375,0.671875
1630070180593,0.640625,-0.390625,0.65625
1630070180625,0.640625,-0.375,0.671875
1630070180656,0.640625,-0.375,0.671875
1630070180687,0.625,-0.375,0.65625
1630070180718,0.65625,-0.375,0.671875
1630070180750,0.640625,-0.375,0.65625
1630070180781,0.640625,-0.375,0.65625
1630070180812,0.640625,-0.375,0.65625
1630070180843,0.640625,-0.375,0.65625
1630070180875,0.640625,-0.375,0.65625
1630070180906,0.640625,-0.375,0.65625
1630070180937,0.640625,-0.375,0.65625
1630070180968,0.640625,-0.375,0.65625
1630070181000,0.640625,-0.375,0.65625
1630070181031,0.640625,-0.375,0.65625
1630070181062,0.640625,-0.375,0.65625
1630070181093,0.640625,-0.375,0.65625
1630070181125,0.65625,-0.375,0.65625
1630070181156,0.65625,-0.375,0.65625
1630070181187,0.640625,-0.375,0.65625
1630070181218,0.65625,-0.375,0.65625
1630070181250,0.65625,-0.390625,0.65625
1630070181281,0.65625,-0.375,0.65625
1630070181312,0.65625,-0.375,0.65625
1630070181343,0.65625,-0.375,0.65625
1630070181375,0.65625,-0.375,0.65625
1630070181406,0.65625,-0.375,0.65625
1630070181437,0.65625,-0.375,0.65625
1630070181468,0.65625,-0.375,0.65625
1630070181500,0.640625,-0.375,0.65625
1630070181531,0.65625,-0.375,0.65625
1630070181562,0.65625,-0.375,0.65625
1630070181593,0.640625,-0.375,0.65625
1630070181625,0.65625,-0.375,0.65625
1630070181656,0.65625,-0.375,0.65625
1630070181687,0.65625,-0.375,0.65625
1630070181718,0.65625,-0.375,0.65625
1630070181750,0.65625,-0.375,0.65625
1630070181781,0.65625,-0.375,0.65625
1630070181812,0.65625,-0.375,0.65625
1630070181843,0.65625,-0.375,0.65625
1630070181875,0.65625,-0.375,0.65625
1630070181906,0.65625,-0.375,0.65625
1630070181937,0.65625,-0.375,0.65625
1630070181968,0.65625,-0.375,0.65625
1630070182000,0.65625,-0.375,0.65625
1630070182031,0.65625,-0.375,0.65625
1630070182062,0.65625,-0.375,0.65625
1630070182093,0.65625,-0.375,0.65625
1630070182125,0.65625,-0.375,0.65625
1630070182156,0.65625,-0.375,0.65625
1630070182187,0.65625,-0.375,0.65625
1630070182218,0.65625,-0.375,0.65625
1630070182250,0.65625,-0.375,0.65625
1630070182281,0.65625,-0.375,0.65625
1630070182312,0.65625,-0.375,0.65625
1630070182343,0.65625,-0.375,0.65625
1630070182375,0.65625,-0.375,0.65625
1630070182406,0.65625,-0.375,0.65625
1630070182437,0.65625,-0.375,0.65625
1630070182468,0.65625,-0.375,0.65625
1630070182500,0.65625,-0.375,0.65625
1630070182531,0.65625,-0.375,0.65625
1630070182562,0.65625,-0.375,0.65625
1630070182593,0.65625,-0.375,0.65625
1630070182625,0.65625,-0.390625,0.65625
1630070182656,0.65625,-0.375,0.65625
1630070182687,0.640625,-0.375,0.65625
1630070182718,0.640625,-0.375,0.65625
1630070182750,0.65625,-0.375,0.65625
1630070182781,0.65625,-0.375,0.65625
1630070182812,0.65625,-0.375,0.65625
1630070182843,0.65625,-0.375,0.65625
1630070182875,0.65625,-0.375,0.65625
1630070182906,0.65625,-0.375,0.65625
1630070182937,0.65625,-0.375,0.65625
1630070182968,0.640625,-0.375,0.65625
1630070183000,0.65625,-0.375,0.65625
1630070183031,0.65625,-0.375,0.65625
1630070183062,0.65625,-0.375,0.65625
1630070183093,0.65625,-0.375,0.65625
1630070183125,0.65625,-0.375,0.65625
1630070183156,0.65625,-0.375,0.65625
1630070183187,0.65625,-0.375,0.65625
1630070183218,0.640625,-0.375,0.65625
1630070183250,0.65625,-0.390625,0.65625
1630070183281,0.65625,-0.375,0.671875
1630070183312,0.640625,-0.375,0.65625
1630070183343,0.65625,-0.375,0.65625
1630070183375,0.640625,-0.375,0.671875
1630070183406,0.640625,-0.375,0.65625
1630070183437,0.640625,-0.375,0.65625
1630070183468,0.640625,-0.375,0.65625
1630070183500,0.640625,-0.375,0.65625
1630070183531,0.65625,-0.375,0.65625
1630070183562,0.640625,-0.375,0.65625
1630070183593,0.640625,-0.375,0.65625
1630070183625,0.640625,-0.375,0.65625
1630070183656,0.640625,-0.390625,0.65625
1630070183687,0.640625,-0.375,0.65625
1630070183718,0.640625,-0.375,0.65625
1630070183750,0.640625,-0.375,0.65625
1630070183781,0.640625,-0.375,0.65625
1630070183812,0.640625,-0.375,0.65625
1630070183843,0.65625,-0.375,0.65625
1630070183875,0.640625,-0.375,0.65625
1630070183906,0.640625,-0.375,0.65625
1630070183937,0.65625,-0.375,0.671875
1630070183968,0.640625,-0.390625,0.65625
1630070184000,0.640625,-0.375,0.65625
1630070184031,0.640625,-0.375,0.65625
1630070184062,0.640625,-0.375,0.65625
1630070184093,0.640625,-0.375,0.65625
1630070184125,0.65625,-0.375,0.65625
1630070184156,0.65625,-0.375,0.65625
1630070184187,0.640625,-0.375,0.65625
1630070184218,0.65625,-0.375,0.65625
1630070184250,0.65625,-0.375,0.65625
1630070184281,0.65625,-0.375,0.65625
1630070184312,0.65625,-0.375,0.65625
1630070184343,0.65625,-0.375,0.65625
1630070184375,0.65625,-0.375,0.65625
1630070184406,0.65625,-0.375,0.65625
1630070184437,0.65625,-0.375,0.65625
1630070184468,0.65625,-0.375,0.65625
1630070184500,0.65625,-0.375,0.65625
1630070184531,0.65625,-0.375,0.65625
1630070184562,0.640625,-0.375,0.65625
1630070184593,0.65625,-0.375,0.65625
1630070184625,0.65625,-0.375,0.65625
1630070184656,0.65625,-0.390625,0.65625
1630070184687,0.65625,-0.375,0.65625
1630070184718,0.65625,-0.375,0.65625
1630070184750,0.65625,-0.375,0.65625
1630070184781,0.65625,-0.375,0.65625
1630070184812,0.65625,-0.375,0.65625
1630070184843,0.65625,-0.375,0.65625
1630070184875,0.65625,-0.375,0.65625
1630070184906,0.65625,-0.375,0.65625
1630070184937,0.65625,-0.375,0.65625
1630070184968,0.65625,-0.375,0.65625
1630070185000,0.65625,-0.375,0.65625
1630070185031,0.65625,-0.375,0.65625
1630070185062,0.65625,-0.375,0.65625
1630070185093,0.65625,-0.375,0.65625
1630070185125,0.65625,-0.375,0.65625
1630070185156,0.65625,-0.375,0.65625
1630070185187,0.65625,-0.375,0.65625
1630070185218,0.65625,-0.375,0.65625
1630070185250,0.65625,-0.375,0.65625
1630070185281,0.65625,-0.375,0.65625
1630070185312,0.65625,-0.375,0.65625
1630070185343,0.65625,-0.375,0.65625
1630070185375,0.65625,-0.375,0.65625
1630070185406,0.65625,-0.375,0.65625
1630070185437,0.65625,-0.375,0.640625
1630070185468,0.65625,-0.375,0.65625
1630070185500,0.65625,-0.375,0.65625
1630070185531,0.65625,-0.375,0.65625
1630070185562,0.65625,-0.375,0.65625
1630070185593,0.65625,-0.375,0.65625
1630070185625,0.65625,-0.375,0.65625
1630070185656,0.65625,-0.375,0.65625
1630070185687,0.65625,-0.375,0.65625
1630070185718,0.65625,-0.375,0.65625
1630070185750,0.65625,-0.375,0.65625
1630070185781,0.65625,-0.375,0.65625
1630070185812,0.65625,-0.375,0.65625
1630070185843,0.65625,-0.375,0.65625
1630070185875,0.65625,-0.375,0.65625
1630070185906,0.65625,-0.375,0.65625
1630070185937,0.65625,-0.375,0.65625
1630070185968,0.65625,-0.375,0.671875
1630070186000,0.65625,-0.375,0.65625
1630070186031,0.65625,-0.375,0.65625
1630070186062,0.640625,-0.375,0.65625
1630070186093,0.640625,-0.375,0.65625
1630070186125,0.640625,-0.375,0.65625
1630070186156,0.640625,-0.375,0.65625
1630070186187,0.65625,-0.375,0.65625
1630070186218,0.640625,-0.375,0.65625
1630070186250,0.640625,-0.375,0.65625
1630070186281,0.640625,-0.375,0.65625
1630070186312,0.65625,-0.375,0.65625
1630070186343,0.640625,-0.375,0.65625
1630070186375,0.640625,-0.375,0.65625
1630070186406,0.640625,-0.375,0.65625
1630070186437,0.640625,-0.375,0.671875
1630070186468,0.640625,-0.375,0.65625
1630070186500,0.640625,-0.390625,0.65625
1630070186531,0.640625,-0.375,0.671875
1630070186562,0.65625,-0.375,0.65625
1630070186593,0.640625,-0.375,0.65625
1630070186625,0.640625,-0.375,0.65625
1630070186656,0.640625,-0.375,0.65625
1630070186687,0.65625,-0.375,0.65625
1630070186718,0.65625,-0.375,0.65625
1630070186750,0.65625,-0.375,0.65625
1630070186781,0.65625,-0.375,0.65625
1630070186812,0.640625,-0.375,0.65625
1630070186843,0.65625,-0.375,0.65625
1630070186875,0.65625,-0.375,0.65625
1630070186906,0.640625,-0.375,0.65625
1630070186937,0.65625,-0.375,0.65625
1630070186968,0.65625,-0.375,0.65625
1630070187000,0.65625,-0.375,0.65625
1630070187031,0.65625,-0.375,0.65625
1630070187062,0.640625,-0.375,0.65625
1630070187093,0.65625,-0.375,0.65625
1630070187125,0.65625,-0.375,0.65625
1630070187156,0.65625,-0.375,0.65625
1630070187187,0.65625,-0.375,0.65625
1630070187218,0.65625,-0.375,0.65625
1630070187250,0.65625,-0.375,0.65625
1630070187281,0.65625,-0.375,0.65625
1630070187312,0.65625,-0.375,0.65625
1630070187343,0.65625,-0.375,0.65625
1630070187375,0.65625,-0.375,0.65625
1630070187406,0.65625,-0.375,0.65625
1630070187437,0.65625,-0.375,0.65625
1630070187468,0.65625,-0.375,0.65625
1630070187500,0.65625,-0.375,0.65625
1630070187531,0.65625,-0.375,0.65625
1630070187562,0.65625,-0.375,0.65625
1630070187593,0.65625,-0.375,0.65625
1630070187625,0.65625,-0.375,0.65625
1630070187656,0.65625,-0.375,0.65625
1630070187687,0.65625,-0.375,0.65625
1630070187718,0.65625,-0.375,0.65625
1630070187750,0.65625,-0.375,0.65625
1630070187781,0.65625,-0.375,0.65625
1630070187812,0.65625,-0.375,0.65625
1630070187843,0.65625,-0.375,0.65625
1630070187875,0.65625,-0.375,0.65625
1630070187906,0.65625,-0.375,0.65625
1630070187937,0.65625,-0.375,0.65625
1630070187968,0.65625,-0.375,0.65625
1630070188000,0.65625,-0.375,0.65625
1630070188031,0.65625,-0.375,0.65625
1630070188062,0.65625,-0.375,0.65625
1630070188093,0.65625,-0.375,0.65625
1630070188125,0.65625,-0.375,0.65625
1630070188156,0.65625,-0.375,0.65625
1630070188187,0.65625,-0.375,0.65625
1630070188218,0.640625,-0.375,0.65625
1630070188250,0.65625,-0.375,0.65625
1630070188281,0.65625,-0.375,0.65625
1630070188312,0.65625,-0.375,0.65625
1630070188343,0.65625,-0.375,0.65625
1630070188375,0.65625,-0.375,0.65625
1630070188406,0.65625,-0.375,0.65625
1630070188437,0.65625,-0.375,0.65625
1630070188468,0.65625,-0.375,0.65625
1630070188500,0.65625,-0.375,0.65625
1630070188531,0.65625,-0.375,0.65625
1630070188562,0.65625,-0.375,0.65625
1630070188593,0.65625,-0.375,0.65625
1630070188625,0.65625,-0.375,0.65625
1630070188656,0.65625,-0.375,0.65625
1630070188687,0.640625,-0.375,0.65625
1630070188718,0.65625,-0.375,0.65625
1630070188750,0.640625,-0.375,0.65625
1630070188781,0.65625,-0.375,0.65625
1630070188812,0.65625,-0.375,0.65625
1630070188843,0.65625,-0.375,0.65625
1630070188875,0.65625,-0.375,0.65625
1630070188906,0.640625,-0.375,0.65625
1630070188937,0.65625,-0.375,0.65625
1630070188968,0.640625,-0.375,0.65625
1630070189000,0.640625,-0.375,0.65625
1630070189031,0.640625,-0.375,0.65625
1630070189062,0.640625,-0.375,0.65625
1630070189093,0.640625,-0.375,0.65625
1630070189125,0.640625,-0.375,0.65625
1630070189156,0.640625,-0.375,0.65625
1630070189187,0.640625,-0.375,0.65625
1630070189218,0.640625,-0.375,0.65625
1630070189250,0.65625,-0.375,0.671875
1630070189281,0.640625,-0.375,0.65625
1630070189312,0.640625,-0.375,0.65625
1630070189343,0.65625,-0.375,0.65625
1630070189375,0.640625,-0.375,0.65625
1630070189406,0.65625,-0.375,0.65625
1630070189437,0.65625,-0.375,0.671875
1630070189468,0.65625,-0.390625,0.65625
1630070189500,0.65625,-0.375,0.65625
1630070189531,0.65625,-0.375,0.65625
1630070189562,0.640625,-0.375,0.65625
1630070189593,0.65625,-0.375,0.65625
1630070189625,0.65625,-0.375,0.65625
1630070189656,0.65625,-0.375,0.65625
1630070189687,0.65625,-0.375,0.65625
1630070189718,0.640625,-0.375,0.65625
1630070189750,0.65625,-0.375,0.65625
1630070189781,0.65625,-0.375,0.65625
1630070189812,0.640625,-0.375,0.65625
1630070189843,0.65625,-0.375,0.65625
1630070189875,0.65625,-0.375,0.65625
1630070189906,0.65625,-0.375,0.65625
1630070189937,0.65625,-0.375,0.65625
1630070189968,0.65625,-0.375,0.65625
1630070190000,0.65625,-0.375,0.65625
1630070190031,0.65625,-0.375,0.65625
1630070190062,0.65625,-0.375,0.65625
1630070190093,0.65625,-0.375,0.65625
1630070190125,0.65625,-0.375,0.65625
1630070190156,0.65625,-0.375,0.65625
1630070190187,0.65625,-0.375,0.65625
1630070190218,0.65625,-0.375,0.65625
1630070190250,0.65625,-0.375,0.65625
1630070190281,0.65625,-0.375,0.65625
1630070190312,0.65625,-0.375,0.65625
1630070190343,0.65625,-0.375,0.65625
1630070190375,0.65625,-0.375,0.65625
1630070190406,0.65625,-0.375,0.65625
1630070190437,0.65625,-0.375,0.65625
1630070190468,0.65625,-0.375,0.65625
1630070190500,0.65625,-0.375,0.65625
1630070190531,0.65625,-0.375,0.65625
1630070190562,0.65625,-0.375,0.65625
1630070190593,0.65625,-0.375,0.65625
1630070190625,0.65625,-0.375,0.65625
1630070190656,0.65625,-0.375,0.65625
1630070190687,0.65625,-0.375,0.65625
1630070190718,0.65625,-0.375,0.65625
1630070190750,0.65625,-0.375,0.65625
1630070190781,0.65625,-0.375,0.65625
1630070190812,0.65625,-0.375,0.65625
1630070190843,0.65625,-0.375,0.65625
1630070190875,0.65625,-0.375,0.65625
1630070190906,0.65625,-0.375,0.640625
1630070190937,0.65625,-0.375,0.65625
1630070190968,0.65625,-0.375,0.65625
1630070191000,0.65625,-0.375,0.65625
1630070191031,0.65625,-0.375,0.65625
1630070191062,0.65625,-0.375,0.65625
1630070191093,0.65625,-0.375,0.65625
1630070191125,0.65625,-0.375,0.65625
1630070191156,0.65625,-0.375,0.65625
1630070191187,0.65625,-0.375,0.65625
1630070191218,0.65625,-0.375,0.65625
1630070191250,0.65625,-0.375,0.65625
1630070191281,0.65625,-0.375,0.65625
1630070191312,0.65625,-0.375,0.65625
1630070191343,0.65625,-0.375,0.65625
1630070191375,0.65625,-0.375,0.65625
1630070191406,0.640625,-0.375,0.65625
1630070191437,0.65625,-0.375,0.65625
1630070191468,0.65625,-0.375,0.65625
1630070191500,0.65625,-0.375,0.65625
1630070191531,0.65625,-0.375,0.65625
1630070191562,0.640625,-0.375,0.65625
1630070191593,0.65625,-0.375,0.65625
1630070191625,0.640625,-0.375,0.65625
1630070191656,0.65625,-0.375,0.65625
1630070191687,0.640625,-0.375,0.65625
1630070191718,0.640625,-0.375,0.65625
1630070191750,0.65625,-0.375,0.671875
1630070191781,0.640625,-0.375,0.65625
1630070191812,0.640625,-0.375,0.65625
1630070191843,0.640625,-0.375,0.65625
1630070191875,0.640625,-0.375,0.65625
1630070191906,0.640625,-0.375,0.65625
1630070191937,0.640625,-0.375,0.65625
1630070191968,0.640625,-0.375,0.65625
1630070192000,0.640625,-0.375,0.65625
1630070192031,0.640625,-0.375,0.65625
1630070192062,0.640625,-0.375,0.65625
1630070192093,0.65625,-0.375,0.65625
1630070192125,0.640625,-0.375,0.65625
1630070192156,0.640625,-0.375,0.65625
1630070192187,0.65625,-0.375,0.65625
1630070192218,0.640625,-0.375,0.65625
1630070192250,0.640625,-0.375,0.65625
1630070192281,0.65625,-0.375,0.65625
1630070192312,0.640625,-0.375,0.65625
1630070192343,0.65625,-0.375,0.65625
1630070192375,0.65625,-0.375,0.65625
1630070192406,0.640625,-0.375,0.65625
1630070192437,0.65625,-0.375,0.65625
1630070192468,0.65625,-0.375,0.65625
1630070192500,0.65625,-0.375,0.65625
1630070192531,0.65625,-0.375,0.65625
1630070192562,0.65625,-0.375,0.65625
1630070192593,0.65625,-0.375,0.65625
1630070192625,0.65625,-0.375,0.65625
1630070192656,0.65625,-0.375,0.65625
1630070192687,0.65625,-0.375,0.65625
1630070192718,0.65625,-0.375,0.65625
1630070192750,0.65625,-0.375,0.65625
1630070192781,0.65625,-0.375,0.65625
1630070192812,0.65625,-0.375,0.65625
1630070192843,0.65625,-0.375,0.65625
1630070192875,0.65625,-0.375,0.65625
1630070192906,0.65625,-0.375,0.65625
1630070192937,0.65625,-0.375,0.65625
1630070192968,0.65625,-0.375,0.65625
1630070193000,0.65625,-0.375,0.65625
1630070193031,0.65625,-0.375,0.65625
1630070193062,0.65625,-0.375,0.65625
1630070193093,0.65625,-0.375,0.65625
1630070193125,0.65625,-0.375,0.65625
1630070193156,0.65625,-0.375,0.65625
1630070193187,0.65625,-0.375,0.65625
1630070193218,0.65625,-0.375,0.65625
1630070193250,0.65625,-0.375,0.65625
1630070193281,0.65625,-0.375,0.65625
1630070193312,0.65625,-0.375,0.65625
1630070193343,0.65625,-0.375,0.640625
1630070193375,0.65625,-0.375,0.65625
1630070193406,0.65625,-0.375,0.65625
1630070193437,0.65625,-0.375,0.65625
1630070193468,0.65625,-0.375,0.65625
1630070193500,0.65625,-0.375,0.65625
1630070193531,0.65625,-0.375,0.65625
1630070193562,0.65625,-0.375,0.65625
1630070193593,0.65625,-0.375,0.65625
1630070193625,0.65625,-0.375,0.65625
