timestamp,ax,ay,az
1630674781593,-0.578125,0.203125,0.78125
1630674781625,-0.578125,0.25,0.75
1630674781656,-0.5625,0.234375,0.734375
1630674781687,-0.53125,0.265625,0.734375
1630674781718,-0.53125,0.296875,0.703125
1630674781750,-0.515625,0.328125,0.671875
1630674781781,-0.484375,0.34375,0.65625
1630674781812,-0.515625,0.375,0.625
1630674781843,-0.625,0.359375,0.71875
1630674781875,-0.609375,0.359375,0.84375
1630674781906,-0.484375,0.40625,0.96875
1630674781937,-0.4375,0.40625,0.9375
1630674781968,-0.40625,0.40625,0.828125
1630674782000,-0.46875,0.390625,0.796875
1630674782031,-0.484375,0.390625,0.8125
1630674782062,-0.4375,0.375,0.796875
1630674782093,-0.4375,0.375,0.796875
1630674782125,-0.453125,0.390625,0.78125
1630674782156,-0.484375,0.390625,0.8125
1630674782187,-0.46875,0.375,0.78125
1630674782218,-0.453125,0.359375,0.78125
1630674782250,-0.4375,0.375,0.796875
1630674782281,-0.421875,0.375,0.796875
1630674782312,-0.390625,0.390625,0.828125
1630674782343,-0.390625,0.375,0.84375
1630674782375,-0.390625,0.359375,0.828125
1630674782406,-0.4375,0.359375,0.796875
1630674782437,-0.46875,0.359375,0.78125
1630674782468,-0.46875,0.375,0.796875
1630674782500,-0.453125,0.375,0.796875
1630674782531,-0.4375,0.375,0.8125
1630674782562,-0.40625,0.375,0.8125
1630674782593,-0.390625,0.375,0.796875
1630674782625,-0.40625,0.375,0.8125
1630674782656,-0.40625,0.359375,0.828125
1630674782687,-0.4375,0.359375,0.796875
1630674782718,-0.453125,0.359375,0.796875
1630674782750,-0.4375,0.375,0.796875
1630674782781,-0.4375,0.375,0.8125
1630674782812,-0.421875,0.375,0.828125
1630674782843,-0.421875,0.375,0.796875
1630674782875,-0.421875,0.359375,0.796875
1630674782906,-0.421875,0.375,0.8125
1630674782937,-0.421875,0.375,0.8125
1630674782968,-0.421875,0.375,0.8125
1630674783000,-0.421875,0.359375,0.8125
1630674783031,-0.421875,0.375,0.8125
1630674783062,-0.421875,0.375,0.8125
1630674783093,-0.421875,0.375,0.8125
1630674783125,-0.421875,0.375,0.8125
1630674783156,-0.40625,0.375,0.8125
1630674783187,-0.421875,0.375,0.828125
1630674783218,-0.40625,0.375,0.8125
1630674783250,-0.421875,0.375,0.8125
1630674783281,-0.40625,0.375,0.8125
1630674783312,-0.40625,0.375,0.8125
1630674783343,-0.421875,0.375,0.8125
1630674783375,-0.421875,0.375,0.8125
1630674783406,-0.40625,0.375,0.8125
1630674783437,-0.40625,0.375,0.8125
1630674783468,-0.40625,0.375,0.8125
1630674783500,-0.40625,0.375,0.8125
1630674783531,-0.421875,0.375,0.828125
1630674783562,-0.40625,0.375,0.8125
1630674783593,-0.40625,0.375,0.8125
1630674783625,-0.421875,0.375,0.8125
1630674783656,-0.40625,0.375,0.8125
1630674783687,-0.40625,0.375,0.8125
1630674783718,-0.40625,0.375,0.8125
1630674783750,-0.40625,0.375,0.8125
1630674783781,-0.421875,0.375,0.8125
1630674783812,-0.40625,0.375,0.8125
1630674783843,-0.40625,0.375,0.8125
1630674783875,-0.40625,0.375,0.8125
1630674783906,-0.40625,0.375,0.8125
1630674783937,-0.40625,0.375,0.828125
1630674783968,-0.40625,0.375,0.8125
1630674784000,-0.40625,0.375,0.8125
1630674784031,-0.40625,0.375,0.8125
1630674784062,-0.40625,0.375,0.8125
1630674784093,-0.40625,0.375,0.8125
1630674784125,-0.40625,0.375,0.8125
1630674784156,-0.40625,0.375,0.8125
1630674784187,-0.40625,0.375,0.828125
1630674784218,-0.40625,0.375,0.8125
1630674784250,-0.40625,0.375,0.8125
1630674784281,-0.40625,0.375,0.8125
1630674784312,-0.40625,0.375,0.8125
1630674784343,-0.40625,0.375,0.8125
1630674784375,-0.40625,0.375,0.828125
1630674784406,-0.40625,0.375,0.828125
1630674784437,-0.40625,0.375,0.8125
1630674784468,-0.40625,0.375,0.8125
1630674784500,-0.40625,0.375,0.8125
1630674784531,-0.40625,0.375,0.8125
1630674784562,-0.40625,0.375,0.8125
1630674784593,-0.40625,0.375,0.828125
1630674784625,-0.40625,0.375,0.8125
1630674784656,-0.40625,0.375,0.8125
1630674784687,-0.40625,0.375,0.8125
1630674784718,-0.40625,0.375,0.8125
1630674784750,-0.40625,0.375,0.8125
1630674784781,-0.40625,0.375,0.8125
1630674784812,-0.390625,0.375,0.828125
1630674784843,-0.40625,0.375,0.8125
1630674784875,-0.40625,0.375,0.8125
1630674784906,-0.40625,0.375,0.828125
1630674784937,-0.40625,0.375,0.828125
1630674784968,-0.40625,0.375,0.828125
1630674785000,-0.40625,0.375,0.8125
1630674785031,-0.40625,0.375,0.796875
1630674785062,-0.40625,0.375,0.796875
1630674785093,-0.40625,0.375,0.828125
1630674785125,-0.40625,0.375,0.828125
1630674785156,-0.40625,0.375,0.8125
1630674785187,-0.40625,0.359375,0.828125
1630674785218,-0.40625,0.375,0.828125
1630674785250,-0.390625,0.375,0.828125
1630674785281,-0.40625,0.390625,0.828125
1630674785312,-0.390625,0.390625,0.828125
1630674785343,-0.390625,0.390625,0.828125
1630674785375,-0.390625,0.390625,0.828125
1630674785406,-0.390625,0.390625,0.8125
1630674785437,-0.390625,0.40625,0.828125
1630674785468,-0.390625,0.40625,0.828125
1630674785500,-0.390625,0.390625,0.8125
1630674785531,-0.390625,0.390625,0.828125
1630674785562,-0.390625,0.375,0.828125
1630674785593,-0.390625,0.375,0.828125
1630674785625,-0.390625,0.375,0.828125
1630674785656,-0.390625,0.375,0.828125
1630674785687,-0.390625,0.390625,0.8125
1630674785718,-0.390625,0.390625,0.8125
1630674785750,-0.390625,0.390625,0.8125
1630674785781,-0.40625,0.390625,0.8125
1630674785812,-0.40625,0.390625,0.8125
1630674785843,-0.40625,0.390625,0.8125
1630674785875,-0.40625,0.390625,0.8125
1630674785906,-0.40625,0.375,0.8125
1630674785937,-0.390625,0.375,0.8125
1630674785968,-0.40625,0.390625,0.796875
1630674786000,-0.421875,0.40625,0.8125
1630674786031,-0.421875,0.40625,0.828125
1630674786062,-0.390625,0.390625,0.8125
1630674786093,-0.40625,0.390625,0.8125
1630674786125,-0.390625,0.390625,0.8125
1630674786156,-0.40625,0.390625,0.8125
1630674786187,-0.40625,0.390625,0.8125
1630674786218,-0.40625,0.390625,0.8125
1630674786250,-0.40625,0.390625,0.8125
1630674786281,-0.390625,0.390625,0.8125
1630674786312,-0.390625,0.375,0.8125
1630674786343,-0.390625,0.375,0.8125
1630674786375,-0.40625,0.390625,0.8125
1630674786406,-0.40625,0.390625,0.8125
1630674786437,-0.390625,0.390625,0.8125
1630674786468,-0.390625,0.390625,0.8125
1630674786500,-0.390625,0.390625,0.828125
1630674786531,-0.390625,0.390625,0.828125
1630674786562,-0.390625,0.390625,0.828125
1630674786593,-0.40625,0.375,0.8125
1630674786625,-0.390625,0.390625,0.8125
1630674786656,-0.390625,0.390625,0.828125
1630674786687,-0.390625,0.390625,0.8125
1630674786718,-0.390625,0.390625,0.8125
1630674786750,-0.390625,0.390625,0.8125
1630674786781,-0.40625,0.390625,0.8125
1630674786812,-0.390625,0.390625,0.8125
1630674786843,-0.390625,0.390625,0.8125
1630674786875,-0.390625,0.390625,0.8125
1630674786906,-0.40625,0.390625,0.8125
1630674786937,-0.390625,0.390625,0.8125
1630674786968,-0.390625,0.390625,0.8125
1630674787000,-0.390625,0.390625,0.8125
1630674787031,-0.390625,0.390625,0.828125
1630674787062,-0.390625,0.390625,0.8125
1630674787093,-0.40625,0.390625,0.8125
1630674787125,-0.390625,0.390625,0.8125
1630674787156,-0.390625,0.390625,0.8125
1630674787187,-0.390625,0.390625,0.8125
1630674787218,-0.390625,0.390625,0.8125
1630674787250,-0.390625,0.390625,0.8125
1630674787281,-0.40625,0.375,0.8125
1630674787312,-0.390625,0.390625,0.8125
1630674787343,-0.390625,0.390625,0.8125
1630674787375,-0.40625,0.390625,0.828125
1630674787406,-0.390625,0.390625,0.828125
1630674787437,-0.390625,0.390625,0.8125
1630674787468,-0.390625,0.390625,0.8125
1630674787500,-0.390625,0.390625,0.8125
1630674787531,-0.40625,0.390625,0.8125
1630674787562,-0.421875,0.390625,0.8125
1630674787593,-0.40625,0.390625,0.8125
1630674787625,-0.390625,0.390625,0.8125
1630674787656,-0.421875,0.40625,0.8125
1630674787687,-0.421875,0.390625,0.8125
1630674787718,-0.40625,0.390625,0.828125
1630674787750,-0.40625,0.375,0.828125
1630674787781,-0.375,0.359375,0.828125
1630674787812,-0.375,0.359375,0.796875
1630674787843,-0.40625,0.375,0.8125
1630674787875,-0.421875,0.390625,0.828125
1630674787906,-0.40625,0.40625,0.8125
1630674787937,-0.40625,0.40625,0.8125
1630674787968,-0.484375,0.390625,0.765625
1630674788000,-0.421875,0.359375,0.78125
1630674788031,-0.453125,0.34375,0.78125
1630674788062,-0.421875,0.359375,0.765625
1630674788093,-0.328125,0.375,0.8125
1630674788125,-0.53125,0.453125,0.859375
1630674788156,-0.375,0.453125,0.890625
1630674788187,-0.296875,0.421875,0.859375
1630674788218,-0.234375,0.390625,0.8125
1630674788250,-0.28125,0.359375,0.859375
1630674788281,-0.171875,0.34375,0.953125
1630674788312,-0.125,0.3125,0.890625
1630674788343,-0.15625,0.3125,0.84375
1630674788375,-0.1875,0.328125,0.890625
1630674788406,-0.234375,0.359375,0.890625
1630674788437,-0.359375,0.359375,0.8125
1630674788468,-0.390625,0.359375,0.796875
1630674788500,-0.390625,0.359375,0.8125
1630674788531,-0.40625,0.390625,0.921875
1630674788562,-0.53125,0.421875,0.859375
1630674788593,-0.40625,0.40625,0.8125
1630674788625,-0.34375,0.390625,0.75
1630674788656,-0.34375,0.359375,0.734375
1630674788687,-0.5,0.40625,0.78125
1630674788718,-0.375,0.390625,0.84375
1630674788750,-0.640625,0.34375,0.625
1630674788781,-0.6875,0.359375,0.625
1630674788812,-0.546875,0.375,0.71875
1630674788843,-0.375,0.390625,0.859375
1630674788875,-0.3125,0.421875,0.90625
1630674788906,-0.234375,0.453125,0.890625
1630674788937,-0.375,0.484375,0.828125
1630674788968,-0.4375,0.484375,0.796875
1630674789000,-0.46875,0.453125,0.78125
1630674789031,-0.421875,0.421875,0.78125
1630674789062,-0.421875,0.421875,0.78125
1630674789093,-0.421875,0.421875,0.78125
1630674789125,-0.421875,0.4375,0.796875
1630674789156,-0.40625,0.4375,0.796875
1630674789187,-0.40625,0.4375,0.796875
1630674789218,-0.40625,0.4375,0.796875
1630674789250,-0.40625,0.4375,0.78125
1630674789281,-0.421875,0.4375,0.78125
1630674789312,-0.421875,0.4375,0.796875
1630674789343,-0.40625,0.4375,0.796875
1630674789375,-0.40625,0.4375,0.78125
1630674789406,-0.40625,0.4375,0.796875
1630674789437,-0.40625,0.4375,0.796875
1630674789468,-0.40625,0.4375,0.78125
1630674789500,-0.421875,0.4375,0.78125
1630674789531,-0.40625,0.4375,0.796875
1630674789562,-0.40625,0.4375,0.78125
1630674789593,-0.40625,0.4375,0.78125
1630674789625,-0.40625,0.4375,0.78125
1630674789656,-0.40625,0.4375,0.78125
1630674789687,-0.40625,0.4375,0.796875
1630674789718,-0.40625,0.4375,0.78125
1630674789750,-0.40625,0.4375,0.78125
1630674789781,-0.40625,0.4375,0.78125
1630674789812,-0.40625,0.4375,0.78125
1630674789843,-0.40625,0.4375,0.78125
1630674789875,-0.40625,0.4375,0.78125
1630674789906,-0.40625,0.4375,0.78125
1630674789937,-0.40625,0.4375,0.78125
1630674789968,-0.40625,0.4375,0.78125
1630674790000,-0.40625,0.4375,0.78125
1630674790031,-0.40625,0.4375,0.78125
1630674790062,-0.40625,0.4375,0.78125
1630674790093,-0.40625,0.4375,0.796875
1630674790125,-0.40625,0.4375,0.78125
1630674790156,-0.40625,0.4375,0.78125
1630674790187,-0.40625,0.4375,0.78125
1630674790218,-0.40625,0.4375,0.78125
1630674790250,-0.40625,0.4375,0.78125
1630674790281,-0.40625,0.4375,0.78125
1630674790312,-0.40625,0.4375,0.796875
1630674790343,-0.40625,0.4375,0.78125
1630674790375,-0.40625,0.4375,0.78125
1630674790406,-0.40625,0.4375,0.78125
1630674790437,-0.40625,0.4375,0.78125
1630674790468,-0.40625,0.4375,0.78125
1630674790500,-0.40625,0.4375,0.78125
1630674790531,-0.40625,0.4375,0.78125
1630674790562,-0.40625,0.4375,0.78125
1630674790593,-0.40625,0.4375,0.78125
1630674790625,-0.40625,0.4375,0.78125
1630674790656,-0.40625,0.4375,0.78125
1630674790687,-0.40625,0.4375,0.796875
1630674790718,-0.40625,0.4375,0.796875
1630674790750,-0.40625,0.4375,0.78125
1630674790781,-0.40625,0.4375,0.78125
1630674790812,-0.40625,0.4375,0.78125
1630674790843,-0.40625,0.4375,0.78125
1630674790875,-0.40625,0.4375,0.796875
1630674790906,-0.40625,0.4375,0.78125
1630674790937,-0.40625,0.4375,0.78125
1630674790968,-0.40625,0.4375,0.78125
1630674791000,-0.40625,0.4375,0.78125
1630674791031,-0.40625,0.4375,0.78125
1630674791062,-0.40625,0.4375,0.78125
1630674791093,-0.40625,0.4375,0.78125
1630674791125,-0.40625,0.4375,0.78125
1630674791156,-0.40625,0.4375,0.796875
1630674791187,-0.40625,0.4375,0.78125
1630674791218,-0.40625,0.453125,0.78125
1630674791250,-0.40625,0.4375,0.796875
1630674791281,-0.40625,0.4375,0.78125
1630674791312,-0.40625,0.4375,0.78125
1630674791343,-0.40625,0.4375,0.796875
1630674791375,-0.40625,0.4375,0.78125
1630674791406,-0.40625,0.4375,0.796875
1630674791437,-0.390625,0.4375,0.796875
1630674791468,-0.40625,0.4375,0.78125
1630674791500,-0.40625,0.4375,0.78125
1630674791531,-0.40625,0.4375,0.78125
1630674791562,-0.40625,0.4375,0.78125
1630674791593,-0.40625,0.4375,0.78125
1630674791625,-0.40625,0.4375,0.78125
1630674791656,-0.40625,0.4375,0.78125
1630674791687,-0.40625,0.4375,0.78125
1630674791718,-0.40625,0.4375,0.796875
1630674791750,-0.40625,0.4375,0.78125
1630674791781,-0.40625,0.4375,0.78125
1630674791812,-0.40625,0.4375,0.796875
1630674791843,-0.40625,0.4375,0.796875
1630674791875,-0.40625,0.4375,0.78125
1630674791906,-0.40625,0.4375,0.78125
1630674791937,-0.40625,0.4375,0.78125
1630674791968,-0.40625,0.4375,0.78125
1630674792000,-0.40625,0.4375,0.796875
1630674792031,-0.40625,0.4375,0.78125
1630674792062,-0.40625,0.4375,0.78125
1630674792093,-0.40625,0.4375,0.78125
1630674792125,-0.40625,0.453125,0.796875
1630674792156,-0.40625,0.453125,0.78125
1630674792187,-0.40625,0.4375,0.796875
1630674792218,-0.40625,0.4375,0.78125
1630674792250,-0.40625,0.4375,0.78125
1630674792281,-0.40625,0.4375,0.78125
1630674792312,-0.40625,0.4375,0.78125
1630674792343,-0.40625,0.453125,0.78125
1630674792375,-0.40625,0.453125,0.78125
1630674792406,-0.40625,0.4375,0.78125
1630674792437,-0.40625,0.4375,0.796875
1630674792468,-0.40625,0.453125,0.78125
1630674792500,-0.40625,0.453125,0.78125
1630674792531,-0.40625,0.4375,0.796875
1630674792562,-0.40625,0.4375,0.78125
1630674792593,-0.40625,0.453125,0.78125
1630674792625,-0.40625,0.4375,0.78125
1630674792656,-0.40625,0.4375,0.78125
1630674792687,-0.40625,0.4375,0.78125
1630674792718,-0.40625,0.4375,0.78125
1630674792750,-0.40625,0.4375,0.78125
1630674792781,-0.40625,0.4375,0.796875
1630674792812,-0.40625,0.4375,0.78125
1630674792843,-0.40625,0.453125,0.78125
1630674792875,-0.40625,0.4375,0.78125
1630674792906,-0.40625,0.4375,0.78125
1630674792937,-0.40625,0.4375,0.796875
1630674792968,-0.40625,0.4375,0.78125
1630674793000,-0.40625,0.4375,0.78125
1630674793031,-0.40625,0.4375,0.78125
1630674793062,-0.40625,0.4375,0.796875
1630674793093,-0.40625,0.4375,0.78125
1630674793125,-0.40625,0.4375,0.78125
1630674793156,-0.40625,0.4375,0.78125
1630674793187,-0.40625,0.4375,0.796875
1630674793218,-0.40625,0.4375,0.796875
1630674793250,-0.40625,0.4375,0.78125
1630674793281,-0.40625,0.4375,0.78125
1630674793312,-0.40625,0.453125,0.796875
1630674793343,-0.40625,0.4375,0.78125
1630674793375,-0.40625,0.4375,0.78125
1630674793406,-0.40625,0.4375,0.78125
1630674793437,-0.40625,0.4375,0.78125
1630674793468,-0.40625,0.4375,0.78125
1630674793500,-0.40625,0.4375,0.78125
1630674793531,-0.40625,0.4375,0.78125
1630674793562,-0.40625,0.4375,0.796875
1630674793593,-0.40625,0.4375,0.78125
1630674793625,-0.40625,0.4375,0.78125
1630674793656,-0.40625,0.4375,0.796875
1630674793687,-0.40625,0.4375,0.78125
1630674793718,-0.40625,0.4375,0.796875
1630674793750,-0.40625,0.4375,0.796875
1630674793781,-0.40625,0.453125,0.796875
1630674793812,-0.40625,0.4375,0.78125
1630674793843,-0.40625,0.4375,0.78125
1630674793875,-0.40625,0.4375,0.78125
1630674793906,-0.390625,0.4375,0.78125
1630674793937,-0.40625,0.4375,0.78125
1630674793968,-0.40625,0.4375,0.78125
1630674794000,-0.40625,0.4375,0.78125
1630674794031,-0.40625,0.453125,0.796875
1630674794062,-0.390625,0.4375,0.796875
1630674794093,-0.40625,0.4375,0.796875
1630674794125,-0.40625,0.4375,0.78125
1630674794156,-0.390625,0.4375,0.78125
1630674794187,-0.40625,0.4375,0.78125
1630674794218,-0.40625,0.4375,0.796875
1630674794250,-0.40625,0.4375,0.78125
1630674794281,-0.40625,0.4375,0.796875
1630674794312,-0.40625,0.4375,0.796875
1630674794343,-0.40625,0.4375,0.78125
1630674794375,-0.40625,0.4375,0.78125
1630674794406,-0.390625,0.4375,0.78125
1630674794437,-0.40625,0.4375,0.78125
1630674794468,-0.40625,0.4375,0.78125
1630674794500,-0.40625,0.4375,0.78125
1630674794531,-0.390625,0.4375,0.796875
1630674794562,-0.390625,0.4375,0.796875
1630674794593,-0.40625,0.4375,0.78125
1630674794625,-0.40625,0.4375,0.796875
1630674794656,-0.40625,0.4375,0.796875
1630674794687,-0.40625,0.4375,0.796875
1630674794718,-0.40625,0.453125,0.78125
1630674794750,-0.40625,0.4375,0.796875
1630674794781,-0.390625,0.4375,0.796875
1630674794812,-0.390625,0.4375,0.796875
1630674794843,-0.40625,0.4375,0.796875
1630674794875,-0.390625,0.4375,0.796875
1630674794906,-0.390625,0.4375,0.78125
1630674794937,-0.390625,0.4375,0.78125
1630674794968,-0.390625,0.4375,0.796875
1630674795000,-0.40625,0.4375,0.78125
1630674795031,-0.40625,0.453125,0.78125
1630674795062,-0.40625,0.4375,0.796875
1630674795093,-0.40625,0.453125,0.796875
1630674795125,-0.40625,0.4375,0.796875
1630674795156,-0.390625,0.4375,0.78125
1630674795187,-0.390625,0.453125,0.78125
1630674795218,-0.390625,0.4375,0.78125
1630674795250,-0.390625,0.4375,0.796875
1630674795281,-0.390625,0.4375,0.78125
1630674795312,-0.40625,0.4375,0.796875
1630674795343,-0.390625,0.4375,0.78125
1630674795375,-0.40625,0.4375,0.78125
1630674795406,-0.390625,0.4375,0.78125
1630674795437,-0.390625,0.4375,0.78125
1630674795468,-0.40625,0.453125,0.78125
1630674795500,-0.40625,0.4375,0.796875
1630674795531,-0.40625,0.4375,0.78125
1630674795562,-0.390625,0.4375,0.796875
1630674795593,-0.390625,0.4375,0.796875
1630674795625,-0.390625,0.4375,0.796875
1630674795656,-0.390625,0.4375,0.796875
1630674795687,-0.40625,0.4375,0.796875
1630674795718,-0.390625,0.4375,0.796875
1630674795750,-0.40625,0.4375,0.796875
1630674795781,-0.390625,0.453125,0.796875
1630674795812,-0.40625,0.4375,0.78125
1630674795843,-0.390625,0.4375,0.78125
1630674795875,-0.390625,0.4375,0.796875
1630674795906,-0.390625,0.4375,0.796875
1630674795937,-0.390625,0.4375,0.78125
1630674795968,-0.390625,0.453125,0.78125
1630674796000,-0.40625,0.4375,0.796875
1630674796031,-0.390625,0.4375,0.78125
1630674796062,-0.390625,0.453125,0.78125
1630674796093,-0.40625,0.4375,0.796875
1630674796125,-0.390625,0.4375,0.796875
1630674796156,-0.390625,0.4375,0.78125
1630674796187,-0.390625,0.4375,0.796875
1630674796218,-0.390625,0.4375,0.796875
1630674796250,-0.390625,0.4375,0.78125
1630674796281,-0.390625,0.4375,0.78125
1630674796312,-0.390625,0.4375,0.78125
1630674796343,-0.390625,0.4375,0.796875
1630674796375,-0.390625,0.453125,0.796875
1630674796406,-0.390625,0.4375,0.796875
1630674796437,-0.390625,0.4375,0.796875
1630674796468,-0.390625,0.4375,0.796875
1630674796500,-0.390625,0.4375,0.796875
1630674796531,-0.40625,0.4375,0.796875
1630674796562,-0.390625,0.4375,0.796875
1630674796593,-0.390625,0.4375,0.796875
1630674796625,-0.390625,0.4375,0.796875
1630674796656,-0.390625,0.4375,0.796875
1630674796687,-0.390625,0.4375,0.78125
1630674796718,-0.390625,0.4375,0.78125
1630674796750,-0.40625,0.4375,0.796875
1630674796781,-0.390625,0.4375,0.796875
1630674796812,-0.390625,0.4375,0.78125
1630674796843,-0.390625,0.4375,0.796875
1630674796875,-0.390625,0.4375,0.796875
1630674796906,-0.390625,0.4375,0.78125
1630674796937,-0.40625,0.4375,0.78125
1630674796968,-0.40625,0.4375,0.78125
1630674797000,-0.390625,0.4375,0.796875
1630674797031,-0.390625,0.4375,0.78125
1630674797062,-0.390625,0.4375,0.796875
1630674797093,-0.40625,0.4375,0.796875
1630674797125,-0.390625,0.4375,0.78125
1630674797156,-0.390625,0.4375,0.78125
1630674797187,-0.390625,0.4375,0.796875
1630674797218,-0.390625,0.4375,0.78125
1630674797250,-0.390625,0.4375,0.796875
1630674797281,-0.390625,0.4375,0.796875
1630674797312,-0.390625,0.4375,0.796875
1630674797343,-0.390625,0.4375,0.78125
1630674797375,-0.40625,0.4375,0.78125
1630674797406,-0.390625,0.4375,0.796875
1630674797437,-0.390625,0.4375,0.796875
1630674797468,-0.390625,0.4375,0.796875
1630674797500,-0.390625,0.4375,0.796875
1630674797531,-0.390625,0.4375,0.796875
1630674797562,-0.390625,0.4375,0.78125
1630674797593,-0.390625,0.4375,0.796875
1630674797625,-0.390625,0.4375,0.796875
1630674797656,-0.390625,0.4375,0.796875
1630674797687,-0.390625,0.4375,0.78125
1630674797718,-0.390625,0.4375,0.796875
1630674797750,-0.390625,0.4375,0.78125
1630674797781,-0.390625,0.4375,0.796875
1630674797812,-0.390625,0.4375,0.78125
1630674797843,-0.390625,0.4375,0.796875
1630674797875,-0.390625,0.4375,0.78125
1630674797906,-0.390625,0.4375,0.78125
1630674797937,-0.390625,0.4375,0.796875
1630674797968,-0.390625,0.4375,0.796875
1630674798000,-0.390625,0.453125,0.796875
1630674798031,-0.390625,0.4375,0.796875
1630674798062,-0.390625,0.4375,0.78125
1630674798093,-0.390625,0.4375,0.796875
1630674798125,-0.390625,0.4375,0.796875
1630674798156,-0.390625,0.4375,0.78125
1630674798187,-0.390625,0.4375,0.796875
1630674798218,-0.390625,0.4375,0.796875
1630674798250,-0.390625,0.4375,0.78125
1630674798281,-0.390625,0.4375,0.796875
1630674798312,-0.390625,0.4375,0.796875
1630674798343,-0.390625,0.4375,0.78125
1630674798375,-0.390625,0.4375,0.796875
1630674798406,-0.390625,0.4375,0.796875
1630674798437,-0.390625,0.4375,0.78125
1630674798468,-0.390625,0.4375,0.78125
1630674798500,-0.390625,0.4375,0.796875
1630674798531,-0.390625,0.4375,0.78125
1630674798562,-0.390625,0.453125,0.796875
1630674798593,-0.390625,0.4375,0.78125
1630674798625,-0.390625,0.4375,0.78125
1630674798656,-0.390625,0.4375,0.796875
1630674798687,-0.390625,0.4375,0.796875
1630674798718,-0.390625,0.4375,0.78125
1630674798750,-0.40625,0.4375,0.78125
1630674798781,-0.390625,0.4375,0.796875
1630674798812,-0.390625,0.453125,0.796875
1630674798843,-0.390625,0.4375,0.796875
1630674798875,-0.390625,0.4375,0.796875
1630674798906,-0.390625,0.4375,0.796875
1630674798937,-0.390625,0.4375,0.796875
1630674798968,-0.390625,0.4375,0.796875
1630674799000,-0.390625,0.4375,0.78125
1630674799031,-0.390625,0.4375,0.78125
1630674799062,-0.390625,0.4375,0.78125
1630674799093,-0.390625,0.4375,0.796875
1630674799125,-0.390625,0.4375,0.796875
1630674799156,-0.390625,0.4375,0.78125
1630674799187,-0.390625,0.453125,0.796875
1630674799218,-0.390625,0.453125,0.796875
1630674799250,-0.390625,0.4375,0.796875
1630674799281,-0.390625,0.4375,0.796875
1630674799312,-0.390625,0.4375,0.796875
1630674799343,-0.390625,0.4375,0.796875
1630674799375,-0.390625,0.4375,0.78125
1630674799406,-0.390625,0.453125,0.796875
1630674799437,-0.390625,0.4375,0.796875
1630674799468,-0.390625,0.4375,0.796875
1630674799500,-0.40625,0.4375,0.796875
1630674799531,-0.390625,0.4375,0.78125
1630674799562,-0.390625,0.4375,0.796875
1630674799593,-0.40625,0.4375,0.796875
1630674799625,-0.390625,0.4375,0.78125
1630674799656,-0.390625,0.453125,0.796875
1630674799687,-0.390625,0.4375,0.796875
1630674799718,-0.390625,0.4375,0.796875
1630674799750,-0.390625,0.4375,0.796875
1630674799781,-0.390625,0.4375,0.78125
1630674799812,-0.390625,0.4375,0.796875
1630674799843,-0.390625,0.4375,0.796875
1630674799875,-0.390625,0.4375,0.78125
1630674799906,-0.390625,0.4375,0.796875
1630674799937,-0.390625,0.4375,0.796875
1630674799968,-0.40625,0.4375,0.78125
1630674800000,-0.390625,0.4375,0.796875
1630674800031,-0.390625,0.4375,0.796875
1630674800062,-0.390625,0.4375,0.796875
1630674800093,-0.390625,0.4375,0.796875
1630674800125,-0.390625,0.4375,0.78125
1630674800156,-0.390625,0.4375,0.78125
1630674800187,-0.40625,0.453125,0.796875
1630674800218,-0.390625,0.4375,0.796875
1630674800250,-0.390625,0.4375,0.78125
1630674800281,-0.390625,0.4375,0.796875
1630674800312,-0.390625,0.453125,0.78125
1630674800343,-0.390625,0.4375,0.796875
1630674800375,-0.390625,0.4375,0.796875
1630674800406,-0.390625,0.4375,0.78125
1630674800437,-0.390625,0.4375,0.796875
1630674800468,-0.390625,0.4375,0.796875
1630674800500,-0.390625,0.4375,0.796875
1630674800531,-0.390625,0.4375,0.796875
1630674800562,-0.390625,0.4375,0.796875
1630674800593,-0.390625,0.4375,0.796875
1630674800625,-0.390625,0.4375,0.796875
1630674800656,-0.390625,0.4375,0.796875
1630674800687,-0.390625,0.4375,0.78125
1630674800718,-0.390625,0.4375,0.796875
1630674800750,-0.390625,0.4375,0.796875
1630674800781,-0.390625,0.4375,0.796875
1630674800812,-0.390625,0.4375,0.796875
1630674800843,-0.390625,0.4375,0.796875
1630674800875,-0.390625,0.4375,0.796875
1630674800906,-0.40625,0.4375,0.78125
1630674800937,-0.390625,0.4375,0.796875
1630674800968,-0.390625,0.4375,0.796875
1630674801000,-0.390625,0.4375,0.796875
1630674801031,-0.390625,0.4375,0.78125
1630674801062,-0.40625,0.4375,0.796875
1630674801093,-0.390625,0.4375,0.796875
1630674801125,-0.390625,0.453125,0.796875
1630674801156,-0.390625,0.4375,0.796875
1630674801187,-0.390625,0.4375,0.796875
1630674801218,-0.390625,0.4375,0.78125
1630674801250,-0.390625,0.4375,0.796875
1630674801281,-0.390625,0.4375,0.796875
1630674801312,-0.390625,0.4375,0.796875
1630674801343,-0.390625,0.4375,0.796875
1630674801375,-0.390625,0.4375,0.796875
1630674801406,-0.390625,0.4375,0.796875
1630674801437,-0.390625,0.4375,0.796875
1630674801468,-0.390625,0.453125,0.796875
1630674801500,-0.390625,0.4375,0.796875
1630674801531,-0.390625,0.4375,0.796875
1630674801562,-0.390625,0.4375,0.796875
1630674801593,-0.390625,0.4375,0.796875
1630674801625,-0.390625,0.4375,0.796875
1630674801656,-0.390625,0.4375,0.796875
1630674801687,-0.390625,0.453125,0.796875
1630674801718,-0.390625,0.4375,0.796875
1630674801750,-0.390625,0.453125,0.796875
1630674801781,-0.390625,0.4375,0.796875
1630674801812,-0.390625,0.4375,0.796875
1630674801843,-0.390625,0.453125,0.78125
1630674801875,-0.390625,0.4375,0.796875
1630674801906,-0.390625,0.4375,0.796875
1630674801937,-0.390625,0.453125,0.796875
1630674801968,-0.390625,0.453125,0.796875
1630674802000,-0.390625,0.4375,0.796875
1630674802031,-0.390625,0.4375,0.796875
1630674802062,-0.390625,0.4375,0.796875
1630674802093,-0.390625,0.4375,0.796875
1630674802125,-0.390625,0.4375,0.796875
1630674802156,-0.390625,0.4375,0.796875
1630674802187,-0.390625,0.4375,0.796875
1630674802218,-0.390625,0.4375,0.78125
1630674802250,-0.390625,0.4375,0.78125
1630674802281,-0.390625,0.4375,0.796875
1630674802312,-0.390625,0.4375,0.796875
1630674802343,-0.390625,0.453125,0.796875
1630674802375,-0.390625,0.4375,0.796875
1630674802406,-0.390625,0.4375,0.796875
1630674802437,-0.390625,0.4375,0.796875
1630674802468,-0.390625,0.4375,0.796875
1630674802500,-0.390625,0.4375,0.796875
1630674802531,-0.390625,0.4375,0.796875
1630674802562,-0.390625,0.4375,0.796875
1630674802593,-0.390625,0.4375,0.796875
1630674802625,-0.390625,0.4375,0.796875
1630674802656,-0.390625,0.4375,0.796875
1630674802687,-0.390625,0.4375,0.796875
1630674802718,-0.390625,0.4375,0.796875
1630674802750,-0.390625,0.4375,0.796875
1630674802781,-0.390625,0.4375,0.796875
1630674802812,-0.390625,0.4375,0.796875
1630674802843,-0.390625,0.4375,0.796875
1630674802875,-0.390625,0.4375,0.796875
1630674802906,-0.390625,0.4375,0.796875
1630674802937,-0.390625,0.4375,0.796875
1630674802968,-0.390625,0.4375,0.796875
1630674803000,-0.390625,0.4375,0.796875
1630674803031,-0.390625,0.4375,0.796875
1630674803062,-0.390625,0.4375,0.796875
1630674803093,-0.390625,0.4375,0.796875
1630674803125,-0.390625,0.4375,0.796875
1630674803156,-0.390625,0.4375,0.796875
1630674803187,-0.390625,0.4375,0.796875
1630674803218,-0.390625,0.4375,0.796875
1630674803250,-0.390625,0.4375,0.796875
1630674803281,-0.390625,0.4375,0.796875
1630674803312,-0.390625,0.4375,0.796875
1630674803343,-0.390625,0.4375,0.796875
1630674803375,-0.390625,0.4375,0.796875
1630674803406,-0.390625,0.4375,0.796875
1630674803437,-0.390625,0.4375,0.796875
1630674803468,-0.390625,0.4375,0.796875
1630674803500,-0.390625,0.4375,0.796875
1630674803531,-0.390625,0.4375,0.796875
1630674803562,-0.390625,0.4375,0.796875
1630674803593,-0.390625,0.4375,0.796875
1630674803625,-0.390625,0.4375,0.796875
1630674803656,-0.390625,0.4375,0.796875
1630674803687,-0.390625,0.4375,0.796875
1630674803718,-0.390625,0.4375,0.796875
1630674803750,-0.390625,0.4375,0.796875
1630674803781,-0.390625,0.4375,0.796875
1630674803812,-0.390625,0.4375,0.796875
1630674803843,-0.390625,0.4375,0.78125
1630674803875,-0.390625,0.4375,0.796875
1630674803906,-0.390625,0.4375,0.796875
1630674803937,-0.390625,0.4375,0.796875
1630674803968,-0.390625,0.4375,0.796875
1630674804000,-0.390625,0.4375,0.796875
1630674804031,-0.390625,0.4375,0.796875
1630674804062,-0.390625,0.4375,0.796875
1630674804093,-0.390625,0.4375,0.796875
1630674804125,-0.390625,0.4375,0.796875
1630674804156,-0.390625,0.4375,0.796875
1630674804187,-0.390625,0.4375,0.78125
1630674804218,-0.390625,0.4375,0.796875
1630674804250,-0.40625,0.4375,0.796875
1630674804281,-0.390625,0.4375,0.796875
1630674804312,-0.390625,0.4375,0.78125
1630674804343,-0.390625,0.4375,0.796875
1630674804375,-0.390625,0.453125,0.796875
1630674804406,-0.390625,0.4375,0.796875
1630674804437,-0.390625,0.4375,0.796875
1630674804468,-0.390625,0.4375,0.796875
1630674804500,-0.390625,0.4375,0.796875
1630674804531,-0.390625,0.4375,0.796875
1630674804562,-0.390625,0.453125,0.796875
1630674804593,-0.390625,0.4375,0.796875
1630674804625,-0.390625,0.4375,0.796875
1630674804656,-0.390625,0.453125,0.796875
1630674804687,-0.390625,0.4375,0.796875
1630674804718,-0.390625,0.4375,0.78125
1630674804750,-0.390625,0.4375,0.796875
1630674804781,-0.390625,0.4375,0.796875
1630674804812,-0.390625,0.4375,0.796875
1630674804843,-0.390625,0.4375,0.796875
1630674804875,-0.390625,0.4375,0.78125
1630674804906,-0.390625,0.4375,0.796875
1630674804937,-0.390625,0.4375,0.796875
1630674804968,-0.390625,0.4375,0.78125
1630674805000,-0.390625,0.4375,0.796875
1630674805031,-0.390625,0.453125,0.796875
1630674805062,-0.390625,0.453125,0.78125
1630674805093,-0.390625,0.4375,0.796875
1630674805125,-0.390625,0.4375,0.78125
1630674805156,-0.390625,0.4375,0.796875
1630674805187,-0.390625,0.4375,0.796875
1630674805218,-0.390625,0.4375,0.796875
1630674805250,-0.390625,0.4375,0.796875
1630674805281,-0.390625,0.4375,0.796875
1630674805312,-0.390625,0.4375,0.796875
1630674805343,-0.390625,0.4375,0.796875
1630674805375,-0.390625,0.4375,0.796875
1630674805406,-0.390625,0.453125,0.796875
1630674805437,-0.390625,0.4375,0.78125
1630674805468,-0.390625,0.4375,0.796875
1630674805500,-0.390625,0.4375,0.796875
1630674805531,-0.390625,0.4375,0.796875
1630674805562,-0.390625,0.4375,0.796875
1630674805593,-0.390625,0.4375,0.796875
1630674805625,-0.390625,0.4375,0.796875
1630674805656,-0.390625,0.4375,0.796875
1630674805687,-0.390625,0.4375,0.796875
1630674805718,-0.390625,0.4375,0.796875
1630674805750,-0.390625,0.4375,0.796875
1630674805781,-0.390625,0.4375,0.796875
1630674805812,-0.390625,0.4375,0.796875
1630674805843,-0.390625,0.453125,0.796875
1630674805875,-0.390625,0.453125,0.796875
1630674805906,-0.390625,0.4375,0.796875
1630674805937,-0.390625,0.4375,0.796875
1630674805968,-0.390625,0.4375,0.796875
1630674806000,-0.390625,0.4375,0.78125
1630674806031,-0.390625,0.4375,0.796875
1630674806062,-0.390625,0.4375,0.796875
1630674806093,-0.390625,0.4375,0.796875
1630674806125,-0.390625,0.4375,0.796875
1630674806156,-0.390625,0.4375,0.796875
1630674806187,-0.390625,0.4375,0.796875
1630674806218,-0.390625,0.4375,0.796875
1630674806250,-0.390625,0.4375,0.796875
1630674806281,-0.390625,0.4375,0.796875
1630674806312,-0.390625,0.4375,0.796875
1630674806343,-0.390625,0.4375,0.796875
1630674806375,-0.390625,0.4375,0.796875
1630674806406,-0.390625,0.4375,0.796875
1630674806437,-0.390625,0.4375,0.796875
1630674806468,-0.390625,0.4375,0.78125
1630674806500,-0.390625,0.4375,0.796875
1630674806531,-0.390625,0.4375,0.796875
1630674806562,-0.390625,0.4375,0.796875
1630674806593,-0.390625,0.4375,0.796875
1630674806625,-0.390625,0.4375,0.78125
1630674806656,-0.390625,0.4375,0.796875
1630674806687,-0.390625,0.4375,0.796875
1630674806718,-0.390625,0.4375,0.796875
1630674806750,-0.390625,0.4375,0.796875
1630674806781,-0.390625,0.4375,0.796875
1630674806812,-0.390625,0.4375,0.796875
1630674806843,-0.390625,0.4375,0.796875
1630674806875,-0.390625,0.4375,0.796875
1630674806906,-0.390625,0.4375,0.796875
1630674806937,-0.390625,0.4375,0.796875
1630674806968,-0.390625,0.4375,0.796875
1630674807000,-0.390625,0.4375,0.796875
1630674807031,-0.390625,0.4375,0.796875
1630674807062,-0.390625,0.4375,0.796875
1630674807093,-0.390625,0.4375,0.796875
1630674807125,-0.390625,0.4375,0.796875
1630674807156,-0.390625,0.4375,0.796875
1630674807187,-0.390625,0.4375,0.796875
1630674807218,-0.40625,0.4375,0.78125
1630674807250,-0.390625,0.4375,0.796875
1630674807281,-0.390625,0.4375,0.796875
1630674807312,-0.390625,0.4375,0.796875
1630674807343,-0.390625,0.4375,0.796875
1630674807375,-0.390625,0.4375,0.796875
1630674807406,-0.390625,0.4375,0.78125
1630674807437,-0.390625,0.4375,0.796875
1630674807468,-0.390625,0.4375,0.796875
1630674807500,-0.390625,0.4375,0.796875
1630674807531,-0.390625,0.4375,0.796875
1630674807562,-0.390625,0.4375,0.796875
1630674807593,-0.390625,0.4375,0.78125
1630674807625,-0.390625,0.4375,0.796875
1630674807656,-0.390625,0.4375,0.796875
1630674807687,-0.390625,0.4375,0.796875
1630674807718,-0.390625,0.4375,0.796875
1630674807750,-0.390625,0.453125,0.796875
1630674807781,-0.390625,0.4375,0.796875
1630674807812,-0.390625,0.4375,0.796875
1630674807843,-0.390625,0.4375,0.796875
1630674807875,-0.390625,0.4375,0.796875
1630674807906,-0.390625,0.4375,0.796875
1630674807937,-0.390625,0.453125,0.796875
1630674807968,-0.390625,0.453125,0.796875
1630674808000,-0.390625,0.4375,0.796875
1630674808031,-0.390625,0.453125,0.796875
1630674808062,-0.390625,0.4375,0.78125
1630674808093,-0.390625,0.453125,0.796875
1630674808125,-0.390625,0.4375,0.796875
1630674808156,-0.390625,0.453125,0.796875
1630674808187,-0.390625,0.453125,0.796875
1630674808218,-0.390625,0.4375,0.796875
1630674808250,-0.390625,0.4375,0.796875
1630674808281,-0.390625,0.453125,0.796875
1630674808312,-0.390625,0.453125,0.796875
1630674808343,-0.390625,0.4375,0.796875
1630674808375,-0.390625,0.4375,0.796875
1630674808406,-0.390625,0.4375,0.796875
1630674808437,-0.390625,0.453125,0.796875
1630674808468,-0.390625,0.4375,0.796875
1630674808500,-0.390625,0.453125,0.796875
1630674808531,-0.390625,0.4375,0.796875
1630674808562,-0.390625,0.4375,0.796875
1630674808593,-0.390625,0.4375,0.796875
1630674808625,-0.390625,0.4375,0.78125
1630674808656,-0.390625,0.453125,0.796875
1630674808687,-0.390625,0.4375,0.796875
1630674808718,-0.390625,0.4375,0.796875
1630674808750,-0.390625,0.4375,0.796875
1630674808781,-0.390625,0.453125,0.78125
1630674808812,-0.390625,0.4375,0.796875
1630674808843,-0.390625,0.4375,0.796875
1630674808875,-0.390625,0.4375,0.796875
1630674808906,-0.390625,0.4375,0.796875
1630674808937,-0.390625,0.453125,0.796875
1630674808968,-0.390625,0.4375,0.796875
1630674809000,-0.390625,0.4375,0.796875
1630674809031,-0.390625,0.4375,0.796875
1630674809062,-0.390625,0.4375,0.796875
1630674809093,-0.390625,0.4375,0.78125
1630674809125,-0.390625,0.453125,0.796875
1630674809156,-0.390625,0.4375,0.796875
1630674809187,-0.390625,0.4375,0.796875
1630674809218,-0.390625,0.4375,0.796875
1630674809250,-0.390625,0.4375,0.796875
1630674809281,-0.390625,0.4375,0.796875
1630674809312,-0.390625,0.4375,0.796875
1630674809343,-0.390625,0.4375,0.796875
1630674809375,-0.390625,0.4375,0.796875
1630674809406,-0.390625,0.4375,0.796875
1630674809437,-0.390625,0.4375,0.78125
1630674809468,-0.390625,0.4375,0.796875
1630674809500,-0.390625,0.453125,0.796875
1630674809531,-0.390625,0.4375,0.796875
1630674809562,-0.390625,0.4375,0.796875
1630674809593,-0.390625,0.4375,0.796875
1630674809625,-0.390625,0.4375,0.796875
1630674809656,-0.390625,0.4375,0.78125
1630674809687,-0.390625,0.4375,0.796875
1630674809718,-0.390625,0.4375,0.796875
1630674809750,-0.390625,0.4375,0.796875
1630674809781,-0.390625,0.4375,0.796875
1630674809812,-0.390625,0.4375,0.796875
1630674809843,-0.390625,0.4375,0.796875
1630674809875,-0.390625,0.4375,0.796875
1630674809906,-0.390625,0.4375,0.796875
1630674809937,-0.390625,0.4375,0.796875
1630674809968,-0.390625,0.4375,0.796875
1630674810000,-0.390625,0.4375,0.796875
1630674810031,-0.390625,0.4375,0.796875
1630674810062,-0.390625,0.4375,0.796875
1630674810093,-0.390625,0.453125,0.796875
1630674810125,-0.390625,0.4375,0.796875
1630674810156,-0.390625,0.4375,0.796875
1630674810187,-0.390625,0.4375,0.796875
1630674810218,-0.390625,0.4375,0.796875
1630674810250,-0.390625,0.4375,0.796875
1630674810281,-0.390625,0.4375,0.796875
1630674810312,-0.390625,0.4375,0.796875
1630674810343,-0.390625,0.4375,0.796875
1630674810375,-0.390625,0.4375,0.796875
1630674810406,-0.390625,0.4375,0.796875
1630674810437,-0.390625,0.4375,0.796875
1630674810468,-0.390625,0.453125,0.796875
1630674810500,-0.390625,0.4375,0.796875
1630674810531,-0.390625,0.4375,0.796875
1630674810562,-0.390625,0.4375,0.796875
1630674810593,-0.390625,0.4375,0.796875
1630674810625,-0.390625,0.4375,0.796875
1630674810656,-0.390625,0.4375,0.796875
1630674810687,-0.390625,0.4375,0.796875
1630674810718,-0.390625,0.453125,0.796875
1630674810750,-0.390625,0.4375,0.78125
1630674810781,-0.390625,0.4375,0.796875
1630674810812,-0.375,0.4375,0.796875
1630674810843,-0.390625,0.4375,0.796875
1630674810875,-0.390625,0.4375,0.796875
1630674810906,-0.390625,0.4375,0.796875
1630674810937,-0.390625,0.4375,0.796875
1630674810968,-0.390625,0.4375,0.796875
1630674811000,-0.390625,0.453125,0.796875
1630674811031,-0.390625,0.4375,0.796875
1630674811062,-0.390625,0.4375,0.796875
1630674811093,-0.390625,0.4375,0.796875
1630674811125,-0.390625,0.4375,0.796875
1630674811156,-0.390625,0.4375,0.796875
1630674811187,-0.390625,0.4375,0.796875
1630674811218,-0.390625,0.4375,0.796875
1630674811250,-0.390625,0.4375,0.796875
1630674811281,-0.390625,0.4375,0.796875
1630674811312,-0.390625,0.4375,0.796875
1630674811343,-0.390625,0.4375,0.796875
1630674811375,-0.390625,0.4375,0.796875
1630674811406,-0.390625,0.4375,0.796875
1630674811437,-0.390625,0.453125,0.796875
1630674811468,-0.390625,0.4375,0.796875
1630674811500,-0.390625,0.4375,0.796875
1630674811531,-0.390625,0.4375,0.796875
1630674811562,-0.390625,0.4375,0.78125
1630674811593,-0.390625,0.4375,0.796875
1630674811625,-0.390625,0.4375,0.796875
1630674811656,-0.390625,0.4375,0.796875
1630674811687,-0.390625,0.4375,0.796875
1630674811718,-0.390625,0.4375,0.796875
1630674811750,-0.390625,0.4375,0.796875
1630674811781,-0.390625,0.4375,0.796875
1630674811812,-0.390625,0.4375,0.796875
1630674811843,-0.390625,0.4375,0.796875
1630674811875,-0.390625,0.4375,0.796875
1630674811906,-0.390625,0.4375,0.796875
1630674811937,-0.390625,0.4375,0.796875
1630674811968,-0.390625,0.4375,0.796875
1630674812000,-0.390625,0.4375,0.796875
1630674812031,-0.390625,0.4375,0.796875
1630674812062,-0.390625,0.4375,0.796875
1630674812093,-0.390625,0.4375,0.796875
1630674812125,-0.390625,0.4375,0.796875
1630674812156,-0.390625,0.4375,0.796875
1630674812187,-0.390625,0.4375,0.796875
1630674812218,-0.390625,0.4375,0.78125
1630674812250,-0.390625,0.4375,0.796875
1630674812281,-0.390625,0.4375,0.796875
1630674812312,-0.390625,0.4375,0.796875
1630674812343,-0.390625,0.4375,0.796875
1630674812375,-0.390625,0.4375,0.796875
1630674812406,-0.390625,0.4375,0.796875
1630674812437,-0.390625,0.4375,0.796875
1630674812468,-0.390625,0.4375,0.796875
1630674812500,-0.390625,0.4375,0.796875
1630674812531,-0.390625,0.453125,0.796875
1630674812562,-0.390625,0.453125,0.796875
1630674812593,-0.390625,0.4375,0.796875
1630674812625,-0.390625,0.4375,0.796875
1630674812656,-0.390625,0.4375,0.796875
1630674812687,-0.390625,0.4375,0.796875
1630674812718,-0.390625,0.4375,0.796875
1630674812750,-0.390625,0.4375,0.796875
1630674812781,-0.390625,0.4375,0.796875
1630674812812,-0.390625,0.4375,0.796875
1630674812843,-0.390625,0.4375,0.796875
1630674812875,-0.390625,0.4375,0.796875
1630674812906,-0.390625,0.4375,0.796875
1630674812937,-0.390625,0.4375,0.796875
1630674812968,-0.390625,0.4375,0.78125
1630674813000,-0.390625,0.4375,0.78125
1630674813031,-0.390625,0.4375,0.796875
1630674813062,-0.390625,0.4375,0.796875
1630674813093,-0.390625,0.4375,0.796875
1630674813125,-0.390625,0.4375,0.796875
1630674813156,-0.390625,0.4375,0.796875
1630674813187,-0.390625,0.4375,0.796875
1630674813218,-0.390625,0.4375,0.796875
1630674813250,-0.390625,0.4375,0.796875
1630674813281,-0.390625,0.4375,0.796875
1630674813312,-0.390625,0.4375,0.796875
1630674813343,-0.390625,0.4375,0.796875
1630674813375,-0.390625,0.4375,0.796875
1630674813406,-0.390625,0.4375,0.796875
1630674813437,-0.390625,0.4375,0.796875
1630674813468,-0.390625,0.4375,0.796875
1630674813500,-0.390625,0.4375,0.796875
1630674813531,-0.390625,0.4375,0.796875
1630674813562,-0.390625,0.453125,0.796875
1630674813593,-0.390625,0.4375,0.796875
1630674813625,-0.390625,0.4375,0.796875
1630674813656,-0.390625,0.4375,0.796875
1630674813687,-0.390625,0.4375,0.796875
1630674813718,-0.390625,0.4375,0.796875
1630674813750,-0.390625,0.4375,0.796875
1630674813781,-0.390625,0.4375,0.796875
1630674813812,-0.390625,0.4375,0.796875
1630674813843,-0.390625,0.4375,0.796875
1630674813875,-0.390625,0.4375,0.796875
1630674813906,-0.390625,0.453125,0.796875
1630674813937,-0.390625,0.4375,0.796875
1630674813968,-0.390625,0.453125,0.796875
1630674814000,-0.375,0.453125,0.796875
1630674814031,-0.390625,0.453125,0.796875
1630674814062,-0.390625,0.4375,0.796875
1630674814093,-0.390625,0.4375,0.796875
1630674814125,-0.390625,0.453125,0.796875
1630674814156,-0.390625,0.4375,0.796875
1630674814187,-0.390625,0.4375,0.796875
1630674814218,-0.390625,0.453125,0.796875
1630674814250,-0.390625,0.4375,0.796875
1630674814281,-0.390625,0.4375,0.796875
1630674814312,-0.390625,0.4375,0.796875
1630674814343,-0.390625,0.4375,0.796875
1630674814375,-0.390625,0.4375,0.796875
1630674814406,-0.375,0.4375,0.796875
1630674814437,-0.390625,0.4375,0.78125
1630674814468,-0.421875,0.453125,0.78125
1630674814500,-0.390625,0.453125,0.796875
1630674814531,-0.390625,0.4375,0.78125
1630674814562,-0.40625,0.4375,0.796875
1630674814593,-0.390625,0.4375,0.796875
1630674814625,-0.390625,0.4375,0.796875
1630674814656,-0.390625,0.4375,0.796875
1630674814687,-0.390625,0.4375,0.796875
1630674814718,-0.390625,0.4375,0.796875
1630674814750,-0.390625,0.4375,0.796875
1630674814781,-0.40625,0.4375,0.78125
1630674814812,-0.40625,0.4375,0.78125
1630674814843,-0.390625,0.4375,0.796875
1630674814875,-0.40625,0.4375,0.78125
1630674814906,-0.40625,0.453125,0.796875
1630674814937,-0.359375,0.4375,0.8125
1630674814968,-0.40625,0.4375,0.78125
1630674815000,-0.40625,0.4375,0.796875
1630674815031,-0.390625,0.4375,0.796875
1630674815062,-0.390625,0.4375,0.78125
1630674815093,-0.390625,0.4375,0.78125
1630674815125,-0.390625,0.4375,0.796875
1630674815156,-0.390625,0.4375,0.796875
1630674815187,-0.390625,0.4375,0.796875
1630674815218,-0.390625,0.4375,0.796875
1630674815250,-0.390625,0.4375,0.796875
1630674815281,-0.390625,0.4375,0.796875
1630674815312,-0.390625,0.4375,0.796875
1630674815343,-0.390625,0.4375,0.796875
1630674815375,-0.390625,0.4375,0.796875
1630674815406,-0.390625,0.4375,0.796875
1630674815437,-0.390625,0.4375,0.796875
1630674815468,-0.390625,0.4375,0.796875
1630674815500,-0.390625,0.4375,0.796875
1630674815531,-0.390625,0.4375,0.796875
1630674815562,-0.390625,0.4375,0.796875
1630674815593,-0.390625,0.4375,0.796875
1630674815625,-0.390625,0.4375,0.796875
1630674815656,-0.390625,0.4375,0.796875
1630674815687,-0.390625,0.4375,0.796875
1630674815718,-0.390625,0.4375,0.796875
1630674815750,-0.390625,0.4375,0.796875
1630674815781,-0.390625,0.4375,0.796875
1630674815812,-0.390625,0.4375,0.796875
1630674815843,-0.390625,0.4375,0.796875
1630674815875,-0.390625,0.4375,0.796875
1630674815906,-0.390625,0.4375,0.796875
1630674815937,-0.390625,0.4375,0.796875
1630674815968,-0.390625,0.4375,0.796875
1630674816000,-0.390625,0.4375,0.796875
1630674816031,-0.390625,0.4375,0.796875
1630674816062,-0.390625,0.4375,0.796875
1630674816093,-0.390625,0.4375,0.796875
1630674816125,-0.40625,0.4375,0.78125
1630674816156,-0.390625,0.4375,0.796875
1630674816187,-0.390625,0.4375,0.796875
1630674816218,-0.390625,0.4375,0.796875
1630674816250,-0.390625,0.4375,0.796875
1630674816281,-0.390625,0.4375,0.796875
1630674816312,-0.390625,0.4375,0.796875
1630674816343,-0.390625,0.4375,0.796875
1630674816375,-0.390625,0.4375,0.796875
1630674816406,-0.390625,0.4375,0.796875
1630674816437,-0.390625,0.4375,0.796875
1630674816468,-0.390625,0.4375,0.796875
1630674816500,-0.390625,0.4375,0.796875
1630674816531,-0.390625,0.4375,0.796875
1630674816562,-0.390625,0.453125,0.796875
1630674816593,-0.390625,0.4375,0.796875
1630674816625,-0.390625,0.4375,0.78125
1630674816656,-0.390625,0.4375,0.796875
1630674816687,-0.390625,0.4375,0.796875
1630674816718,-0.390625,0.4375,0.796875
1630674816750,-0.390625,0.4375,0.796875
1630674816781,-0.390625,0.4375,0.796875
1630674816812,-0.390625,0.4375,0.796875
1630674816843,-0.390625,0.453125,0.796875
1630674816875,-0.390625,0.4375,0.796875
1630674816906,-0.390625,0.4375,0.796875
1630674816937,-0.390625,0.4375,0.796875
1630674816968,-0.390625,0.4375,0.796875
1630674817000,-0.390625,0.4375,0.796875
1630674817031,-0.390625,0.4375,0.796875
1630674817062,-0.390625,0.4375,0.796875
1630674817093,-0.390625,0.4375,0.796875
1630674817125,-0.390625,0.4375,0.796875
1630674817156,-0.390625,0.4375,0.796875
1630674817187,-0.390625,0.4375,0.796875
1630674817218,-0.390625,0.4375,0.796875
1630674817250,-0.390625,0.4375,0.796875
1630674817281,-0.390625,0.4375,0.796875
1630674817312,-0.390625,0.4375,0.796875
1630674817343,-0.390625,0.4375,0.796875
1630674817375,-0.390625,0.4375,0.796875
1630674817406,-0.390625,0.4375,0.796875
1630674817437,-0.390625,0.4375,0.796875
1630674817468,-0.390625,0.4375,0.796875
1630674817500,-0.390625,0.4375,0.796875
1630674817531,-0.390625,0.4375,0.796875
1630674817562,-0.390625,0.4375,0.796875
1630674817593,-0.390625,0.4375,0.796875
1630674817625,-0.390625,0.4375,0.78125
1630674817656,-0.390625,0.4375,0.796875
1630674817687,-0.390625,0.4375,0.796875
1630674817718,-0.390625,0.4375,0.796875
1630674817750,-0.390625,0.4375,0.796875
1630674817781,-0.390625,0.4375,0.796875
1630674817812,-0.390625,0.4375,0.796875
1630674817843,-0.390625,0.4375,0.796875
1630674817875,-0.390625,0.4375,0.796875
1630674817906,-0.390625,0.4375,0.796875
1630674817937,-0.390625,0.4375,0.796875
1630674817968,-0.390625,0.4375,0.796875
1630674818000,-0.390625,0.4375,0.796875
1630674818031,-0.390625,0.4375,0.796875
1630674818062,-0.390625,0.4375,0.796875
1630674818093,-0.390625,0.4375,0.796875
1630674818125,-0.390625,0.4375,0.796875
1630674818156,-0.390625,0.4375,0.796875
1630674818187,-0.390625,0.4375,0.796875
1630674818218,-0.390625,0.4375,0.796875
1630674818250,-0.390625,0.4375,0.796875
1630674818281,-0.390625,0.4375,0.796875
1630674818312,-0.390625,0.4375,0.796875
1630674818343,-0.390625,0.4375,0.796875
1630674818375,-0.390625,0.4375,0.796875
1630674818406,-0.390625,0.4375,0.796875
1630674818437,-0.390625,0.4375,0.796875
1630674818468,-0.390625,0.4375,0.796875
1630674818500,-0.390625,0.4375,0.796875
1630674818531,-0.390625,0.4375,0.796875
1630674818562,-0.390625,0.4375,0.796875
1630674818593,-0.390625,0.4375,0.796875
1630674818625,-0.390625,0.4375,0.796875
1630674818656,-0.390625,0.4375,0.796875
1630674818687,-0.390625,0.4375,0.796875
1630674818718,-0.390625,0.4375,0.796875
1630674818750,-0.390625,0.4375,0.796875
1630674818781,-0.390625,0.4375,0.796875
1630674818812,-0.390625,0.4375,0.796875
1630674818843,-0.390625,0.4375,0.796875
1630674818875,-0.390625,0.4375,0.796875
1630674818906,-0.390625,0.4375,0.796875
1630674818937,-0.390625,0.4375,0.796875
1630674818968,-0.390625,0.4375,0.796875
1630674819000,-0.390625,0.4375,0.78125
1630674819031,-0.390625,0.4375,0.796875
1630674819062,-0.390625,0.4375,0.796875
1630674819093,-0.390625,0.4375,0.796875
1630674819125,-0.390625,0.4375,0.796875
1630674819156,-0.390625,0.4375,0.796875
1630674819187,-0.390625,0.4375,0.796875
1630674819218,-0.390625,0.4375,0.78125
1630674819250,-0.390625,0.4375,0.796875
1630674819281,-0.390625,0.4375,0.796875
1630674819312,-0.390625,0.4375,0.796875
1630674819343,-0.390625,0.4375,0.796875
1630674819375,-0.390625,0.4375,0.796875
1630674819406,-0.390625,0.4375,0.796875
1630674819437,-0.390625,0.4375,0.796875
1630674819468,-0.390625,0.4375,0.796875
1630674819500,-0.390625,0.4375,0.796875
1630674819531,-0.390625,0.4375,0.796875
1630674819562,-0.390625,0.4375,0.796875
1630674819593,-0.390625,0.4375,0.796875
1630674819625,-0.390625,0.4375,0.796875
1630674819656,-0.390625,0.4375,0.796875
1630674819687,-0.390625,0.4375,0.796875
1630674819718,-0.390625,0.4375,0.796875
1630674819750,-0.390625,0.4375,0.796875
1630674819781,-0.390625,0.453125,0.796875
1630674819812,-0.390625,0.4375,0.796875
1630674819843,-0.390625,0.4375,0.796875
1630674819875,-0.390625,0.4375,0.796875
1630674819906,-0.390625,0.4375,0.796875
1630674819937,-0.390625,0.4375,0.796875
1630674819968,-0.390625,0.453125,0.796875
1630674820000,-0.390625,0.4375,0.796875
1630674820031,-0.390625,0.4375,0.796875
1630674820062,-0.390625,0.4375,0.796875
1630674820093,-0.390625,0.4375,0.796875
1630674820125,-0.390625,0.4375,0.796875
1630674820156,-0.390625,0.4375,0.796875
1630674820187,-0.390625,0.4375,0.796875
1630674820218,-0.390625,0.4375,0.796875
1630674820250,-0.390625,0.4375,0.796875
1630674820281,-0.390625,0.4375,0.78125
1630674820312,-0.390625,0.4375,0.796875
1630674820343,-0.390625,0.4375,0.796875
1630674820375,-0.390625,0.4375,0.796875
1630674820406,-0.390625,0.4375,0.796875
1630674820437,-0.390625,0.4375,0.796875
1630674820468,-0.390625,0.4375,0.796875
1630674820500,-0.390625,0.4375,0.796875
1630674820531,-0.390625,0.4375,0.796875
1630674820562,-0.390625,0.4375,0.796875
1630674820593,-0.390625,0.4375,0.796875
1630674820625,-0.390625,0.4375,0.796875
1630674820656,-0.390625,0.4375,0.796875
1630674820687,-0.390625,0.4375,0.796875
1630674820718,-0.390625,0.4375,0.796875
1630674820750,-0.390625,0.4375,0.796875
1630674820781,-0.390625,0.4375,0.796875
1630674820812,-0.390625,0.4375,0.796875
1630674820843,-0.390625,0.4375,0.796875
1630674820875,-0.390625,0.4375,0.796875
1630674820906,-0.390625,0.4375,0.796875
1630674820937,-0.390625,0.4375,0.796875
1630674820968,-0.390625,0.4375,0.796875
1630674821000,-0.390625,0.4375,0.796875
1630674821031,-0.390625,0.4375,0.796875
1630674821062,-0.390625,0.4375,0.796875
1630674821093,-0.390625,0.4375,0.796875
1630674821125,-0.390625,0.4375,0.796875
1630674821156,-0.390625,0.4375,0.796875
1630674821187,-0.390625,0.4375,0.796875
1630674821218,-0.390625,0.4375,0.796875
1630674821250,-0.390625,0.4375,0.796875
1630674821281,-0.390625,0.4375,0.796875
1630674821312,-0.390625,0.4375,0.796875
1630674821343,-0.390625,0.453125,0.796875
1630674821375,-0.390625,0.4375,0.796875
1630674821406,-0.390625,0.4375,0.796875
1630674821437,-0.390625,0.4375,0.796875
1630674821468,-0.390625,0.4375,0.796875
1630674821500,-0.390625,0.4375,0.796875
1630674821531,-0.390625,0.4375,0.796875
1630674821562,-0.390625,0.4375,0.796875
1630674821593,-0.390625,0.4375,0.796875
1630674821625,-0.390625,0.4375,0.796875
1630674821656,-0.390625,0.4375,0.796875
1630674821687,-0.390625,0.4375,0.796875
1630674821718,-0.390625,0.4375,0.796875
1630674821750,-0.390625,0.4375,0.796875
1630674821781,-0.390625,0.4375,0.796875
1630674821812,-0.390625,0.4375,0.796875
1630674821843,-0.390625,0.4375,0.796875
1630674821875,-0.390625,0.4375,0.796875
1630674821906,-0.390625,0.4375,0.796875
1630674821937,-0.390625,0.4375,0.796875
1630674821968,-0.390625,0.4375,0.796875
1630674822000,-0.390625,0.4375,0.796875
1630674822031,-0.390625,0.4375,0.796875
1630674822062,-0.390625,0.4375,0.796875
1630674822093,-0.390625,0.4375,0.796875
1630674822125,-0.390625,0.4375,0.796875
1630674822156,-0.390625,0.4375,0.796875
1630674822187,-0.390625,0.4375,0.796875
1630674822218,-0.390625,0.4375,0.796875
1630674822250,-0.390625,0.4375,0.796875
1630674822281,-0.390625,0.4375,0.796875
1630674822312,-0.390625,0.4375,0.796875
1630674822343,-0.390625,0.4375,0.796875
1630674822375,-0.390625,0.4375,0.796875
1630674822406,-0.390625,0.4375,0.796875
1630674822437,-0.390625,0.4375,0.796875
1630674822468,-0.390625,0.4375,0.796875
1630674822500,-0.390625,0.4375,0.796875
1630674822531,-0.390625,0.4375,0.796875
1630674822562,-0.390625,0.453125,0.796875
1630674822593,-0.390625,0.4375,0.796875
1630674822625,-0.390625,0.4375,0.796875
1630674822656,-0.390625,0.4375,0.796875
1630674822687,-0.390625,0.4375,0.796875
1630674822718,-0.390625,0.4375,0.796875
1630674822750,-0.390625,0.4375,0.78125
1630674822781,-0.390625,0.4375,0.796875
1630674822812,-0.390625,0.453125,0.796875
1630674822843,-0.390625,0.4375,0.796875
1630674822875,-0.390625,0.4375,0.796875
1630674822906,-0.390625,0.4375,0.796875
1630674822937,-0.390625,0.4375,0.796875
1630674822968,-0.390625,0.4375,0.796875
1630674823000,-0.390625,0.4375,0.796875
1630674823031,-0.390625,0.4375,0.796875
1630674823062,-0.390625,0.4375,0.796875
1630674823093,-0.390625,0.4375,0.796875
1630674823125,-0.390625,0.4375,0.796875
1630674823156,-0.390625,0.4375,0.796875
1630674823187,-0.390625,0.4375,0.796875
1630674823218,-0.390625,0.4375,0.796875
1630674823250,-0.390625,0.4375,0.796875
1630674823281,-0.390625,0.4375,0.796875
1630674823312,-0.390625,0.4375,0.796875
1630674823343,-0.390625,0.4375,0.796875
1630674823375,-0.390625,0.4375,0.796875
1630674823406,-0.390625,0.4375,0.796875
1630674823437,-0.390625,0.4375,0.796875
1630674823468,-0.390625,0.4375,0.796875
1630674823500,-0.390625,0.4375,0.796875
1630674823531,-0.390625,0.4375,0.796875
1630674823562,-0.390625,0.4375,0.796875
1630674823593,-0.390625,0.4375,0.796875
1630674823625,-0.390625,0.4375,0.796875
1630674823656,-0.390625,0.4375,0.796875
1630674823687,-0.390625,0.4375,0.796875
1630674823718,-0.390625,0.4375,0.796875
1630674823750,-0.390625,0.4375,0.796875
1630674823781,-0.390625,0.4375,0.796875
1630674823812,-0.390625,0.4375,0.796875
1630674823843,-0.390625,0.4375,0.796875
1630674823875,-0.390625,0.4375,0.796875
1630674823906,-0.390625,0.4375,0.796875
1630674823937,-0.390625,0.4375,0.796875
1630674823968,-0.390625,0.4375,0.796875
1630674824000,-0.390625,0.4375,0.796875
1630674824031,-0.390625,0.4375,0.796875
1630674824062,-0.390625,0.4375,0.796875
1630674824093,-0.390625,0.4375,0.796875
1630674824125,-0.390625,0.4375,0.796875
1630674824156,-0.390625,0.4375,0.796875
1630674824187,-0.390625,0.4375,0.796875
1630674824218,-0.390625,0.4375,0.796875
1630674824250,-0.390625,0.4375,0.796875
1630674824281,-0.390625,0.4375,0.796875
1630674824312,-0.390625,0.4375,0.796875
1630674824343,-0.390625,0.4375,0.796875
1630674824375,-0.390625,0.4375,0.796875
1630674824406,-0.390625,0.4375,0.796875
1630674824437,-0.390625,0.4375,0.796875
1630674824468,-0.390625,0.4375,0.78125
1630674824500,-0.390625,0.4375,0.796875
1630674824531,-0.390625,0.4375,0.796875
1630674824562,-0.390625,0.4375,0.796875
1630674824593,-0.390625,0.4375,0.796875
1630674824625,-0.390625,0.4375,0.796875
1630674824656,-0.390625,0.4375,0.796875
1630674824687,-0.390625,0.453125,0.796875
1630674824718,-0.390625,0.4375,0.78125
1630674824750,-0.390625,0.4375,0.796875
1630674824781,-0.390625,0.4375,0.796875
1630674824812,-0.390625,0.4375,0.796875
1630674824843,-0.390625,0.4375,0.796875
1630674824875,-0.390625,0.4375,0.78125
1630674824906,-0.390625,0.4375,0.78125
1630674824937,-0.390625,0.4375,0.796875
1630674824968,-0.390625,0.4375,0.796875
1630674825000,-0.390625,0.4375,0.796875
1630674825031,-0.390625,0.4375,0.796875
1630674825062,-0.390625,0.4375,0.796875
1630674825093,-0.390625,0.4375,0.796875
1630674825125,-0.390625,0.4375,0.796875
1630674825156,-0.390625,0.4375,0.796875
1630674825187,-0.390625,0.4375,0.796875
1630674825218,-0.390625,0.4375,0.796875
1630674825250,-0.390625,0.453125,0.796875
1630674825281,-0.390625,0.4375,0.796875
1630674825312,-0.390625,0.4375,0.796875
1630674825343,-0.390625,0.4375,0.796875
1630674825375,-0.390625,0.4375,0.796875
1630674825406,-0.390625,0.4375,0.796875
1630674825437,-0.390625,0.4375,0.796875
1630674825468,-0.390625,0.4375,0.796875
1630674825500,-0.390625,0.4375,0.796875
1630674825531,-0.390625,0.4375,0.796875
1630674825562,-0.390625,0.4375,0.796875
1630674825593,-0.390625,0.4375,0.796875
1630674825625,-0.390625,0.4375,0.796875
1630674825656,-0.390625,0.4375,0.796875
1630674825687,-0.390625,0.4375,0.796875
1630674825718,-0.390625,0.453125,0.796875
1630674825750,-0.390625,0.4375,0.796875
1630674825781,-0.390625,0.4375,0.796875
1630674825812,-0.390625,0.4375,0.796875
1630674825843,-0.390625,0.4375,0.796875
1630674825875,-0.390625,0.4375,0.796875
1630674825906,-0.390625,0.4375,0.796875
1630674825937,-0.390625,0.4375,0.796875
1630674825968,-0.390625,0.4375,0.796875
1630674826000,-0.390625,0.4375,0.796875
1630674826031,-0.390625,0.4375,0.796875
1630674826062,-0.390625,0.4375,0.796875
1630674826093,-0.390625,0.4375,0.796875
1630674826125,-0.390625,0.4375,0.796875
1630674826156,-0.390625,0.4375,0.796875
1630674826187,-0.390625,0.4375,0.796875
1630674826218,-0.390625,0.4375,0.796875
1630674826250,-0.390625,0.4375,0.796875
1630674826281,-0.390625,0.4375,0.796875
1630674826312,-0.390625,0.4375,0.796875
1630674826343,-0.390625,0.4375,0.796875
1630674826375,-0.390625,0.4375,0.796875
1630674826406,-0.390625,0.4375,0.796875
1630674826437,-0.390625,0.4375,0.796875
1630674826468,-0.390625,0.4375,0.796875
1630674826500,-0.390625,0.4375,0.796875
1630674826531,-0.390625,0.4375,0.796875
1630674826562,-0.390625,0.4375,0.796875
1630674826593,-0.390625,0.4375,0.78125
1630674826625,-0.390625,0.4375,0.796875
1630674826656,-0.390625,0.4375,0.796875
1630674826687,-0.390625,0.4375,0.796875
1630674826718,-0.390625,0.4375,0.796875
1630674826750,-0.390625,0.4375,0.796875
1630674826781,-0.390625,0.4375,0.796875
1630674826812,-0.390625,0.4375,0.796875
1630674826843,-0.390625,0.4375,0.796875
1630674826875,-0.390625,0.4375,0.796875
1630674826906,-0.390625,0.4375,0.796875
1630674826937,-0.390625,0.4375,0.796875
1630674826968,-0.390625,0.4375,0.796875
1630674827000,-0.390625,0.4375,0.796875
1630674827031,-0.390625,0.4375,0.796875
1630674827062,-0.390625,0.4375,0.796875
1630674827093,-0.390625,0.4375,0.796875
1630674827125,-0.390625,0.4375,0.796875
1630674827156,-0.390625,0.4375,0.796875
1630674827187,-0.390625,0.4375,0.796875
1630674827218,-0.390625,0.4375,0.796875
1630674827250,-0.390625,0.4375,0.796875
1630674827281,-0.390625,0.4375,0.796875
1630674827312,-0.390625,0.4375,0.796875
1630674827343,-0.390625,0.4375,0.796875
1630674827375,-0.390625,0.4375,0.796875
1630674827406,-0.390625,0.4375,0.796875
1630674827437,-0.390625,0.4375,0.796875
1630674827468,-0.390625,0.4375,0.796875
1630674827500,-0.390625,0.4375,0.796875
1630674827531,-0.390625,0.4375,0.796875
1630674827562,-0.390625,0.4375,0.796875
1630674827593,-0.390625,0.4375,0.796875
1630674827625,-0.390625,0.4375,0.796875
1630674827656,-0.390625,0.4375,0.796875
1630674827687,-0.390625,0.4375,0.796875
1630674827718,-0.390625,0.4375,0.796875
1630674827750,-0.390625,0.4375,0.796875
1630674827781,-0.390625,0.4375,0.796875
1630674827812,-0.390625,0.4375,0.796875
1630674827843,-0.390625,0.4375,0.796875
1630674827875,-0.390625,0.4375,0.796875
1630674827906,-0.390625,0.4375,0.796875
1630674827937,-0.390625,0.4375,0.796875
1630674827968,-0.390625,0.4375,0.796875
1630674828000,-0.390625,0.4375,0.796875
1630674828031,-0.390625,0.4375,0.796875
1630674828062,-0.390625,0.4375,0.796875
1630674828093,-0.390625,0.4375,0.796875
1630674828125,-0.390625,0.4375,0.796875
1630674828156,-0.390625,0.4375,0.796875
1630674828187,-0.390625,0.4375,0.796875
1630674828218,-0.390625,0.4375,0.796875
1630674828250,-0.390625,0.4375,0.796875
1630674828281,-0.390625,0.4375,0.796875
1630674828312,-0.390625,0.4375,0.796875
1630674828343,-0.390625,0.4375,0.796875
1630674828375,-0.390625,0.453125,0.796875
1630674828406,-0.390625,0.4375,0.796875
1630674828437,-0.390625,0.4375,0.796875
1630674828468,-0.390625,0.4375,0.796875
1630674828500,-0.390625,0.4375,0.796875
1630674828531,-0.390625,0.4375,0.796875
1630674828562,-0.390625,0.4375,0.796875
1630674828593,-0.390625,0.4375,0.796875
1630674828625,-0.390625,0.4375,0.796875
1630674828656,-0.390625,0.4375,0.796875
1630674828687,-0.390625,0.4375,0.796875
1630674828718,-0.390625,0.4375,0.796875
1630674828750,-0.390625,0.4375,0.796875
1630674828781,-0.390625,0.4375,0.796875
1630674828812,-0.390625,0.453125,0.796875
1630674828843,-0.390625,0.4375,0.796875
1630674828875,-0.390625,0.4375,0.796875
1630674828906,-0.390625,0.4375,0.796875
1630674828937,-0.390625,0.4375,0.796875
1630674828968,-0.390625,0.453125,0.796875
1630674829000,-0.390625,0.4375,0.796875
1630674829031,-0.390625,0.4375,0.796875
1630674829062,-0.390625,0.4375,0.796875
1630674829093,-0.390625,0.4375,0.796875
1630674829125,-0.390625,0.4375,0.796875
1630674829156,-0.390625,0.4375,0.796875
1630674829187,-0.390625,0.4375,0.796875
1630674829218,-0.390625,0.4375,0.796875
1630674829250,-0.390625,0.4375,0.796875
1630674829281,-0.390625,0.4375,0.796875
1630674829312,-0.390625,0.4375,0.796875
1630674829343,-0.390625,0.4375,0.796875
1630674829375,-0.390625,0.453125,0.796875
1630674829406,-0.390625,0.4375,0.796875
1630674829437,-0.390625,0.4375,0.796875
1630674829468,-0.390625,0.4375,0.796875
1630674829500,-0.390625,0.4375,0.796875
1630674829531,-0.390625,0.4375,0.796875
1630674829562,-0.390625,0.4375,0.796875
1630674829593,-0.390625,0.4375,0.78125
1630674829625,-0.390625,0.4375,0.796875
1630674829656,-0.390625,0.4375,0.796875
1630674829687,-0.390625,0.4375,0.796875
1630674829718,-0.390625,0.4375,0.796875
1630674829750,-0.390625,0.4375,0.796875
1630674829781,-0.390625,0.4375,0.796875
1630674829812,-0.390625,0.4375,0.796875
1630674829843,-0.390625,0.4375,0.796875
1630674829875,-0.390625,0.4375,0.796875
1630674829906,-0.390625,0.4375,0.796875
1630674829937,-0.390625,0.4375,0.796875
1630674829968,-0.390625,0.4375,0.796875
1630674830000,-0.390625,0.4375,0.796875
1630674830031,-0.390625,0.4375,0.796875
1630674830062,-0.390625,0.4375,0.796875
1630674830093,-0.390625,0.4375,0.796875
1630674830125,-0.390625,0.4375,0.796875
1630674830156,-0.390625,0.4375,0.796875
1630674830187,-0.390625,0.4375,0.796875
1630674830218,-0.390625,0.4375,0.796875
1630674830250,-0.390625,0.4375,0.796875
1630674830281,-0.390625,0.4375,0.796875
1630674830312,-0.390625,0.4375,0.796875
1630674830343,-0.390625,0.4375,0.796875
1630674830375,-0.390625,0.4375,0.796875
1630674830406,-0.390625,0.4375,0.796875
1630674830437,-0.390625,0.4375,0.796875
1630674830468,-0.390625,0.4375,0.796875
1630674830500,-0.390625,0.4375,0.796875
1630674830531,-0.390625,0.4375,0.796875
1630674830562,-0.390625,0.4375,0.796875
1630674830593,-0.390625,0.4375,0.796875
1630674830625,-0.390625,0.4375,0.796875
1630674830656,-0.390625,0.4375,0.796875
1630674830687,-0.390625,0.4375,0.796875
1630674830718,-0.390625,0.4375,0.796875
1630674830750,-0.390625,0.4375,0.796875
1630674830781,-0.390625,0.4375,0.796875
1630674830812,-0.390625,0.4375,0.796875
1630674830843,-0.390625,0.4375,0.796875
1630674830875,-0.390625,0.4375,0.796875
1630674830906,-0.390625,0.4375,0.796875
1630674830937,-0.390625,0.4375,0.796875
1630674830968,-0.390625,0.4375,0.796875
1630674831000,-0.390625,0.4375,0.796875
1630674831031,-0.390625,0.4375,0.796875
1630674831062,-0.390625,0.4375,0.796875
1630674831093,-0.390625,0.4375,0.796875
1630674831125,-0.390625,0.4375,0.796875
1630674831156,-0.390625,0.4375,0.796875
1630674831187,-0.390625,0.4375,0.796875
1630674831218,-0.390625,0.4375,0.796875
1630674831250,-0.390625,0.4375,0.796875
1630674831281,-0.390625,0.4375,0.796875
1630674831312,-0.390625,0.4375,0.796875
1630674831343,-0.390625,0.4375,0.796875
1630674831375,-0.390625,0.453125,0.796875
1630674831406,-0.390625,0.4375,0.796875
1630674831437,-0.390625,0.4375,0.796875
1630674831468,-0.390625,0.4375,0.796875
1630674831500,-0.390625,0.4375,0.796875
1630674831531,-0.390625,0.4375,0.796875
1630674831562,-0.390625,0.4375,0.796875
1630674831593,-0.390625,0.4375,0.796875
1630674831625,-0.390625,0.4375,0.796875
1630674831656,-0.390625,0.4375,0.796875
1630674831687,-0.390625,0.4375,0.796875
1630674831718,-0.390625,0.4375,0.796875
1630674831750,-0.390625,0.4375,0.796875
1630674831781,-0.390625,0.4375,0.796875
1630674831812,-0.390625,0.4375,0.796875
1630674831843,-0.390625,0.4375,0.796875
1630674831875,-0.390625,0.4375,0.796875
1630674831906,-0.390625,0.4375,0.796875
1630674831937,-0.390625,0.4375,0.796875
1630674831968,-0.390625,0.4375,0.796875
1630674832000,-0.390625,0.4375,0.796875
1630674832031,-0.390625,0.4375,0.796875
1630674832062,-0.390625,0.4375,0.796875
1630674832093,-0.390625,0.4375,0.796875
1630674832125,-0.390625,0.4375,0.796875
1630674832156,-0.390625,0.4375,0.796875
1630674832187,-0.390625,0.4375,0.796875
1630674832218,-0.390625,0.4375,0.796875
1630674832250,-0.390625,0.4375,0.796875
1630674832281,-0.390625,0.4375,0.796875
1630674832312,-0.390625,0.4375,0.796875
1630674832343,-0.390625,0.4375,0.796875
1630674832375,-0.390625,0.4375,0.796875
1630674832406,-0.390625,0.4375,0.796875
1630674832437,-0.390625,0.4375,0.796875
1630674832468,-0.390625,0.4375,0.796875
1630674832500,-0.390625,0.4375,0.796875
1630674832531,-0.390625,0.4375,0.796875
1630674832562,-0.390625,0.4375,0.796875
1630674832593,-0.390625,0.4375,0.796875
1630674832625,-0.390625,0.4375,0.796875
1630674832656,-0.390625,0.4375,0.796875
1630674832687,-0.390625,0.4375,0.796875
1630674832718,-0.390625,0.4375,0.796875
1630674832750,-0.390625,0.4375,0.796875
1630674832781,-0.390625,0.4375,0.796875
1630674832812,-0.390625,0.4375,0.796875
1630674832843,-0.390625,0.4375,0.796875
1630674832875,-0.390625,0.4375,0.796875
1630674832906,-0.390625,0.453125,0.78125
1630674832937,-0.390625,0.4375,0.796875
1630674832968,-0.390625,0.4375,0.796875
1630674833000,-0.390625,0.4375,0.796875
1630674833031,-0.390625,0.4375,0.796875
1630674833062,-0.390625,0.4375,0.796875
1630674833093,-0.390625,0.4375,0.796875
1630674833125,-0.390625,0.4375,0.796875
1630674833156,-0.390625,0.4375,0.796875
1630674833187,-0.390625,0.4375,0.796875
1630674833218,-0.390625,0.4375,0.796875
1630674833250,-0.390625,0.4375,0.796875
1630674833281,-0.390625,0.4375,0.796875
1630674833312,-0.390625,0.4375,0.78125
1630674833343,-0.390625,0.4375,0.796875
1630674833375,-0.390625,0.4375,0.796875
1630674833406,-0.390625,0.4375,0.796875
1630674833437,-0.390625,0.4375,0.796875
1630674833468,-0.390625,0.4375,0.796875
1630674833500,-0.390625,0.4375,0.796875
1630674833531,-0.390625,0.4375,0.796875
1630674833562,-0.390625,0.4375,0.796875
1630674833593,-0.390625,0.4375,0.796875
1630674833625,-0.390625,0.4375,0.796875
1630674833656,-0.390625,0.4375,0.796875
1630674833687,-0.390625,0.4375,0.796875
1630674833718,-0.390625,0.4375,0.796875
1630674833750,-0.390625,0.4375,0.796875
1630674833781,-0.390625,0.4375,0.796875
1630674833812,-0.390625,0.4375,0.796875
1630674833843,-0.390625,0.4375,0.796875
1630674833875,-0.390625,0.4375,0.796875
1630674833906,-0.390625,0.4375,0.796875
1630674833937,-0.390625,0.4375,0.796875
1630674833968,-0.390625,0.4375,0.796875
1630674834000,-0.390625,0.4375,0.796875
1630674834031,-0.390625,0.4375,0.796875
1630674834062,-0.390625,0.4375,0.796875
1630674834093,-0.390625,0.4375,0.796875
1630674834125,-0.390625,0.4375,0.796875
1630674834156,-0.390625,0.4375,0.796875
1630674834187,-0.390625,0.4375,0.796875
1630674834218,-0.390625,0.4375,0.796875
1630674834250,-0.390625,0.4375,0.796875
1630674834281,-0.390625,0.4375,0.796875
1630674834312,-0.390625,0.4375,0.78125
1630674834343,-0.390625,0.4375,0.796875
1630674834375,-0.390625,0.4375,0.796875
1630674834406,-0.390625,0.4375,0.796875
1630674834437,-0.390625,0.4375,0.796875
1630674834468,-0.390625,0.4375,0.796875
1630674834500,-0.390625,0.4375,0.796875
1630674834531,-0.390625,0.4375,0.796875
1630674834562,-0.390625,0.4375,0.796875
1630674834593,-0.390625,0.4375,0.796875
1630674834625,-0.390625,0.4375,0.796875
1630674834656,-0.390625,0.4375,0.796875
1630674834687,-0.390625,0.4375,0.796875
1630674834718,-0.390625,0.4375,0.796875
1630674834750,-0.390625,0.4375,0.796875
1630674834781,-0.390625,0.4375,0.796875
1630674834812,-0.390625,0.4375,0.796875
1630674834843,-0.390625,0.4375,0.796875
1630674834875,-0.390625,0.4375,0.796875
1630674834906,-0.390625,0.4375,0.796875
1630674834937,-0.390625,0.4375,0.796875
1630674834968,-0.390625,0.4375,0.796875
1630674835000,-0.390625,0.4375,0.796875
1630674835031,-0.390625,0.4375,0.796875
1630674835062,-0.390625,0.4375,0.796875
1630674835093,-0.390625,0.4375,0.796875
1630674835125,-0.390625,0.4375,0.796875
1630674835156,-0.390625,0.4375,0.796875
1630674835187,-0.390625,0.4375,0.796875
1630674835218,-0.390625,0.4375,0.796875
1630674835250,-0.390625,0.4375,0.796875
1630674835281,-0.390625,0.4375,0.796875
1630674835312,-0.390625,0.4375,0.796875
1630674835343,-0.390625,0.4375,0.796875
1630674835375,-0.390625,0.4375,0.796875
1630674835406,-0.390625,0.4375,0.796875
1630674835437,-0.390625,0.4375,0.796875
1630674835468,-0.390625,0.4375,0.796875
1630674835500,-0.390625,0.4375,0.796875
1630674835531,-0.390625,0.4375,0.796875
1630674835562,-0.390625,0.4375,0.796875
1630674835593,-0.390625,0.4375,0.796875
1630674835625,-0.390625,0.4375,0.796875
1630674835656,-0.390625,0.4375,0.78125
1630674835687,-0.390625,0.4375,0.796875
1630674835718,-0.390625,0.4375,0.796875
1630674835750,-0.390625,0.4375,0.796875
1630674835781,-0.390625,0.4375,0.796875
1630674835812,-0.390625,0.4375,0.796875
1630674835843,-0.390625,0.4375,0.796875
1630674835875,-0.390625,0.4375,0.796875
1630674835906,-0.390625,0.4375,0.796875
1630674835937,-0.390625,0.4375,0.796875
1630674835968,-0.390625,0.4375,0.796875
1630674836000,-0.390625,0.4375,0.796875
1630674836031,-0.390625,0.4375,0.78125
1630674836062,-0.390625,0.4375,0.796875
1630674836093,-0.390625,0.4375,0.796875
1630674836125,-0.390625,0.4375,0.796875
1630674836156,-0.390625,0.4375,0.796875
1630674836187,-0.390625,0.4375,0.796875
1630674836218,-0.390625,0.4375,0.796875
1630674836250,-0.390625,0.4375,0.796875
1630674836281,-0.390625,0.4375,0.796875
1630674836312,-0.390625,0.4375,0.796875
1630674836343,-0.390625,0.4375,0.796875
1630674836375,-0.390625,0.4375,0.796875
1630674836406,-0.390625,0.4375,0.796875
1630674836437,-0.390625,0.4375,0.796875
1630674836468,-0.390625,0.4375,0.796875
1630674836500,-0.390625,0.4375,0.796875
1630674836531,-0.390625,0.4375,0.796875
1630674836562,-0.390625,0.4375,0.796875
1630674836593,-0.390625,0.4375,0.796875
1630674836625,-0.390625,0.4375,0.796875
1630674836656,-0.390625,0.4375,0.796875
1630674836687,-0.390625,0.4375,0.796875
1630674836718,-0.390625,0.4375,0.796875
1630674836750,-0.390625,0.4375,0.796875
1630674836781,-0.390625,0.4375,0.796875
1630674836812,-0.390625,0.4375,0.796875
1630674836843,-0.390625,0.4375,0.796875
1630674836875,-0.390625,0.4375,0.796875
1630674836906,-0.390625,0.4375,0.796875
1630674836937,-0.390625,0.4375,0.796875
1630674836968,-0.390625,0.4375,0.796875
1630674837000,-0.390625,0.4375,0.796875
1630674837031,-0.390625,0.4375,0.796875
1630674837062,-0.390625,0.4375,0.796875
1630674837093,-0.390625,0.4375,0.796875
1630674837125,-0.390625,0.4375,0.796875
1630674837156,-0.390625,0.4375,0.796875
1630674837187,-0.390625,0.4375,0.796875
1630674837218,-0.390625,0.4375,0.796875
1630674837250,-0.390625,0.4375,0.796875
1630674837281,-0.390625,0.4375,0.796875
1630674837312,-0.390625,0.4375,0.796875
1630674837343,-0.390625,0.4375,0.78125
1630674837375,-0.390625,0.4375,0.796875
1630674837406,-0.390625,0.4375,0.796875
1630674837437,-0.390625,0.4375,0.796875
1630674837468,-0.390625,0.4375,0.796875
1630674837500,-0.390625,0.4375,0.796875
1630674837531,-0.390625,0.4375,0.796875
1630674837562,-0.390625,0.4375,0.796875
1630674837593,-0.390625,0.4375,0.796875
1630674837625,-0.390625,0.4375,0.796875
1630674837656,-0.390625,0.4375,0.796875
1630674837687,-0.390625,0.4375,0.796875
1630674837718,-0.390625,0.4375,0.796875
1630674837750,-0.390625,0.4375,0.796875
1630674837781,-0.390625,0.4375,0.796875
1630674837812,-0.390625,0.4375,0.796875
1630674837843,-0.390625,0.4375,0.796875
1630674837875,-0.390625,0.4375,0.796875
1630674837906,-0.390625,0.4375,0.796875
1630674837937,-0.390625,0.4375,0.78125
1630674837968,-0.390625,0.4375,0.78125
1630674838000,-0.390625,0.4375,0.796875
1630674838031,-0.390625,0.4375,0.796875
1630674838062,-0.390625,0.4375,0.796875
1630674838093,-0.390625,0.4375,0.796875
1630674838125,-0.390625,0.4375,0.796875
1630674838156,-0.390625,0.4375,0.796875
1630674838187,-0.390625,0.4375,0.796875
1630674838218,-0.390625,0.4375,0.796875
1630674838250,-0.390625,0.4375,0.796875
1630674838281,-0.390625,0.4375,0.796875
1630674838312,-0.390625,0.4375,0.796875
1630674838343,-0.390625,0.4375,0.796875
1630674838375,-0.390625,0.4375,0.796875
1630674838406,-0.390625,0.4375,0.796875
1630674838437,-0.390625,0.4375,0.796875
1630674838468,-0.390625,0.4375,0.796875
1630674838500,-0.390625,0.4375,0.796875
1630674838531,-0.390625,0.4375,0.796875
1630674838562,-0.390625,0.4375,0.796875
1630674838593,-0.390625,0.4375,0.78125
1630674838625,-0.390625,0.4375,0.796875
1630674838656,-0.390625,0.4375,0.796875
1630674838687,-0.390625,0.4375,0.796875
1630674838718,-0.390625,0.4375,0.796875
1630674838750,-0.390625,0.4375,0.796875
1630674838781,-0.390625,0.4375,0.796875
1630674838812,-0.390625,0.4375,0.796875
1630674838843,-0.390625,0.4375,0.796875
1630674838875,-0.390625,0.4375,0.78125
1630674838906,-0.390625,0.4375,0.796875
1630674838937,-0.390625,0.4375,0.796875
1630674838968,-0.390625,0.4375,0.796875
1630674839000,-0.390625,0.4375,0.796875
1630674839031,-0.390625,0.4375,0.796875
1630674839062,-0.390625,0.4375,0.796875
1630674839093,-0.390625,0.4375,0.796875
1630674839125,-0.390625,0.4375,0.796875
1630674839156,-0.390625,0.4375,0.796875
1630674839187,-0.390625,0.4375,0.796875
1630674839218,-0.390625,0.4375,0.796875
1630674839250,-0.390625,0.4375,0.796875
1630674839281,-0.390625,0.4375,0.796875
1630674839312,-0.390625,0.4375,0.796875
1630674839343,-0.390625,0.4375,0.796875
1630674839375,-0.390625,0.4375,0.796875
1630674839406,-0.390625,0.4375,0.796875
1630674839437,-0.390625,0.4375,0.796875
1630674839468,-0.390625,0.4375,0.796875
1630674839500,-0.390625,0.4375,0.796875
1630674839531,-0.390625,0.4375,0.796875
1630674839562,-0.390625,0.4375,0.796875
1630674839593,-0.390625,0.4375,0.796875
1630674839625,-0.390625,0.4375,0.796875
1630674839656,-0.390625,0.4375,0.796875
1630674839687,-0.390625,0.4375,0.796875
1630674839718,-0.390625,0.4375,0.796875
1630674839750,-0.390625,0.4375,0.796875
1630674839781,-0.390625,0.4375,0.796875
1630674839812,-0.390625,0.4375,0.796875
1630674839843,-0.390625,0.4375,0.796875
1630674839875,-0.390625,0.4375,0.796875
1630674839906,-0.390625,0.4375,0.796875
1630674839937,-0.390625,0.4375,0.796875
1630674839968,-0.390625,0.4375,0.796875
1630674840000,-0.390625,0.4375,0.796875
1630674840031,-0.390625,0.4375,0.796875
1630674840062,-0.390625,0.4375,0.796875
1630674840093,-0.390625,0.4375,0.796875
1630674840125,-0.390625,0.4375,0.796875
1630674840156,-0.390625,0.4375,0.796875
1630674840187,-0.390625,0.4375,0.796875
1630674840218,-0.390625,0.4375,0.796875
1630674840250,-0.390625,0.4375,0.796875
1630674840281,-0.390625,0.4375,0.796875
1630674840312,-0.390625,0.4375,0.796875
1630674840343,-0.390625,0.4375,0.796875
1630674840375,-0.390625,0.4375,0.796875
1630674840406,-0.390625,0.4375,0.78125
1630674840437,-0.390625,0.4375,0.796875
1630674840468,-0.390625,0.4375,0.796875
1630674840500,-0.390625,0.4375,0.796875
1630674840531,-0.390625,0.4375,0.796875
1630674840562,-0.390625,0.4375,0.796875
1630674840593,-0.390625,0.4375,0.796875
1630674840625,-0.390625,0.4375,0.796875
1630674840656,-0.390625,0.4375,0.796875
1630674840687,-0.390625,0.4375,0.796875
1630674840718,-0.390625,0.4375,0.796875
1630674840750,-0.390625,0.4375,0.796875
1630674840781,-0.390625,0.4375,0.796875
1630674840812,-0.390625,0.4375,0.796875
1630674840843,-0.390625,0.4375,0.796875
1630674840875,-0.390625,0.4375,0.796875
1630674840906,-0.390625,0.4375,0.796875
1630674840937,-0.390625,0.4375,0.78125
1630674840968,-0.390625,0.4375,0.796875
1630674841000,-0.390625,0.4375,0.796875
1630674841031,-0.390625,0.4375,0.796875
1630674841062,-0.390625,0.4375,0.796875
1630674841093,-0.390625,0.4375,0.796875
1630674841125,-0.390625,0.4375,0.796875
1630674841156,-0.390625,0.4375,0.796875
1630674841187,-0.390625,0.4375,0.796875
1630674841218,-0.390625,0.4375,0.796875
1630674841250,-0.390625,0.4375,0.796875
1630674841281,-0.390625,0.4375,0.796875
1630674841312,-0.390625,0.4375,0.796875
1630674841343,-0.390625,0.4375,0.796875
1630674841375,-0.390625,0.4375,0.796875
1630674841406,-0.390625,0.4375,0.796875
1630674841437,-0.390625,0.4375,0.796875
1630674841468,-0.390625,0.4375,0.796875
1630674841500,-0.390625,0.4375,0.796875
1630674841531,-0.390625,0.4375,0.796875
1630674841562,-0.390625,0.4375,0.796875
1630674841593,-0.390625,0.4375,0.796875
1630674841625,-0.390625,0.4375,0.796875
1630674841656,-0.390625,0.4375,0.796875
1630674841687,-0.390625,0.4375,0.796875
1630674841718,-0.390625,0.4375,0.796875
1630674841750,-0.390625,0.4375,0.796875
1630674841781,-0.390625,0.4375,0.796875
1630674841812,-0.390625,0.4375,0.796875
1630674841843,-0.390625,0.4375,0.796875
1630674841875,-0.390625,0.4375,0.796875
1630674841906,-0.390625,0.4375,0.796875
1630674841937,-0.390625,0.4375,0.796875
1630674841968,-0.390625,0.4375,0.78125
1630674842000,-0.390625,0.4375,0.796875
1630674842031,-0.390625,0.4375,0.796875
1630674842062,-0.390625,0.4375,0.796875
1630674842093,-0.390625,0.4375,0.796875
1630674842125,-0.390625,0.4375,0.796875
1630674842156,-0.390625,0.4375,0.796875
1630674842187,-0.390625,0.4375,0.796875
1630674842218,-0.390625,0.4375,0.796875
1630674842250,-0.390625,0.4375,0.796875
1630674842281,-0.390625,0.4375,0.796875
1630674842312,-0.390625,0.4375,0.796875
1630674842343,-0.390625,0.4375,0.796875
1630674842375,-0.390625,0.4375,0.796875
1630674842406,-0.390625,0.4375,0.796875
1630674842437,-0.390625,0.4375,0.796875
1630674842468,-0.390625,0.4375,0.796875
1630674842500,-0.390625,0.4375,0.796875
1630674842531,-0.390625,0.4375,0.796875
1630674842562,-0.390625,0.4375,0.796875
1630674842593,-0.390625,0.4375,0.796875
1630674842625,-0.390625,0.4375,0.796875
1630674842656,-0.390625,0.4375,0.796875
1630674842687,-0.390625,0.4375,0.796875
1630674842718,-0.390625,0.4375,0.796875
1630674842750,-0.390625,0.4375,0.796875
1630674842781,-0.390625,0.4375,0.796875
1630674842812,-0.390625,0.4375,0.796875
1630674842843,-0.390625,0.4375,0.796875
1630674842875,-0.390625,0.4375,0.796875
1630674842906,-0.390625,0.453125,0.796875
1630674842937,-0.390625,0.4375,0.796875
1630674842968,-0.390625,0.4375,0.796875
1630674843000,-0.390625,0.4375,0.796875
1630674843031,-0.390625,0.4375,0.796875
1630674843062,-0.390625,0.4375,0.796875
1630674843093,-0.390625,0.4375,0.796875
1630674843125,-0.390625,0.4375,0.796875
1630674843156,-0.390625,0.4375,0.796875
1630674843187,-0.390625,0.4375,0.796875
1630674843218,-0.390625,0.4375,0.796875
1630674843250,-0.390625,0.4375,0.796875
1630674843281,-0.390625,0.4375,0.796875
1630674843312,-0.390625,0.4375,0.796875
1630674843343,-0.390625,0.4375,0.796875
1630674843375,-0.390625,0.4375,0.796875
1630674843406,-0.390625,0.4375,0.796875
1630674843437,-0.390625,0.4375,0.796875
1630674843468,-0.390625,0.4375,0.796875
1630674843500,-0.390625,0.4375,0.796875
1630674843531,-0.390625,0.4375,0.796875
1630674843562,-0.390625,0.4375,0.796875
1630674843593,-0.390625,0.4375,0.796875
1630674843625,-0.390625,0.4375,0.796875
1630674843656,-0.390625,0.4375,0.796875
1630674843687,-0.390625,0.4375,0.796875
1630674843718,-0.390625,0.4375,0.796875
1630674843750,-0.390625,0.4375,0.796875
1630674843781,-0.390625,0.4375,0.796875
1630674843812,-0.390625,0.4375,0.796875
1630674843843,-0.390625,0.4375,0.796875
1630674843875,-0.390625,0.4375,0.796875
1630674843906,-0.390625,0.4375,0.796875
1630674843937,-0.390625,0.4375,0.796875
1630674843968,-0.390625,0.4375,0.796875
1630674844000,-0.390625,0.4375,0.796875
1630674844031,-0.390625,0.4375,0.796875
1630674844062,-0.390625,0.4375,0.796875
1630674844093,-0.390625,0.4375,0.796875
1630674844125,-0.390625,0.4375,0.796875
1630674844156,-0.390625,0.4375,0.796875
1630674844187,-0.390625,0.4375,0.796875
1630674844218,-0.390625,0.4375,0.796875
1630674844250,-0.390625,0.4375,0.796875
1630674844281,-0.390625,0.4375,0.796875
1630674844312,-0.390625,0.4375,0.796875
1630674844343,-0.390625,0.4375,0.796875
1630674844375,-0.390625,0.4375,0.796875
1630674844406,-0.390625,0.4375,0.796875
1630674844437,-0.390625,0.4375,0.796875
1630674844468,-0.390625,0.4375,0.796875
1630674844500,-0.390625,0.4375,0.796875
1630674844531,-0.390625,0.4375,0.796875
1630674844562,-0.390625,0.4375,0.796875
1630674844593,-0.390625,0.4375,0.796875
1630674844625,-0.390625,0.4375,0.796875
1630674844656,-0.390625,0.4375,0.796875
1630674844687,-0.390625,0.4375,0.796875
1630674844718,-0.390625,0.4375,0.796875
1630674844750,-0.390625,0.4375,0.796875
1630674844781,-0.390625,0.4375,0.796875
1630674844812,-0.390625,0.4375,0.796875
1630674844843,-0.390625,0.4375,0.796875
1630674844875,-0.390625,0.4375,0.796875
1630674844906,-0.390625,0.4375,0.796875
1630674844937,-0.390625,0.4375,0.796875
1630674844968,-0.390625,0.4375,0.796875
1630674845000,-0.390625,0.4375,0.796875
1630674845031,-0.390625,0.4375,0.796875
1630674845062,-0.390625,0.4375,0.796875
1630674845093,-0.390625,0.4375,0.796875
1630674845125,-0.390625,0.4375,0.796875
1630674845156,-0.390625,0.4375,0.796875
1630674845187,-0.390625,0.4375,0.796875
1630674845218,-0.390625,0.4375,0.796875
1630674845250,-0.390625,0.4375,0.796875
1630674845281,-0.390625,0.4375,0.796875
1630674845312,-0.390625,0.4375,0.796875
1630674845343,-0.390625,0.4375,0.796875
1630674845375,-0.390625,0.4375,0.796875
1630674845406,-0.390625,0.4375,0.796875
1630674845437,-0.390625,0.4375,0.796875
1630674845468,-0.390625,0.4375,0.78125
1630674845500,-0.390625,0.4375,0.796875
1630674845531,-0.390625,0.4375,0.796875
1630674845562,-0.390625,0.4375,0.796875
1630674845593,-0.390625,0.4375,0.796875
1630674845625,-0.40625,0.4375,0.78125
1630674845656,-0.390625,0.4375,0.796875
1630674845687,-0.390625,0.4375,0.796875
1630674845718,-0.390625,0.4375,0.796875
1630674845750,-0.390625,0.4375,0.796875
1630674845781,-0.390625,0.4375,0.796875
1630674845812,-0.390625,0.4375,0.796875
1630674845843,-0.390625,0.4375,0.796875
1630674845875,-0.390625,0.4375,0.796875
1630674845906,-0.390625,0.4375,0.796875
1630674845937,-0.390625,0.4375,0.796875
1630674845968,-0.390625,0.4375,0.796875
1630674846000,-0.390625,0.4375,0.796875
1630674846031,-0.390625,0.4375,0.796875
1630674846062,-0.390625,0.4375,0.796875
1630674846093,-0.390625,0.4375,0.796875
1630674846125,-0.390625,0.4375,0.796875
1630674846156,-0.390625,0.4375,0.796875
1630674846187,-0.390625,0.4375,0.796875
1630674846218,-0.390625,0.4375,0.796875
1630674846250,-0.390625,0.4375,0.796875
1630674846281,-0.390625,0.4375,0.796875
1630674846312,-0.390625,0.453125,0.796875
1630674846343,-0.390625,0.4375,0.796875
1630674846375,-0.390625,0.4375,0.796875
1630674846406,-0.390625,0.4375,0.796875
1630674846437,-0.390625,0.4375,0.796875
1630674846468,-0.390625,0.4375,0.78125
1630674846500,-0.390625,0.4375,0.796875
1630674846531,-0.390625,0.453125,0.78125
1630674846562,-0.390625,0.4375,0.796875
1630674846593,-0.390625,0.4375,0.796875
1630674846625,-0.390625,0.453125,0.796875
1630674846656,-0.390625,0.4375,0.796875
1630674846687,-0.390625,0.4375,0.796875
1630674846718,-0.390625,0.4375,0.796875
1630674846750,-0.390625,0.4375,0.78125
1630674846781,-0.390625,0.4375,0.796875
1630674846812,-0.390625,0.4375,0.796875
1630674846843,-0.390625,0.4375,0.796875
1630674846875,-0.390625,0.4375,0.796875
1630674846906,-0.390625,0.4375,0.796875
1630674846937,-0.390625,0.4375,0.796875
1630674846968,-0.390625,0.4375,0.796875
1630674847000,-0.390625,0.4375,0.796875
1630674847031,-0.390625,0.4375,0.796875
1630674847062,-0.390625,0.4375,0.796875
1630674847093,-0.390625,0.4375,0.796875
1630674847125,-0.390625,0.4375,0.796875
1630674847156,-0.390625,0.4375,0.796875
1630674847187,-0.390625,0.4375,0.796875
1630674847218,-0.390625,0.4375,0.796875
1630674847250,-0.390625,0.4375,0.796875
1630674847281,-0.390625,0.4375,0.796875
1630674847312,-0.390625,0.4375,0.796875
1630674847343,-0.390625,0.4375,0.796875
1630674847375,-0.390625,0.4375,0.796875
1630674847406,-0.390625,0.4375,0.796875
1630674847437,-0.390625,0.4375,0.796875
1630674847468,-0.390625,0.4375,0.796875
1630674847500,-0.390625,0.4375,0.796875
1630674847531,-0.390625,0.4375,0.796875
1630674847562,-0.390625,0.4375,0.796875
1630674847593,-0.390625,0.4375,0.796875
1630674847625,-0.390625,0.4375,0.796875
1630674847656,-0.390625,0.4375,0.796875
1630674847687,-0.390625,0.4375,0.796875
1630674847718,-0.390625,0.4375,0.796875
1630674847750,-0.390625,0.4375,0.796875
1630674847781,-0.390625,0.4375,0.796875
1630674847812,-0.390625,0.4375,0.796875
1630674847843,-0.390625,0.4375,0.796875
1630674847875,-0.390625,0.4375,0.796875
1630674847906,-0.390625,0.4375,0.796875
1630674847937,-0.390625,0.4375,0.796875
1630674847968,-0.390625,0.4375,0.796875
1630674848000,-0.390625,0.4375,0.796875
1630674848031,-0.390625,0.4375,0.796875
1630674848062,-0.390625,0.4375,0.796875
1630674848093,-0.390625,0.4375,0.796875
1630674848125,-0.390625,0.4375,0.796875
1630674848156,-0.390625,0.4375,0.796875
1630674848187,-0.390625,0.4375,0.796875
1630674848218,-0.390625,0.4375,0.796875
1630674848250,-0.390625,0.4375,0.796875
1630674848281,-0.390625,0.4375,0.796875
1630674848312,-0.390625,0.4375,0.796875
1630674848343,-0.390625,0.4375,0.796875
1630674848375,-0.390625,0.4375,0.796875
1630674848406,-0.390625,0.4375,0.796875
1630674848437,-0.390625,0.4375,0.796875
1630674848468,-0.390625,0.4375,0.796875
1630674848500,-0.390625,0.4375,0.796875
1630674848531,-0.390625,0.4375,0.796875
1630674848562,-0.390625,0.4375,0.796875
1630674848593,-0.390625,0.4375,0.796875
1630674848625,-0.390625,0.4375,0.796875
1630674848656,-0.390625,0.4375,0.796875
1630674848687,-0.390625,0.4375,0.796875
1630674848718,-0.390625,0.4375,0.796875
1630674848750,-0.390625,0.4375,0.796875
1630674848781,-0.390625,0.4375,0.796875
1630674848812,-0.390625,0.4375,0.796875
1630674848843,-0.390625,0.4375,0.796875
1630674848875,-0.390625,0.4375,0.796875
1630674848906,-0.390625,0.4375,0.796875
1630674848937,-0.390625,0.4375,0.796875
1630674848968,-0.390625,0.4375,0.796875
1630674849000,-0.390625,0.4375,0.796875
1630674849031,-0.390625,0.4375,0.796875
1630674849062,-0.390625,0.4375,0.796875
1630674849093,-0.390625,0.4375,0.796875
1630674849125,-0.390625,0.453125,0.796875
1630674849156,-0.390625,0.4375,0.796875
1630674849187,-0.390625,0.4375,0.796875
1630674849218,-0.390625,0.4375,0.796875
1630674849250,-0.390625,0.4375,0.796875
1630674849281,-0.390625,0.4375,0.796875
1630674849312,-0.390625,0.4375,0.796875
1630674849343,-0.390625,0.4375,0.796875
1630674849375,-0.390625,0.4375,0.796875
1630674849406,-0.390625,0.4375,0.796875
1630674849437,-0.390625,0.4375,0.796875
1630674849468,-0.390625,0.4375,0.796875
1630674849500,-0.390625,0.4375,0.796875
1630674849531,-0.390625,0.4375,0.796875
1630674849562,-0.390625,0.4375,0.796875
1630674849593,-0.390625,0.4375,0.796875
1630674849625,-0.390625,0.4375,0.796875
1630674849656,-0.390625,0.4375,0.796875
1630674849687,-0.390625,0.4375,0.796875
1630674849718,-0.390625,0.4375,0.796875
1630674849750,-0.390625,0.4375,0.796875
1630674849781,-0.390625,0.4375,0.796875
1630674849812,-0.390625,0.4375,0.796875
1630674849843,-0.390625,0.4375,0.796875
1630674849875,-0.390625,0.4375,0.796875
1630674849906,-0.390625,0.4375,0.796875
1630674849937,-0.390625,0.4375,0.796875
1630674849968,-0.390625,0.4375,0.796875
1630674850000,-0.390625,0.4375,0.796875
1630674850031,-0.390625,0.4375,0.796875
1630674850062,-0.390625,0.4375,0.796875
1630674850093,-0.390625,0.4375,0.796875
1630674850125,-0.390625,0.4375,0.796875
1630674850156,-0.390625,0.4375,0.796875
1630674850187,-0.390625,0.4375,0.796875
1630674850218,-0.390625,0.4375,0.796875
1630674850250,-0.390625,0.4375,0.796875
1630674850281,-0.390625,0.4375,0.796875
1630674850312,-0.390625,0.4375,0.796875
1630674850343,-0.390625,0.4375,0.796875
1630674850375,-0.390625,0.4375,0.796875
1630674850406,-0.390625,0.4375,0.796875
1630674850437,-0.390625,0.4375,0.796875
1630674850468,-0.390625,0.4375,0.796875
1630674850500,-0.390625,0.4375,0.796875
1630674850531,-0.390625,0.4375,0.796875
1630674850562,-0.390625,0.4375,0.796875
1630674850593,-0.390625,0.4375,0.796875
1630674850625,-0.390625,0.4375,0.796875
1630674850656,-0.390625,0.4375,0.796875
1630674850687,-0.390625,0.4375,0.796875
1630674850718,-0.390625,0.4375,0.796875
1630674850750,-0.390625,0.4375,0.796875
1630674850781,-0.390625,0.4375,0.796875
1630674850812,-0.390625,0.4375,0.796875
1630674850843,-0.390625,0.4375,0.796875
1630674850875,-0.390625,0.4375,0.796875
1630674850906,-0.390625,0.4375,0.796875
1630674850937,-0.390625,0.4375,0.796875
1630674850968,-0.390625,0.4375,0.796875
1630674851000,-0.390625,0.4375,0.796875
1630674851031,-0.390625,0.4375,0.796875
1630674851062,-0.390625,0.4375,0.796875
1630674851093,-0.390625,0.4375,0.796875
1630674851125,-0.390625,0.4375,0.796875
1630674851156,-0.390625,0.4375,0.796875
1630674851187,-0.390625,0.4375,0.796875
1630674851218,-0.390625,0.4375,0.796875
1630674851250,-0.390625,0.4375,0.78125
1630674851281,-0.390625,0.4375,0.796875
1630674851312,-0.390625,0.4375,0.796875
1630674851343,-0.390625,0.4375,0.796875
1630674851375,-0.390625,0.4375,0.796875
1630674851406,-0.390625,0.4375,0.796875
1630674851437,-0.390625,0.4375,0.796875
1630674851468,-0.390625,0.4375,0.796875
1630674851500,-0.390625,0.4375,0.796875
1630674851531,-0.390625,0.4375,0.796875
1630674851562,-0.390625,0.4375,0.796875
1630674851593,-0.390625,0.4375,0.796875
1630674851625,-0.390625,0.4375,0.796875
1630674851656,-0.390625,0.4375,0.796875
1630674851687,-0.390625,0.4375,0.796875
1630674851718,-0.390625,0.4375,0.796875
1630674851750,-0.390625,0.4375,0.796875
1630674851781,-0.390625,0.4375,0.796875
1630674851812,-0.390625,0.4375,0.796875
1630674851843,-0.390625,0.4375,0.796875
1630674851875,-0.390625,0.4375,0.796875
1630674851906,-0.390625,0.4375,0.796875
1630674851937,-0.390625,0.4375,0.796875
1630674851968,-0.390625,0.4375,0.796875
1630674852000,-0.390625,0.4375,0.796875
1630674852031,-0.390625,0.4375,0.796875
1630674852062,-0.390625,0.4375,0.796875
1630674852093,-0.390625,0.4375,0.796875
1630674852125,-0.390625,0.4375,0.796875
1630674852156,-0.390625,0.4375,0.796875
1630674852187,-0.390625,0.4375,0.796875
1630674852218,-0.390625,0.4375,0.796875
1630674852250,-0.390625,0.4375,0.796875
1630674852281,-0.390625,0.4375,0.796875
1630674852312,-0.390625,0.4375,0.796875
1630674852343,-0.390625,0.4375,0.796875
1630674852375,-0.390625,0.453125,0.796875
1630674852406,-0.390625,0.4375,0.796875
1630674852437,-0.390625,0.4375,0.796875
1630674852468,-0.390625,0.4375,0.796875
1630674852500,-0.390625,0.4375,0.796875
1630674852531,-0.390625,0.4375,0.796875
1630674852562,-0.390625,0.4375,0.796875
1630674852593,-0.390625,0.4375,0.796875
1630674852625,-0.390625,0.4375,0.796875
1630674852656,-0.390625,0.4375,0.796875
1630674852687,-0.390625,0.4375,0.796875
1630674852718,-0.390625,0.4375,0.796875
1630674852750,-0.390625,0.4375,0.796875
1630674852781,-0.390625,0.4375,0.796875
1630674852812,-0.390625,0.4375,0.796875
1630674852843,-0.390625,0.4375,0.796875
1630674852875,-0.390625,0.4375,0.796875
1630674852906,-0.390625,0.4375,0.796875
1630674852937,-0.390625,0.4375,0.796875
1630674852968,-0.390625,0.4375,0.796875
1630674853000,-0.390625,0.4375,0.796875
1630674853031,-0.390625,0.4375,0.796875
1630674853062,-0.390625,0.4375,0.796875
1630674853093,-0.390625,0.4375,0.796875
1630674853125,-0.390625,0.4375,0.796875
1630674853156,-0.390625,0.4375,0.796875
1630674853187,-0.390625,0.4375,0.796875
1630674853218,-0.390625,0.4375,0.796875
1630674853250,-0.390625,0.4375,0.796875
1630674853281,-0.390625,0.4375,0.796875
1630674853312,-0.390625,0.4375,0.796875
1630674853343,-0.390625,0.4375,0.796875
1630674853375,-0.390625,0.4375,0.796875
1630674853406,-0.390625,0.4375,0.796875
1630674853437,-0.390625,0.4375,0.796875
1630674853468,-0.390625,0.4375,0.796875
1630674853500,-0.390625,0.4375,0.796875
1630674853531,-0.390625,0.4375,0.796875
1630674853562,-0.390625,0.4375,0.796875
1630674853593,-0.390625,0.4375,0.796875
1630674853625,-0.390625,0.4375,0.796875
1630674853656,-0.390625,0.4375,0.796875
1630674853687,-0.390625,0.4375,0.796875
1630674853718,-0.390625,0.4375,0.796875
1630674853750,-0.390625,0.4375,0.796875
1630674853781,-0.390625,0.4375,0.796875
1630674853812,-0.390625,0.4375,0.796875
1630674853843,-0.390625,0.4375,0.796875
1630674853875,-0.390625,0.4375,0.796875
1630674853906,-0.390625,0.4375,0.796875
1630674853937,-0.390625,0.4375,0.796875
1630674853968,-0.390625,0.4375,0.796875
1630674854000,-0.390625,0.4375,0.796875
1630674854031,-0.390625,0.4375,0.796875
1630674854062,-0.390625,0.4375,0.796875
1630674854093,-0.390625,0.4375,0.796875
1630674854125,-0.390625,0.4375,0.796875
1630674854156,-0.390625,0.4375,0.796875
1630674854187,-0.390625,0.4375,0.796875
1630674854218,-0.390625,0.4375,0.796875
1630674854250,-0.390625,0.4375,0.796875
1630674854281,-0.390625,0.4375,0.796875
1630674854312,-0.390625,0.4375,0.796875
1630674854343,-0.390625,0.4375,0.796875
1630674854375,-0.390625,0.4375,0.796875
1630674854406,-0.390625,0.4375,0.796875
1630674854437,-0.390625,0.4375,0.796875
1630674854468,-0.390625,0.4375,0.796875
1630674854500,-0.390625,0.4375,0.796875
1630674854531,-0.390625,0.4375,0.796875
1630674854562,-0.390625,0.4375,0.796875
1630674854593,-0.390625,0.4375,0.796875
1630674854625,-0.390625,0.4375,0.796875
1630674854656,-0.390625,0.4375,0.796875
1630674854687,-0.390625,0.4375,0.796875
1630674854718,-0.390625,0.4375,0.796875
1630674854750,-0.390625,0.4375,0.796875
1630674854781,-0.390625,0.4375,0.796875
1630674854812,-0.390625,0.4375,0.796875
1630674854843,-0.390625,0.4375,0.796875
1630674854875,-0.390625,0.4375,0.796875
1630674854906,-0.390625,0.4375,0.796875
1630674854937,-0.390625,0.4375,0.796875
1630674854968,-0.390625,0.4375,0.796875
1630674855000,-0.390625,0.4375,0.796875
1630674855031,-0.390625,0.4375,0.796875
1630674855062,-0.390625,0.4375,0.78125
1630674855093,-0.390625,0.4375,0.796875
1630674855125,-0.390625,0.4375,0.796875
1630674855156,-0.390625,0.4375,0.796875
1630674855187,-0.390625,0.4375,0.78125
1630674855218,-0.390625,0.4375,0.796875
1630674855250,-0.390625,0.4375,0.796875
1630674855281,-0.390625,0.4375,0.796875
1630674855312,-0.390625,0.4375,0.796875
1630674855343,-0.390625,0.4375,0.796875
1630674855375,-0.390625,0.4375,0.796875
1630674855406,-0.390625,0.4375,0.796875
1630674855437,-0.390625,0.4375,0.796875
1630674855468,-0.390625,0.4375,0.796875
1630674855500,-0.390625,0.4375,0.796875
1630674855531,-0.390625,0.4375,0.796875
1630674855562,-0.390625,0.4375,0.796875
1630674855593,-0.390625,0.4375,0.796875
1630674855625,-0.390625,0.4375,0.796875
1630674855656,-0.390625,0.4375,0.796875
1630674855687,-0.390625,0.4375,0.796875
1630674855718,-0.390625,0.4375,0.796875
1630674855750,-0.390625,0.4375,0.796875
1630674855781,-0.390625,0.4375,0.796875
1630674855812,-0.390625,0.4375,0.796875
1630674855843,-0.390625,0.4375,0.796875
1630674855875,-0.390625,0.4375,0.796875
1630674855906,-0.390625,0.4375,0.796875
1630674855937,-0.390625,0.4375,0.796875
1630674855968,-0.390625,0.4375,0.796875
1630674856000,-0.390625,0.4375,0.796875
1630674856031,-0.390625,0.4375,0.796875
1630674856062,-0.390625,0.4375,0.796875
1630674856093,-0.390625,0.4375,0.796875
1630674856125,-0.390625,0.4375,0.796875
1630674856156,-0.390625,0.4375,0.796875
1630674856187,-0.390625,0.4375,0.796875
1630674856218,-0.390625,0.4375,0.796875
1630674856250,-0.390625,0.4375,0.796875
1630674856281,-0.390625,0.4375,0.796875
1630674856312,-0.390625,0.4375,0.796875
1630674856343,-0.390625,0.4375,0.796875
1630674856375,-0.390625,0.4375,0.796875
1630674856406,-0.390625,0.4375,0.796875
1630674856437,-0.390625,0.4375,0.796875
1630674856468,-0.390625,0.4375,0.796875
1630674856500,-0.390625,0.4375,0.796875
1630674856531,-0.390625,0.4375,0.796875
1630674856562,-0.390625,0.4375,0.796875
1630674856593,-0.390625,0.4375,0.796875
1630674856625,-0.390625,0.4375,0.78125
1630674856656,-0.390625,0.4375,0.796875
1630674856687,-0.390625,0.4375,0.796875
1630674856718,-0.390625,0.4375,0.796875
1630674856750,-0.390625,0.4375,0.796875
1630674856781,-0.390625,0.4375,0.796875
1630674856812,-0.390625,0.4375,0.796875
1630674856843,-0.390625,0.4375,0.796875
1630674856875,-0.390625,0.4375,0.796875
1630674856906,-0.390625,0.4375,0.796875
1630674856937,-0.390625,0.4375,0.796875
1630674856968,-0.390625,0.4375,0.796875
1630674857000,-0.390625,0.4375,0.796875
1630674857031,-0.390625,0.4375,0.796875
1630674857062,-0.390625,0.4375,0.796875
1630674857093,-0.390625,0.4375,0.796875
1630674857125,-0.390625,0.4375,0.796875
1630674857156,-0.390625,0.4375,0.796875
1630674857187,-0.390625,0.4375,0.796875
1630674857218,-0.390625,0.4375,0.796875
1630674857250,-0.390625,0.4375,0.796875
1630674857281,-0.390625,0.4375,0.796875
1630674857312,-0.390625,0.4375,0.796875
1630674857343,-0.390625,0.4375,0.796875
1630674857375,-0.390625,0.4375,0.796875
1630674857406,-0.390625,0.4375,0.796875
1630674857437,-0.390625,0.4375,0.796875
1630674857468,-0.390625,0.4375,0.796875
1630674857500,-0.390625,0.4375,0.796875
1630674857531,-0.390625,0.4375,0.796875
1630674857562,-0.390625,0.4375,0.78125
1630674857593,-0.390625,0.4375,0.796875
1630674857625,-0.390625,0.4375,0.796875
1630674857656,-0.390625,0.4375,0.796875
1630674857687,-0.390625,0.4375,0.796875
1630674857718,-0.390625,0.4375,0.796875
1630674857750,-0.390625,0.4375,0.796875
1630674857781,-0.390625,0.4375,0.796875
1630674857812,-0.390625,0.4375,0.796875
1630674857843,-0.390625,0.4375,0.796875
1630674857875,-0.390625,0.4375,0.796875
1630674857906,-0.390625,0.4375,0.796875
1630674857937,-0.390625,0.4375,0.78125
1630674857968,-0.390625,0.4375,0.796875
1630674858000,-0.390625,0.4375,0.796875
1630674858031,-0.390625,0.4375,0.796875
1630674858062,-0.390625,0.4375,0.796875
1630674858093,-0.390625,0.4375,0.796875
1630674858125,-0.390625,0.4375,0.796875
1630674858156,-0.390625,0.4375,0.796875
1630674858187,-0.390625,0.4375,0.796875
1630674858218,-0.390625,0.4375,0.796875
1630674858250,-0.390625,0.4375,0.796875
1630674858281,-0.390625,0.4375,0.796875
1630674858312,-0.390625,0.4375,0.796875
1630674858343,-0.390625,0.4375,0.796875
1630674858375,-0.390625,0.4375,0.796875
1630674858406,-0.390625,0.4375,0.796875
1630674858437,-0.390625,0.4375,0.796875
1630674858468,-0.390625,0.4375,0.796875
1630674858500,-0.390625,0.4375,0.796875
1630674858531,-0.390625,0.4375,0.796875
1630674858562,-0.390625,0.4375,0.796875
1630674858593,-0.390625,0.4375,0.796875
1630674858625,-0.390625,0.4375,0.796875
1630674858656,-0.390625,0.4375,0.796875
1630674858687,-0.390625,0.4375,0.796875
1630674858718,-0.390625,0.4375,0.796875
1630674858750,-0.390625,0.4375,0.796875
1630674858781,-0.390625,0.4375,0.796875
1630674858812,-0.390625,0.4375,0.796875
1630674858843,-0.390625,0.4375,0.796875
1630674858875,-0.390625,0.4375,0.796875
1630674858906,-0.390625,0.4375,0.796875
1630674858937,-0.390625,0.4375,0.796875
1630674858968,-0.390625,0.4375,0.796875
1630674859000,-0.390625,0.4375,0.796875
1630674859031,-0.390625,0.4375,0.796875
1630674859062,-0.390625,0.4375,0.796875
1630674859093,-0.390625,0.4375,0.796875
1630674859125,-0.390625,0.4375,0.796875
1630674859156,-0.390625,0.4375,0.796875
1630674859187,-0.390625,0.4375,0.796875
1630674859218,-0.390625,0.4375,0.796875
1630674859250,-0.390625,0.4375,0.796875
1630674859281,-0.390625,0.4375,0.796875
1630674859312,-0.390625,0.4375,0.796875
1630674859343,-0.390625,0.4375,0.796875
1630674859375,-0.390625,0.4375,0.796875
1630674859406,-0.390625,0.4375,0.796875
1630674859437,-0.390625,0.4375,0.796875
1630674859468,-0.390625,0.4375,0.796875
1630674859500,-0.390625,0.4375,0.796875
1630674859531,-0.390625,0.4375,0.796875
1630674859562,-0.390625,0.4375,0.796875
1630674859593,-0.390625,0.4375,0.796875
1630674859625,-0.390625,0.4375,0.796875
1630674859656,-0.390625,0.4375,0.796875
1630674859687,-0.390625,0.4375,0.796875
1630674859718,-0.390625,0.4375,0.796875
1630674859750,-0.390625,0.4375,0.796875
1630674859781,-0.390625,0.4375,0.78125
1630674859812,-0.390625,0.453125,0.796875
1630674859843,-0.390625,0.4375,0.796875
1630674859875,-0.390625,0.4375,0.796875
1630674859906,-0.390625,0.4375,0.796875
1630674859937,-0.390625,0.4375,0.796875
1630674859968,-0.390625,0.4375,0.796875
1630674860000,-0.390625,0.4375,0.796875
1630674860031,-0.390625,0.4375,0.796875
1630674860062,-0.390625,0.4375,0.796875
1630674860093,-0.390625,0.4375,0.796875
1630674860125,-0.390625,0.4375,0.796875
1630674860156,-0.390625,0.4375,0.796875
1630674860187,-0.390625,0.4375,0.796875
1630674860218,-0.390625,0.4375,0.796875
1630674860250,-0.390625,0.4375,0.796875
1630674860281,-0.390625,0.4375,0.796875
1630674860312,-0.390625,0.4375,0.796875
1630674860343,-0.390625,0.4375,0.78125
1630674860375,-0.390625,0.4375,0.796875
1630674860406,-0.390625,0.4375,0.796875
1630674860437,-0.390625,0.4375,0.796875
1630674860468,-0.390625,0.4375,0.796875
1630674860500,-0.390625,0.4375,0.796875
1630674860531,-0.390625,0.4375,0.796875
1630674860562,-0.390625,0.4375,0.796875
1630674860593,-0.390625,0.4375,0.796875
1630674860625,-0.390625,0.4375,0.796875
1630674860656,-0.390625,0.4375,0.796875
1630674860687,-0.390625,0.4375,0.796875
1630674860718,-0.390625,0.4375,0.796875
1630674860750,-0.390625,0.4375,0.796875
1630674860781,-0.390625,0.4375,0.796875
1630674860812,-0.390625,0.4375,0.796875
1630674860843,-0.375,0.4375,0.796875
1630674860875,-0.390625,0.4375,0.796875
1630674860906,-0.390625,0.4375,0.796875
1630674860937,-0.390625,0.4375,0.796875
1630674860968,-0.390625,0.4375,0.796875
1630674861000,-0.390625,0.4375,0.796875
1630674861031,-0.390625,0.4375,0.796875
1630674861062,-0.390625,0.4375,0.796875
1630674861093,-0.390625,0.4375,0.796875
1630674861125,-0.390625,0.4375,0.796875
1630674861156,-0.390625,0.4375,0.796875
1630674861187,-0.390625,0.4375,0.796875
1630674861218,-0.390625,0.4375,0.796875
1630674861250,-0.390625,0.4375,0.796875
1630674861281,-0.390625,0.4375,0.796875
1630674861312,-0.390625,0.4375,0.796875
1630674861343,-0.390625,0.4375,0.796875
1630674861375,-0.390625,0.4375,0.796875
1630674861406,-0.390625,0.4375,0.796875
1630674861437,-0.390625,0.4375,0.78125
1630674861468,-0.390625,0.4375,0.796875
1630674861500,-0.390625,0.4375,0.796875
1630674861531,-0.390625,0.4375,0.796875
1630674861562,-0.390625,0.4375,0.796875
1630674861593,-0.390625,0.4375,0.796875
1630674861625,-0.390625,0.4375,0.796875
1630674861656,-0.390625,0.4375,0.796875
1630674861687,-0.390625,0.4375,0.796875
1630674861718,-0.390625,0.4375,0.796875
1630674861750,-0.390625,0.4375,0.796875
1630674861781,-0.390625,0.4375,0.796875
1630674861812,-0.390625,0.4375,0.796875
1630674861843,-0.390625,0.4375,0.796875
1630674861875,-0.390625,0.4375,0.796875
1630674861906,-0.390625,0.4375,0.796875
1630674861937,-0.390625,0.4375,0.796875
1630674861968,-0.390625,0.4375,0.796875
1630674862000,-0.390625,0.4375,0.796875
1630674862031,-0.390625,0.4375,0.796875
1630674862062,-0.390625,0.4375,0.796875
1630674862093,-0.390625,0.4375,0.796875
1630674862125,-0.390625,0.4375,0.796875
1630674862156,-0.390625,0.4375,0.796875
1630674862187,-0.390625,0.4375,0.796875
1630674862218,-0.390625,0.4375,0.796875
1630674862250,-0.390625,0.4375,0.796875
1630674862281,-0.390625,0.4375,0.796875
1630674862312,-0.390625,0.4375,0.796875
1630674862343,-0.390625,0.4375,0.796875
1630674862375,-0.390625,0.4375,0.796875
1630674862406,-0.390625,0.4375,0.796875
1630674862437,-0.390625,0.4375,0.796875
1630674862468,-0.390625,0.4375,0.796875
1630674862500,-0.390625,0.4375,0.796875
1630674862531,-0.390625,0.4375,0.78125
1630674862562,-0.390625,0.4375,0.78125
1630674862593,-0.390625,0.4375,0.796875
1630674862625,-0.390625,0.4375,0.796875
1630674862656,-0.390625,0.4375,0.78125
1630674862687,-0.390625,0.4375,0.796875
1630674862718,-0.390625,0.4375,0.796875
1630674862750,-0.390625,0.4375,0.796875
1630674862781,-0.390625,0.4375,0.796875
1630674862812,-0.390625,0.4375,0.796875
1630674862843,-0.390625,0.4375,0.796875
1630674862875,-0.390625,0.4375,0.796875
1630674862906,-0.390625,0.4375,0.796875
1630674862937,-0.390625,0.4375,0.78125
1630674862968,-0.390625,0.4375,0.796875
1630674863000,-0.390625,0.4375,0.796875
1630674863031,-0.390625,0.4375,0.796875
1630674863062,-0.390625,0.4375,0.796875
1630674863093,-0.390625,0.4375,0.796875
1630674863125,-0.390625,0.4375,0.796875
1630674863156,-0.390625,0.4375,0.796875
1630674863187,-0.390625,0.4375,0.796875
1630674863218,-0.390625,0.4375,0.796875
1630674863250,-0.390625,0.4375,0.796875
1630674863281,-0.390625,0.4375,0.796875
1630674863312,-0.390625,0.4375,0.796875
1630674863343,-0.390625,0.4375,0.796875
1630674863375,-0.390625,0.4375,0.796875
1630674863406,-0.390625,0.4375,0.796875
1630674863437,-0.390625,0.4375,0.796875
1630674863468,-0.390625,0.4375,0.796875
1630674863500,-0.390625,0.4375,0.796875
1630674863531,-0.390625,0.4375,0.796875
1630674863562,-0.390625,0.4375,0.796875
1630674863593,-0.390625,0.4375,0.796875
1630674863625,-0.390625,0.4375,0.796875
1630674863656,-0.390625,0.4375,0.796875
1630674863687,-0.390625,0.4375,0.796875
1630674863718,-0.390625,0.4375,0.796875
1630674863750,-0.390625,0.4375,0.796875
1630674863781,-0.390625,0.4375,0.796875
1630674863812,-0.390625,0.4375,0.796875
1630674863843,-0.390625,0.4375,0.796875
1630674863875,-0.390625,0.4375,0.796875
1630674863906,-0.390625,0.4375,0.796875
1630674863937,-0.390625,0.4375,0.796875
1630674863968,-0.390625,0.4375,0.796875
1630674864000,-0.390625,0.4375,0.796875
1630674864031,-0.390625,0.4375,0.796875
1630674864062,-0.390625,0.4375,0.796875
1630674864093,-0.390625,0.4375,0.796875
1630674864125,-0.390625,0.4375,0.796875
1630674864156,-0.390625,0.4375,0.796875
1630674864187,-0.390625,0.4375,0.796875
1630674864218,-0.390625,0.4375,0.796875
1630674864250,-0.390625,0.4375,0.796875
1630674864281,-0.390625,0.4375,0.796875
1630674864312,-0.390625,0.4375,0.796875
1630674864343,-0.390625,0.4375,0.796875
1630674864375,-0.390625,0.4375,0.796875
1630674864406,-0.390625,0.4375,0.796875
1630674864437,-0.390625,0.4375,0.796875
1630674864468,-0.390625,0.4375,0.796875
1630674864500,-0.390625,0.4375,0.796875
1630674864531,-0.390625,0.4375,0.796875
1630674864562,-0.390625,0.4375,0.796875
1630674864593,-0.390625,0.4375,0.796875
1630674864625,-0.390625,0.4375,0.796875
1630674864656,-0.390625,0.4375,0.796875
1630674864687,-0.390625,0.4375,0.796875
1630674864718,-0.390625,0.4375,0.796875
1630674864750,-0.390625,0.4375,0.796875
1630674864781,-0.390625,0.4375,0.78125
1630674864812,-0.390625,0.4375,0.796875
1630674864843,-0.390625,0.4375,0.796875
1630674864875,-0.390625,0.4375,0.796875
1630674864906,-0.390625,0.4375,0.796875
1630674864937,-0.390625,0.4375,0.796875
1630674864968,-0.390625,0.4375,0.796875
1630674865000,-0.390625,0.453125,0.796875
1630674865031,-0.390625,0.4375,0.796875
1630674865062,-0.390625,0.4375,0.796875
1630674865093,-0.390625,0.453125,0.796875
1630674865125,-0.390625,0.4375,0.796875
1630674865156,-0.390625,0.4375,0.796875
1630674865187,-0.390625,0.4375,0.796875
1630674865218,-0.390625,0.4375,0.796875
1630674865250,-0.390625,0.4375,0.796875
1630674865281,-0.390625,0.4375,0.796875
1630674865312,-0.390625,0.4375,0.796875
1630674865343,-0.390625,0.4375,0.796875
1630674865375,-0.390625,0.4375,0.796875
1630674865406,-0.390625,0.4375,0.796875
1630674865437,-0.390625,0.4375,0.796875
1630674865468,-0.390625,0.4375,0.796875
1630674865500,-0.390625,0.4375,0.796875
1630674865531,-0.390625,0.4375,0.796875
1630674865562,-0.390625,0.4375,0.796875
1630674865593,-0.390625,0.4375,0.796875
1630674865625,-0.390625,0.4375,0.796875
1630674865656,-0.390625,0.4375,0.796875
1630674865687,-0.390625,0.4375,0.796875
1630674865718,-0.390625,0.4375,0.796875
1630674865750,-0.390625,0.4375,0.796875
1630674865781,-0.390625,0.4375,0.796875
1630674865812,-0.390625,0.4375,0.796875
1630674865843,-0.390625,0.4375,0.796875
1630674865875,-0.390625,0.4375,0.796875
1630674865906,-0.390625,0.4375,0.796875
1630674865937,-0.390625,0.4375,0.796875
1630674865968,-0.390625,0.4375,0.796875
1630674866000,-0.390625,0.4375,0.796875
1630674866031,-0.390625,0.4375,0.796875
1630674866062,-0.390625,0.4375,0.796875
1630674866093,-0.390625,0.4375,0.796875
1630674866125,-0.390625,0.4375,0.796875
1630674866156,-0.390625,0.4375,0.796875
1630674866187,-0.390625,0.4375,0.796875
1630674866218,-0.390625,0.4375,0.796875
1630674866250,-0.390625,0.4375,0.796875
1630674866281,-0.390625,0.4375,0.796875
1630674866312,-0.390625,0.4375,0.796875
1630674866343,-0.390625,0.4375,0.796875
1630674866375,-0.390625,0.4375,0.796875
1630674866406,-0.390625,0.4375,0.796875
1630674866437,-0.390625,0.4375,0.796875
1630674866468,-0.390625,0.4375,0.796875
1630674866500,-0.390625,0.4375,0.796875
1630674866531,-0.390625,0.4375,0.796875
1630674866562,-0.390625,0.4375,0.796875
1630674866593,-0.390625,0.4375,0.796875
1630674866625,-0.390625,0.4375,0.796875
1630674866656,-0.390625,0.4375,0.796875
1630674866687,-0.390625,0.4375,0.796875
1630674866718,-0.375,0.4375,0.796875
1630674866750,-0.390625,0.4375,0.796875
1630674866781,-0.390625,0.4375,0.796875
1630674866812,-0.390625,0.4375,0.796875
1630674866843,-0.390625,0.4375,0.796875
1630674866875,-0.390625,0.4375,0.796875
1630674866906,-0.390625,0.4375,0.796875
1630674866937,-0.390625,0.4375,0.796875
1630674866968,-0.390625,0.4375,0.796875
1630674867000,-0.390625,0.4375,0.796875
1630674867031,-0.390625,0.4375,0.796875
1630674867062,-0.390625,0.4375,0.796875
1630674867093,-0.390625,0.4375,0.796875
1630674867125,-0.390625,0.4375,0.78125
1630674867156,-0.375,0.4375,0.796875
1630674867187,-0.390625,0.4375,0.796875
1630674867218,-0.390625,0.4375,0.796875
1630674867250,-0.390625,0.4375,0.796875
1630674867281,-0.390625,0.4375,0.796875
1630674867312,-0.390625,0.4375,0.796875
1630674867343,-0.390625,0.4375,0.796875
1630674867375,-0.390625,0.4375,0.796875
1630674867406,-0.390625,0.4375,0.796875
1630674867437,-0.375,0.4375,0.796875
1630674867468,-0.390625,0.4375,0.796875
1630674867500,-0.390625,0.4375,0.796875
1630674867531,-0.390625,0.4375,0.796875
1630674867562,-0.390625,0.4375,0.796875
1630674867593,-0.390625,0.4375,0.796875
1630674867625,-0.390625,0.4375,0.796875
1630674867656,-0.390625,0.4375,0.796875
1630674867687,-0.390625,0.4375,0.796875
1630674867718,-0.390625,0.4375,0.796875
1630674867750,-0.390625,0.4375,0.796875
1630674867781,-0.390625,0.4375,0.796875
1630674867812,-0.390625,0.4375,0.796875
1630674867843,-0.390625,0.4375,0.796875
1630674867875,-0.390625,0.4375,0.796875
1630674867906,-0.390625,0.4375,0.796875
1630674867937,-0.390625,0.4375,0.796875
1630674867968,-0.390625,0.4375,0.796875
1630674868000,-0.390625,0.4375,0.796875
1630674868031,-0.390625,0.4375,0.796875
1630674868062,-0.390625,0.4375,0.796875
1630674868093,-0.390625,0.4375,0.796875
1630674868125,-0.390625,0.4375,0.796875
1630674868156,-0.390625,0.4375,0.796875
1630674868187,-0.390625,0.4375,0.796875
1630674868218,-0.390625,0.4375,0.796875
1630674868250,-0.390625,0.4375,0.796875
1630674868281,-0.390625,0.4375,0.796875
1630674868312,-0.390625,0.4375,0.796875
1630674868343,-0.390625,0.4375,0.796875
1630674868375,-0.390625,0.4375,0.796875
1630674868406,-0.390625,0.4375,0.796875
1630674868437,-0.390625,0.4375,0.796875
1630674868468,-0.390625,0.4375,0.796875
1630674868500,-0.390625,0.4375,0.796875
1630674868531,-0.390625,0.4375,0.796875
1630674868562,-0.390625,0.4375,0.796875
1630674868593,-0.390625,0.4375,0.796875
1630674868625,-0.390625,0.4375,0.78125
1630674868656,-0.390625,0.4375,0.796875
1630674868687,-0.390625,0.4375,0.796875
1630674868718,-0.390625,0.4375,0.796875
1630674868750,-0.390625,0.4375,0.796875
1630674868781,-0.390625,0.4375,0.796875
1630674868812,-0.390625,0.4375,0.796875
1630674868843,-0.390625,0.4375,0.796875
1630674868875,-0.390625,0.4375,0.796875
1630674868906,-0.390625,0.4375,0.796875
1630674868937,-0.390625,0.4375,0.796875
1630674868968,-0.390625,0.4375,0.796875
1630674869000,-0.390625,0.4375,0.796875
1630674869031,-0.390625,0.4375,0.796875
1630674869062,-0.390625,0.4375,0.796875
1630674869093,-0.390625,0.4375,0.796875
1630674869125,-0.390625,0.4375,0.796875
1630674869156,-0.390625,0.4375,0.796875
1630674869187,-0.390625,0.4375,0.796875
1630674869218,-0.390625,0.4375,0.796875
1630674869250,-0.390625,0.4375,0.796875
1630674869281,-0.390625,0.4375,0.796875
1630674869312,-0.390625,0.4375,0.796875
1630674869343,-0.390625,0.4375,0.796875
1630674869375,-0.390625,0.4375,0.796875
1630674869406,-0.390625,0.4375,0.796875
1630674869437,-0.390625,0.4375,0.796875
1630674869468,-0.390625,0.4375,0.796875
1630674869500,-0.390625,0.4375,0.796875
1630674869531,-0.390625,0.4375,0.796875
1630674869562,-0.390625,0.453125,0.796875
1630674869593,-0.390625,0.4375,0.796875
1630674869625,-0.390625,0.4375,0.796875
1630674869656,-0.390625,0.4375,0.78125
1630674869687,-0.390625,0.4375,0.796875
1630674869718,-0.390625,0.4375,0.796875
1630674869750,-0.375,0.4375,0.796875
1630674869781,-0.390625,0.4375,0.796875
1630674869812,-0.390625,0.4375,0.796875
1630674869843,-0.390625,0.4375,0.796875
1630674869875,-0.390625,0.4375,0.796875
1630674869906,-0.390625,0.4375,0.796875
1630674869937,-0.390625,0.4375,0.796875
1630674869968,-0.390625,0.4375,0.796875
1630674870000,-0.390625,0.4375,0.796875
1630674870031,-0.390625,0.4375,0.796875
1630674870062,-0.390625,0.4375,0.796875
1630674870093,-0.390625,0.4375,0.796875
1630674870125,-0.390625,0.4375,0.796875
1630674870156,-0.390625,0.4375,0.796875
1630674870187,-0.390625,0.4375,0.796875
1630674870218,-0.390625,0.4375,0.796875
1630674870250,-0.390625,0.4375,0.796875
1630674870281,-0.390625,0.4375,0.796875
1630674870312,-0.390625,0.4375,0.796875
1630674870343,-0.390625,0.4375,0.796875
1630674870375,-0.390625,0.4375,0.796875
1630674870406,-0.390625,0.4375,0.796875
1630674870437,-0.390625,0.4375,0.796875
1630674870468,-0.390625,0.4375,0.796875
1630674870500,-0.390625,0.4375,0.796875
1630674870531,-0.390625,0.4375,0.796875
1630674870562,-0.390625,0.4375,0.796875
1630674870593,-0.390625,0.4375,0.796875
1630674870625,-0.390625,0.4375,0.796875
1630674870656,-0.390625,0.4375,0.796875
1630674870687,-0.390625,0.4375,0.796875
1630674870718,-0.390625,0.4375,0.796875
1630674870750,-0.390625,0.4375,0.796875
1630674870781,-0.390625,0.4375,0.796875
1630674870812,-0.390625,0.4375,0.796875
1630674870843,-0.390625,0.4375,0.796875
1630674870875,-0.390625,0.4375,0.796875
1630674870906,-0.390625,0.4375,0.796875
1630674870937,-0.390625,0.4375,0.796875
1630674870968,-0.390625,0.4375,0.796875
1630674871000,-0.390625,0.4375,0.796875
1630674871031,-0.390625,0.4375,0.796875
1630674871062,-0.390625,0.4375,0.796875
1630674871093,-0.390625,0.4375,0.796875
1630674871125,-0.390625,0.4375,0.796875
1630674871156,-0.390625,0.4375,0.796875
1630674871187,-0.390625,0.4375,0.796875
1630674871218,-0.390625,0.4375,0.796875
1630674871250,-0.390625,0.4375,0.796875
1630674871281,-0.390625,0.4375,0.796875
1630674871312,-0.390625,0.4375,0.796875
1630674871343,-0.390625,0.4375,0.796875
1630674871375,-0.390625,0.4375,0.796875
1630674871406,-0.390625,0.4375,0.796875
1630674871437,-0.390625,0.4375,0.796875
1630674871468,-0.390625,0.4375,0.796875
1630674871500,-0.390625,0.4375,0.796875
1630674871531,-0.390625,0.4375,0.796875
1630674871562,-0.390625,0.4375,0.796875
1630674871593,-0.390625,0.453125,0.796875
1630674871625,-0.390625,0.4375,0.796875
1630674871656,-0.390625,0.4375,0.796875
1630674871687,-0.390625,0.4375,0.796875
1630674871718,-0.390625,0.4375,0.796875
1630674871750,-0.390625,0.453125,0.796875
1630674871781,-0.390625,0.4375,0.796875
1630674871812,-0.390625,0.4375,0.796875
1630674871843,-0.390625,0.4375,0.796875
1630674871875,-0.390625,0.4375,0.796875
1630674871906,-0.390625,0.4375,0.796875
1630674871937,-0.390625,0.4375,0.796875
1630674871968,-0.390625,0.4375,0.796875
1630674872000,-0.390625,0.4375,0.796875
1630674872031,-0.390625,0.4375,0.796875
1630674872062,-0.390625,0.4375,0.796875
1630674872093,-0.390625,0.4375,0.796875
1630674872125,-0.390625,0.4375,0.796875
1630674872156,-0.390625,0.4375,0.796875
1630674872187,-0.390625,0.4375,0.796875
1630674872218,-0.390625,0.4375,0.796875
1630674872250,-0.390625,0.4375,0.796875
1630674872281,-0.390625,0.4375,0.796875
1630674872312,-0.390625,0.4375,0.796875
1630674872343,-0.390625,0.4375,0.796875
1630674872375,-0.390625,0.4375,0.796875
1630674872406,-0.390625,0.4375,0.796875
1630674872437,-0.390625,0.4375,0.796875
1630674872468,-0.390625,0.4375,0.796875
1630674872500,-0.390625,0.4375,0.796875
1630674872531,-0.390625,0.4375,0.796875
1630674872562,-0.390625,0.4375,0.796875
1630674872593,-0.390625,0.4375,0.796875
1630674872625,-0.390625,0.4375,0.796875
1630674872656,-0.390625,0.4375,0.796875
1630674872687,-0.390625,0.4375,0.796875
1630674872718,-0.390625,0.4375,0.796875
1630674872750,-0.390625,0.4375,0.796875
1630674872781,-0.390625,0.4375,0.796875
1630674872812,-0.390625,0.4375,0.796875
1630674872843,-0.375,0.4375,0.796875
1630674872875,-0.390625,0.4375,0.796875
1630674872906,-0.390625,0.4375,0.796875
1630674872937,-0.390625,0.4375,0.796875
1630674872968,-0.390625,0.4375,0.796875
1630674873000,-0.390625,0.4375,0.796875
1630674873031,-0.390625,0.4375,0.796875
1630674873062,-0.390625,0.4375,0.796875
1630674873093,-0.390625,0.4375,0.796875
1630674873125,-0.390625,0.4375,0.796875
1630674873156,-0.390625,0.4375,0.796875
1630674873187,-0.390625,0.4375,0.796875
1630674873218,-0.390625,0.4375,0.796875
1630674873250,-0.390625,0.4375,0.796875
1630674873281,-0.390625,0.4375,0.796875
1630674873312,-0.390625,0.4375,0.796875
1630674873343,-0.390625,0.4375,0.796875
1630674873375,-0.390625,0.4375,0.796875
1630674873406,-0.390625,0.4375,0.796875
1630674873437,-0.390625,0.4375,0.796875
1630674873468,-0.390625,0.4375,0.796875
1630674873500,-0.390625,0.4375,0.796875
1630674873531,-0.390625,0.4375,0.796875
1630674873562,-0.390625,0.4375,0.796875
1630674873593,-0.390625,0.4375,0.796875
1630674873625,-0.390625,0.4375,0.796875
1630674873656,-0.390625,0.4375,0.796875
1630674873687,-0.390625,0.4375,0.796875
1630674873718,-0.390625,0.4375,0.796875
1630674873750,-0.390625,0.4375,0.796875
1630674873781,-0.390625,0.4375,0.796875
1630674873812,-0.390625,0.4375,0.796875
1630674873843,-0.390625,0.4375,0.796875
1630674873875,-0.390625,0.4375,0.796875
1630674873906,-0.390625,0.4375,0.796875
1630674873937,-0.390625,0.4375,0.796875
1630674873968,-0.390625,0.4375,0.796875
1630674874000,-0.390625,0.4375,0.796875
1630674874031,-0.390625,0.4375,0.796875
1630674874062,-0.390625,0.4375,0.796875
1630674874093,-0.390625,0.4375,0.796875
1630674874125,-0.390625,0.4375,0.796875
1630674874156,-0.390625,0.4375,0.796875
1630674874187,-0.390625,0.4375,0.796875
1630674874218,-0.390625,0.4375,0.78125
1630674874250,-0.390625,0.4375,0.796875
1630674874281,-0.390625,0.4375,0.796875
1630674874312,-0.390625,0.4375,0.796875
1630674874343,-0.390625,0.4375,0.796875
1630674874375,-0.390625,0.4375,0.796875
1630674874406,-0.390625,0.4375,0.796875
1630674874437,-0.390625,0.4375,0.796875
1630674874468,-0.390625,0.4375,0.796875
1630674874500,-0.390625,0.4375,0.796875
1630674874531,-0.390625,0.4375,0.796875
1630674874562,-0.390625,0.4375,0.796875
1630674874593,-0.390625,0.4375,0.796875
1630674874625,-0.390625,0.4375,0.796875
1630674874656,-0.390625,0.4375,0.796875
1630674874687,-0.390625,0.4375,0.796875
1630674874718,-0.390625,0.4375,0.796875
1630674874750,-0.390625,0.4375,0.796875
1630674874781,-0.390625,0.4375,0.796875
1630674874812,-0.390625,0.4375,0.796875
1630674874843,-0.390625,0.4375,0.796875
1630674874875,-0.390625,0.4375,0.796875
1630674874906,-0.390625,0.4375,0.796875
1630674874937,-0.390625,0.4375,0.796875
1630674874968,-0.390625,0.4375,0.796875
1630674875000,-0.375,0.4375,0.796875
1630674875031,-0.390625,0.4375,0.796875
1630674875062,-0.390625,0.4375,0.796875
1630674875093,-0.390625,0.4375,0.796875
1630674875125,-0.375,0.4375,0.796875
1630674875156,-0.390625,0.4375,0.796875
1630674875187,-0.390625,0.4375,0.796875
1630674875218,-0.390625,0.4375,0.796875
1630674875250,-0.390625,0.4375,0.796875
1630674875281,-0.390625,0.4375,0.796875
1630674875312,-0.390625,0.4375,0.796875
1630674875343,-0.375,0.4375,0.796875
1630674875375,-0.390625,0.4375,0.796875
1630674875406,-0.390625,0.4375,0.796875
1630674875437,-0.390625,0.4375,0.796875
1630674875468,-0.390625,0.4375,0.796875
1630674875500,-0.390625,0.4375,0.796875
1630674875531,-0.390625,0.4375,0.796875
1630674875562,-0.390625,0.4375,0.796875
1630674875593,-0.390625,0.4375,0.796875
1630674875625,-0.390625,0.4375,0.796875
1630674875656,-0.390625,0.4375,0.796875
1630674875687,-0.390625,0.4375,0.796875
1630674875718,-0.390625,0.4375,0.796875
1630674875750,-0.390625,0.4375,0.796875
1630674875781,-0.390625,0.4375,0.796875
