timestamp,ax,ay,az
1630932113000,0.234375,-0.140625,0.953125
1630932113031,0.234375,-0.140625,0.9375
1630932113062,0.234375,-0.140625,0.953125
1630932113093,0.234375,-0.140625,0.953125
1630932113125,0.234375,-0.140625,0.9375
1630932113156,0.234375,-0.140625,0.953125
1630932113187,0.234375,-0.140625,0.953125
1630932113218,0.21875,-0.140625,0.953125
1630932113250,0.234375,-0.140625,0.9375
1630932113281,0.234375,-0.140625,0.953125
1630932113312,0.234375,-0.140625,0.9375
1630932113343,0.234375,-0.140625,0.953125
1630932113375,0.234375,-0.140625,0.953125
1630932113406,0.21875,-0.140625,0.953125
1630932113437,0.234375,-0.140625,0.953125
1630932113468,0.234375,-0.140625,0.9375
1630932113500,0.21875,-0.140625,0.953125
1630932113531,0.234375,-0.140625,0.953125
1630932113562,0.234375,-0.140625,0.953125
1630932113593,0.234375,-0.140625,0.9375
1630932113625,0.234375,-0.140625,0.953125
1630932113656,0.234375,-0.140625,0.9375
1630932113687,0.234375,-0.140625,0.9375
1630932113718,0.234375,-0.140625,0.953125
1630932113750,0.234375,-0.140625,0.953125
1630932113781,0.234375,-0.140625,0.953125
1630932113812,0.234375,-0.140625,0.9375
1630932113843,0.234375,-0.140625,0.953125
1630932113875,0.234375,-0.140625,0.953125
1630932113906,0.234375,-0.140625,0.953125
1630932113937,0.21875,-0.140625,0.9375
1630932113968,0.234375,-0.140625,0.953125
1630932114000,0.234375,-0.140625,0.953125
1630932114031,0.21875,-0.140625,0.953125
1630932114062,0.21875,-0.140625,0.953125
1630932114093,0.203125,-0.140625,0.953125
1630932114125,0.203125,-0.140625,0.96875
1630932114156,0.1875,-0.15625,0.984375
1630932114187,0.1875,-0.140625,0.96875
1630932114218,0.234375,-0.140625,0.96875
1630932114250,0.234375,-0.125,0.953125
1630932114281,0.25,-0.125,0.953125
1630932114312,0.234375,-0.109375,0.96875
1630932114343,0.234375,-0.109375,0.9375
1630932114375,0.265625,-0.09375,0.921875
1630932114406,0.296875,-0.109375,0.953125
1630932114437,0.265625,-0.109375,0.9375
1630932114468,0.328125,-0.09375,0.921875
1630932114500,0.359375,-0.0625,0.90625
1630932114531,0.390625,-0.0625,0.890625
1630932114562,0.375,-0.0625,0.875
1630932114593,0.390625,-0.0625,0.859375
1630932114625,0.453125,-0.03125,0.875
1630932114656,0.453125,-0.015625,0.890625
1630932114687,0.421875,-0.015625,0.875
1630932114718,0.4375,0.03125,0.875
1630932114750,0.375,-0.046875,0.828125
1630932114781,0.515625,-0.03125,0.875
1630932114812,0.5,-0.0625,0.875
1630932114843,0.484375,-0.0625,0.890625
1630932114875,0.40625,-0.0625,0.90625
1630932114906,0.390625,-0.0625,0.90625
1630932114937,0.375,-0.09375,0.90625
1630932114968,0.375,-0.078125,0.921875
1630932115000,0.40625,-0.0625,0.921875
1630932115031,0.421875,-0.0625,0.859375
1630932115062,0.421875,-0.0625,0.84375
1630932115093,0.390625,-0.0625,0.78125
1630932115125,0.390625,0.09375,0.8125
1630932115156,0.5625,0.21875,0.921875
1630932115187,0.53125,0.1875,0.890625
1630932115218,0.671875,0.125,0.859375
1630932115250,0.484375,0.046875,0.78125
1630932115281,0.40625,-0.0625,0.828125
1630932115312,0.46875,-0.125,0.90625
1630932115343,0.53125,-0.234375,0.921875
1630932115375,0.5,-0.296875,0.875
1630932115406,0.390625,-0.328125,0.859375
1630932115437,0.484375,-0.25,0.9375
1630932115468,0.453125,-0.125,0.875
1630932115500,0.515625,-0.109375,0.859375
1630932115531,0.515625,-0.109375,0.84375
1630932115562,0.46875,-0.109375,0.828125
1630932115593,0.40625,-0.125,0.890625
1630932115625,0.328125,-0.125,0.875
1630932115656,0.375,-0.125,0.890625
1630932115687,0.484375,-0.125,0.875
1630932115718,0.59375,-0.09375,0.8125
1630932115750,0.59375,-0.09375,0.84375
1630932115781,0.5625,-0.109375,0.828125
1630932115812,0.484375,-0.125,0.828125
1630932115843,0.5,-0.109375,0.84375
1630932115875,0.515625,-0.109375,0.828125
1630932115906,0.484375,-0.078125,0.8125
1630932115937,0.515625,-0.046875,0.84375
1630932115968,0.5625,-0.078125,0.8125
1630932116000,0.515625,-0.109375,0.828125
1630932116031,0.484375,-0.125,0.828125
1630932116062,0.59375,-0.109375,0.796875
1630932116093,0.65625,-0.125,0.8125
1630932116125,0.578125,-0.109375,0.8125
1630932116156,0.5625,-0.125,0.8125
1630932116187,0.5625,-0.140625,0.8125
1630932116218,0.546875,-0.140625,0.8125
1630932116250,0.5625,-0.140625,0.8125
1630932116281,0.578125,-0.140625,0.796875
1630932116312,0.5625,-0.125,0.796875
1630932116343,0.5625,-0.125,0.796875
1630932116375,0.578125,-0.125,0.796875
1630932116406,0.578125,-0.125,0.796875
1630932116437,0.59375,-0.125,0.796875
1630932116468,0.5625,-0.125,0.796875
1630932116500,0.5625,-0.125,0.8125
1630932116531,0.546875,-0.125,0.8125
1630932116562,0.578125,-0.140625,0.8125
1630932116593,0.5625,-0.140625,0.796875
1630932116625,0.546875,-0.140625,0.828125
1630932116656,0.53125,-0.140625,0.828125
1630932116687,0.5625,-0.140625,0.8125
1630932116718,0.5625,-0.125,0.8125
1630932116750,0.5625,-0.125,0.8125
1630932116781,0.546875,-0.125,0.8125
1630932116812,0.5625,-0.125,0.8125
1630932116843,0.5625,-0.125,0.8125
1630932116875,0.5625,-0.125,0.8125
1630932116906,0.59375,-0.109375,0.796875
1630932116937,0.578125,-0.125,0.796875
1630932116968,0.5625,-0.125,0.8125
1630932117000,0.546875,-0.125,0.8125
1630932117031,0.5625,-0.109375,0.8125
1630932117062,0.5625,-0.109375,0.796875
1630932117093,0.5625,-0.109375,0.828125
1630932117125,0.5625,-0.109375,0.8125
1630932117156,0.5625,-0.109375,0.796875
1630932117187,0.546875,-0.125,0.8125
1630932117218,0.5625,-0.125,0.8125
1630932117250,0.578125,-0.125,0.8125
1630932117281,0.5625,-0.109375,0.8125
1630932117312,0.546875,-0.125,0.796875
1630932117343,0.578125,-0.125,0.796875
1630932117375,0.59375,-0.109375,0.78125
1630932117406,0.625,-0.09375,0.78125
1630932117437,0.609375,-0.09375,0.78125
1630932117468,0.609375,-0.09375,0.78125
1630932117500,0.609375,-0.109375,0.796875
1630932117531,0.59375,-0.109375,0.796875
1630932117562,0.59375,-0.109375,0.78125
1630932117593,0.578125,-0.109375,0.796875
1630932117625,0.578125,-0.109375,0.796875
1630932117656,0.59375,-0.109375,0.796875
1630932117687,0.609375,-0.109375,0.78125
1630932117718,0.609375,-0.109375,0.78125
1630932117750,0.609375,-0.09375,0.78125
1630932117781,0.609375,-0.09375,0.78125
1630932117812,0.609375,-0.109375,0.78125
1630932117843,0.609375,-0.109375,0.78125
1630932117875,0.609375,-0.109375,0.78125
1630932117906,0.609375,-0.109375,0.78125
1630932117937,0.609375,-0.109375,0.78125
1630932117968,0.609375,-0.109375,0.765625
1630932118000,0.609375,-0.109375,0.78125
1630932118031,0.609375,-0.109375,0.78125
1630932118062,0.609375,-0.109375,0.78125
1630932118093,0.609375,-0.109375,0.78125
1630932118125,0.609375,-0.109375,0.78125
1630932118156,0.609375,-0.109375,0.78125
1630932118187,0.609375,-0.109375,0.78125
1630932118218,0.609375,-0.109375,0.78125
1630932118250,0.609375,-0.109375,0.765625
1630932118281,0.609375,-0.109375,0.78125
1630932118312,0.609375,-0.109375,0.78125
1630932118343,0.609375,-0.09375,0.78125
1630932118375,0.609375,-0.109375,0.78125
1630932118406,0.609375,-0.109375,0.78125
1630932118437,0.609375,-0.109375,0.78125
1630932118468,0.609375,-0.109375,0.78125
1630932118500,0.609375,-0.109375,0.78125
1630932118531,0.609375,-0.09375,0.78125
1630932118562,0.609375,-0.09375,0.78125
1630932118593,0.609375,-0.09375,0.78125
1630932118625,0.609375,-0.109375,0.765625
1630932118656,0.609375,-0.109375,0.765625
1630932118687,0.609375,-0.109375,0.78125
1630932118718,0.609375,-0.109375,0.78125
1630932118750,0.609375,-0.109375,0.765625
1630932118781,0.609375,-0.109375,0.78125
1630932118812,0.609375,-0.109375,0.78125
1630932118843,0.609375,-0.109375,0.78125
1630932118875,0.609375,-0.09375,0.78125
1630932118906,0.59375,-0.09375,0.78125
1630932118937,0.609375,-0.09375,0.78125
1630932118968,0.609375,-0.09375,0.78125
1630932119000,0.59375,-0.09375,0.78125
1630932119031,0.609375,-0.09375,0.78125
1630932119062,0.609375,-0.09375,0.78125
1630932119093,0.609375,-0.09375,0.78125
1630932119125,0.609375,-0.09375,0.78125
1630932119156,0.625,-0.09375,0.765625
1630932119187,0.609375,-0.09375,0.765625
1630932119218,0.609375,-0.09375,0.78125
1630932119250,0.609375,-0.109375,0.78125
1630932119281,0.609375,-0.125,0.78125
1630932119312,0.609375,-0.125,0.78125
1630932119343,0.609375,-0.109375,0.765625
1630932119375,0.609375,-0.109375,0.765625
1630932119406,0.609375,-0.109375,0.765625
1630932119437,0.625,-0.109375,0.78125
1630932119468,0.609375,-0.109375,0.78125
1630932119500,0.609375,-0.109375,0.765625
1630932119531,0.625,-0.09375,0.75
1630932119562,0.625,-0.078125,0.765625
1630932119593,0.59375,-0.09375,0.78125
1630932119625,0.625,-0.09375,0.765625
1630932119656,0.59375,-0.109375,0.78125
1630932119687,0.59375,-0.140625,0.796875
1630932119718,0.625,-0.140625,0.75
1630932119750,0.765625,-0.09375,0.734375
1630932119781,0.75,-0.078125,0.71875
1630932119812,0.5625,-0.078125,0.71875
1630932119843,0.609375,-0.09375,0.734375
1630932119875,0.625,-0.09375,0.75
1630932119906,0.625,-0.109375,0.78125
1630932119937,0.609375,-0.125,0.78125
1630932119968,0.625,-0.125,0.765625
1630932120000,0.640625,-0.125,0.765625
1630932120031,0.625,-0.125,0.765625
1630932120062,0.640625,-0.109375,0.75
1630932120093,0.640625,-0.109375,0.75
1630932120125,0.609375,-0.125,0.765625
1630932120156,0.625,-0.109375,0.75
1630932120187,0.640625,-0.109375,0.75
1630932120218,0.625,-0.125,0.765625
1630932120250,0.625,-0.109375,0.765625
1630932120281,0.625,-0.109375,0.765625
1630932120312,0.65625,-0.109375,0.75
1630932120343,0.65625,-0.125,0.75
1630932120375,0.625,-0.125,0.75
1630932120406,0.59375,-0.140625,0.75
1630932120437,0.609375,-0.171875,0.75
1630932120468,0.59375,-0.140625,0.765625
1630932120500,0.59375,-0.15625,0.796875
1630932120531,0.625,-0.15625,0.765625
1630932120562,0.625,-0.140625,0.765625
1630932120593,0.671875,-0.125,0.75
1630932120625,0.640625,-0.140625,0.75
1630932120656,0.609375,-0.140625,0.765625
1630932120687,0.59375,-0.140625,0.75
1630932120718,0.640625,-0.125,0.75
1630932120750,0.640625,-0.125,0.765625
1630932120781,0.609375,-0.125,0.78125
1630932120812,0.609375,-0.125,0.765625
1630932120843,0.65625,-0.140625,0.75
1630932120875,0.625,-0.15625,0.765625
1630932120906,0.625,-0.15625,0.765625
1630932120937,0.625,-0.140625,0.734375
1630932120968,0.65625,-0.140625,0.734375
1630932121000,0.625,-0.140625,0.765625
1630932121031,0.578125,-0.140625,0.78125
1630932121062,0.609375,-0.140625,0.765625
1630932121093,0.640625,-0.15625,0.75
1630932121125,0.640625,-0.15625,0.75
1630932121156,0.640625,-0.15625,0.75
1630932121187,0.65625,-0.140625,0.75
1630932121218,0.65625,-0.140625,0.75
1630932121250,0.625,-0.125,0.765625
1630932121281,0.609375,-0.125,0.765625
1630932121312,0.609375,-0.125,0.75
1630932121343,0.578125,-0.140625,0.75
1630932121375,0.609375,-0.140625,0.78125
1630932121406,0.625,-0.140625,0.78125
1630932121437,0.640625,-0.15625,0.765625
1630932121468,0.6875,-0.171875,0.734375
1630932121500,0.671875,-0.171875,0.734375
1630932121531,0.671875,-0.171875,0.734375
1630932121562,0.734375,-0.15625,0.734375
1630932121593,0.640625,-0.140625,0.78125
1630932121625,0.609375,-0.140625,0.765625
1630932121656,0.640625,-0.15625,0.796875
1630932121687,0.609375,-0.15625,0.765625
1630932121718,0.609375,-0.140625,0.796875
1630932121750,0.515625,-0.15625,0.8125
1630932121781,0.59375,-0.03125,0.78125
1630932121812,0.53125,-0.046875,0.6875
1630932121843,0.484375,-0.046875,0.859375
1630932121875,0.4375,-0.171875,0.8125
1630932121906,0.40625,-0.15625,0.859375
1630932121937,0.46875,-0.09375,0.828125
1630932121968,0.65625,-0.015625,0.9375
1630932122000,0.75,-0.0625,0.828125
1630932122031,0.6875,-0.0625,0.734375
1630932122062,0.328125,-0.078125,0.6875
1630932122093,0.203125,-0.0625,0.65625
1630932122125,0.46875,-0.0625,0.859375
1630932122156,0.578125,-0.078125,0.953125
1630932122187,0.515625,-0.0625,0.90625
1630932122218,0.4375,-0.03125,0.859375
1630932122250,0.4375,-0.046875,0.875
1630932122281,0.4375,-0.0625,0.90625
1630932122312,0.390625,-0.0625,0.90625
1630932122343,0.390625,-0.046875,0.90625
1630932122375,0.375,-0.046875,0.921875
1630932122406,0.375,-0.03125,0.90625
1630932122437,0.359375,-0.03125,0.921875
1630932122468,0.359375,-0.03125,0.921875
1630932122500,0.359375,-0.046875,0.921875
1630932122531,0.390625,-0.0625,0.90625
1630932122562,0.40625,-0.0625,0.890625
1630932122593,0.40625,-0.078125,0.921875
1630932122625,0.359375,-0.0625,0.90625
1630932122656,0.359375,-0.046875,0.90625
1630932122687,0.375,-0.046875,0.90625
1630932122718,0.390625,-0.046875,0.90625
1630932122750,0.390625,-0.046875,0.90625
1630932122781,0.375,-0.0625,0.90625
1630932122812,0.375,-0.046875,0.90625
1630932122843,0.390625,-0.046875,0.90625
1630932122875,0.390625,-0.046875,0.90625
1630932122906,0.390625,-0.046875,0.90625
1630932122937,0.390625,-0.046875,0.90625
1630932122968,0.390625,-0.046875,0.90625
1630932123000,0.375,-0.046875,0.90625
1630932123031,0.375,-0.046875,0.90625
1630932123062,0.375,-0.046875,0.90625
1630932123093,0.390625,-0.046875,0.90625
1630932123125,0.390625,-0.046875,0.90625
1630932123156,0.375,-0.046875,0.90625
1630932123187,0.359375,-0.046875,0.921875
1630932123218,0.359375,-0.046875,0.921875
1630932123250,0.375,-0.046875,0.90625
1630932123281,0.390625,-0.046875,0.90625
1630932123312,0.390625,-0.046875,0.90625
1630932123343,0.390625,-0.046875,0.90625
1630932123375,0.375,-0.046875,0.90625
1630932123406,0.375,-0.046875,0.90625
1630932123437,0.390625,-0.046875,0.90625
1630932123468,0.375,-0.046875,0.90625
1630932123500,0.375,-0.046875,0.90625
1630932123531,0.375,-0.046875,0.90625
1630932123562,0.375,-0.046875,0.90625
1630932123593,0.390625,-0.046875,0.90625
1630932123625,0.390625,-0.046875,0.90625
1630932123656,0.40625,-0.046875,0.90625
1630932123687,0.390625,-0.046875,0.90625
1630932123718,0.375,-0.046875,0.90625
1630932123750,0.359375,-0.046875,0.90625
1630932123781,0.359375,-0.046875,0.90625
1630932123812,0.375,-0.046875,0.90625
1630932123843,0.390625,-0.046875,0.90625
1630932123875,0.390625,-0.046875,0.90625
1630932123906,0.390625,-0.046875,0.90625
1630932123937,0.390625,-0.046875,0.90625
1630932123968,0.375,-0.046875,0.90625
1630932124000,0.375,-0.046875,0.921875
1630932124031,0.390625,-0.046875,0.90625
1630932124062,0.390625,-0.046875,0.90625
1630932124093,0.390625,-0.046875,0.90625
1630932124125,0.390625,-0.046875,0.90625
1630932124156,0.390625,-0.046875,0.90625
1630932124187,0.390625,-0.046875,0.90625
1630932124218,0.390625,-0.046875,0.90625
1630932124250,0.390625,-0.046875,0.90625
1630932124281,0.390625,-0.046875,0.90625
1630932124312,0.390625,-0.046875,0.90625
1630932124343,0.390625,-0.046875,0.90625
1630932124375,0.390625,-0.0625,0.90625
1630932124406,0.390625,-0.046875,0.90625
1630932124437,0.390625,-0.046875,0.90625
1630932124468,0.375,-0.046875,0.921875
1630932124500,0.375,-0.046875,0.90625
1630932124531,0.375,-0.046875,0.90625
1630932124562,0.375,-0.046875,0.90625
1630932124593,0.390625,-0.046875,0.90625
1630932124625,0.390625,-0.046875,0.90625
1630932124656,0.40625,-0.046875,0.90625
1630932124687,0.390625,-0.046875,0.90625
1630932124718,0.375,-0.046875,0.90625
1630932124750,0.375,-0.046875,0.90625
1630932124781,0.390625,-0.046875,0.90625
1630932124812,0.390625,-0.046875,0.90625
1630932124843,0.390625,-0.046875,0.90625
1630932124875,0.390625,-0.046875,0.90625
1630932124906,0.375,-0.046875,0.90625
1630932124937,0.390625,-0.046875,0.90625
1630932124968,0.390625,-0.046875,0.90625
1630932125000,0.390625,-0.046875,0.90625
1630932125031,0.375,-0.046875,0.90625
1630932125062,0.390625,-0.046875,0.90625
1630932125093,0.375,-0.046875,0.90625
1630932125125,0.375,-0.046875,0.90625
1630932125156,0.390625,-0.046875,0.90625
1630932125187,0.40625,-0.046875,0.90625
1630932125218,0.390625,-0.046875,0.90625
1630932125250,0.375,-0.046875,0.90625
1630932125281,0.375,-0.0625,0.90625
1630932125312,0.390625,-0.046875,0.90625
1630932125343,0.375,-0.046875,0.90625
1630932125375,0.375,-0.046875,0.921875
1630932125406,0.375,-0.046875,0.90625
1630932125437,0.390625,-0.046875,0.90625
1630932125468,0.390625,-0.046875,0.90625
1630932125500,0.390625,-0.046875,0.90625
1630932125531,0.390625,-0.046875,0.90625
1630932125562,0.375,-0.046875,0.90625
1630932125593,0.375,-0.046875,0.90625
1630932125625,0.390625,-0.03125,0.90625
1630932125656,0.390625,-0.046875,0.90625
1630932125687,0.390625,-0.046875,0.90625
1630932125718,0.390625,-0.046875,0.90625
1630932125750,0.375,-0.046875,0.90625
1630932125781,0.375,-0.046875,0.90625
1630932125812,0.359375,-0.046875,0.90625
1630932125843,0.359375,-0.046875,0.921875
1630932125875,0.359375,-0.046875,0.921875
1630932125906,0.375,-0.046875,0.90625
1630932125937,0.390625,-0.046875,0.90625
1630932125968,0.40625,-0.046875,0.890625
1630932126000,0.390625,-0.046875,0.90625
1630932126031,0.375,-0.046875,0.90625
1630932126062,0.359375,-0.0625,0.90625
1630932126093,0.375,-0.046875,0.90625
1630932126125,0.390625,-0.046875,0.90625
1630932126156,0.390625,-0.046875,0.90625
1630932126187,0.375,-0.046875,0.90625
1630932126218,0.375,-0.046875,0.90625
1630932126250,0.375,-0.03125,0.90625
1630932126281,0.375,-0.046875,0.90625
1630932126312,0.375,-0.046875,0.90625
1630932126343,0.375,-0.046875,0.90625
1630932126375,0.375,-0.046875,0.90625
1630932126406,0.375,-0.046875,0.90625
1630932126437,0.375,-0.046875,0.90625
1630932126468,0.390625,-0.046875,0.90625
1630932126500,0.390625,-0.046875,0.90625
1630932126531,0.375,-0.046875,0.90625
1630932126562,0.375,-0.046875,0.90625
1630932126593,0.375,-0.046875,0.90625
1630932126625,0.375,-0.046875,0.90625
1630932126656,0.375,-0.046875,0.90625
1630932126687,0.375,-0.046875,0.90625
1630932126718,0.375,-0.046875,0.921875
1630932126750,0.375,-0.046875,0.90625
1630932126781,0.375,-0.046875,0.90625
1630932126812,0.375,-0.046875,0.90625
1630932126843,0.390625,-0.046875,0.90625
1630932126875,0.375,-0.046875,0.90625
1630932126906,0.390625,-0.046875,0.90625
1630932126937,0.390625,-0.046875,0.90625
1630932126968,0.375,-0.046875,0.90625
1630932127000,0.375,-0.046875,0.90625
1630932127031,0.390625,-0.046875,0.90625
1630932127062,0.375,-0.046875,0.90625
1630932127093,0.375,-0.046875,0.90625
1630932127125,0.375,-0.046875,0.90625
1630932127156,0.375,-0.046875,0.90625
1630932127187,0.375,-0.046875,0.90625
1630932127218,0.375,-0.046875,0.90625
1630932127250,0.375,-0.046875,0.90625
1630932127281,0.375,-0.046875,0.90625
1630932127312,0.390625,-0.046875,0.90625
1630932127343,0.375,-0.046875,0.90625
1630932127375,0.375,-0.046875,0.90625
1630932127406,0.375,-0.046875,0.90625
1630932127437,0.375,-0.046875,0.90625
1630932127468,0.375,-0.046875,0.90625
1630932127500,0.375,-0.046875,0.90625
1630932127531,0.375,-0.046875,0.90625
1630932127562,0.375,-0.046875,0.90625
1630932127593,0.390625,-0.046875,0.90625
1630932127625,0.375,-0.046875,0.90625
1630932127656,0.375,-0.046875,0.90625
1630932127687,0.375,-0.046875,0.90625
1630932127718,0.375,-0.046875,0.90625
1630932127750,0.375,-0.046875,0.90625
1630932127781,0.375,-0.046875,0.90625
1630932127812,0.390625,-0.046875,0.90625
1630932127843,0.390625,-0.046875,0.90625
1630932127875,0.375,-0.046875,0.90625
1630932127906,0.390625,-0.046875,0.90625
1630932127937,0.375,-0.046875,0.90625
1630932127968,0.375,-0.046875,0.90625
1630932128000,0.375,-0.046875,0.90625
1630932128031,0.375,-0.046875,0.90625
1630932128062,0.375,-0.046875,0.90625
1630932128093,0.390625,-0.046875,0.90625
1630932128125,0.390625,-0.046875,0.90625
1630932128156,0.375,-0.046875,0.90625
1630932128187,0.375,-0.046875,0.90625
1630932128218,0.390625,-0.046875,0.90625
1630932128250,0.390625,-0.046875,0.90625
1630932128281,0.390625,-0.046875,0.90625
1630932128312,0.375,-0.046875,0.90625
1630932128343,0.375,-0.046875,0.90625
1630932128375,0.390625,-0.046875,0.90625
1630932128406,0.390625,-0.046875,0.90625
1630932128437,0.375,-0.046875,0.90625
1630932128468,0.375,-0.046875,0.90625
1630932128500,0.375,-0.046875,0.90625
1630932128531,0.390625,-0.046875,0.90625
1630932128562,0.390625,-0.046875,0.90625
1630932128593,0.390625,-0.046875,0.90625
1630932128625,0.390625,-0.046875,0.90625
1630932128656,0.375,-0.046875,0.90625
1630932128687,0.375,-0.046875,0.90625
1630932128718,0.375,-0.046875,0.90625
1630932128750,0.375,-0.046875,0.90625
1630932128781,0.375,-0.046875,0.90625
1630932128812,0.375,-0.046875,0.90625
1630932128843,0.390625,-0.046875,0.90625
1630932128875,0.375,-0.046875,0.90625
1630932128906,0.375,-0.046875,0.90625
1630932128937,0.375,-0.046875,0.90625
1630932128968,0.375,-0.046875,0.90625
1630932129000,0.375,-0.046875,0.90625
1630932129031,0.375,-0.046875,0.90625
1630932129062,0.375,-0.046875,0.90625
1630932129093,0.390625,-0.046875,0.90625
1630932129125,0.390625,-0.046875,0.90625
1630932129156,0.375,-0.046875,0.90625
1630932129187,0.375,-0.046875,0.90625
1630932129218,0.375,-0.046875,0.90625
1630932129250,0.390625,-0.046875,0.90625
1630932129281,0.375,-0.046875,0.90625
1630932129312,0.375,-0.046875,0.90625
1630932129343,0.375,-0.046875,0.90625
1630932129375,0.375,-0.046875,0.90625
1630932129406,0.375,-0.046875,0.90625
1630932129437,0.390625,-0.046875,0.90625
1630932129468,0.390625,-0.046875,0.90625
1630932129500,0.375,-0.046875,0.90625
1630932129531,0.375,-0.046875,0.90625
1630932129562,0.390625,-0.046875,0.90625
1630932129593,0.375,-0.046875,0.90625
1630932129625,0.375,-0.046875,0.90625
1630932129656,0.390625,-0.046875,0.90625
1630932129687,0.390625,-0.046875,0.90625
1630932129718,0.375,-0.046875,0.90625
1630932129750,0.375,-0.046875,0.921875
1630932129781,0.375,-0.046875,0.90625
1630932129812,0.375,-0.046875,0.90625
1630932129843,0.390625,-0.046875,0.90625
1630932129875,0.390625,-0.046875,0.90625
1630932129906,0.390625,-0.046875,0.90625
1630932129937,0.375,-0.046875,0.90625
1630932129968,0.375,-0.046875,0.90625
1630932130000,0.390625,-0.046875,0.90625
1630932130031,0.390625,-0.046875,0.90625
1630932130062,0.375,-0.046875,0.90625
1630932130093,0.375,-0.046875,0.90625
1630932130125,0.375,-0.046875,0.90625
1630932130156,0.390625,-0.046875,0.90625
1630932130187,0.390625,-0.046875,0.90625
1630932130218,0.375,-0.046875,0.90625
1630932130250,0.375,-0.046875,0.90625
1630932130281,0.375,-0.046875,0.90625
1630932130312,0.375,-0.046875,0.90625
1630932130343,0.375,-0.046875,0.90625
1630932130375,0.375,-0.046875,0.90625
1630932130406,0.375,-0.046875,0.90625
1630932130437,0.390625,-0.046875,0.90625
1630932130468,0.40625,-0.046875,0.90625
1630932130500,0.390625,-0.046875,0.90625
1630932130531,0.359375,-0.046875,0.921875
1630932130562,0.359375,-0.046875,0.921875
1630932130593,0.375,-0.046875,0.90625
1630932130625,0.390625,-0.03125,0.90625
1630932130656,0.390625,-0.03125,0.90625
1630932130687,0.375,-0.046875,0.90625
1630932130718,0.359375,-0.046875,0.90625
1630932130750,0.375,-0.046875,0.90625
1630932130781,0.390625,-0.046875,0.90625
1630932130812,0.390625,-0.046875,0.90625
1630932130843,0.375,-0.046875,0.90625
1630932130875,0.375,-0.046875,0.90625
1630932130906,0.375,-0.046875,0.90625
1630932130937,0.375,-0.046875,0.90625
1630932130968,0.375,-0.046875,0.90625
1630932131000,0.375,-0.046875,0.90625
1630932131031,0.375,-0.046875,0.90625
1630932131062,0.375,-0.046875,0.90625
1630932131093,0.375,-0.046875,0.90625
1630932131125,0.375,-0.046875,0.90625
1630932131156,0.375,-0.03125,0.90625
1630932131187,0.390625,-0.046875,0.90625
1630932131218,0.375,-0.046875,0.90625
1630932131250,0.375,-0.046875,0.90625
1630932131281,0.375,-0.0625,0.90625
1630932131312,0.375,-0.046875,0.90625
1630932131343,0.390625,-0.046875,0.90625
1630932131375,0.390625,-0.046875,0.90625
1630932131406,0.390625,-0.03125,0.90625
1630932131437,0.390625,-0.03125,0.90625
1630932131468,0.34375,-0.046875,0.90625
1630932131500,0.375,-0.046875,0.90625
1630932131531,0.390625,-0.046875,0.90625
1630932131562,0.375,-0.046875,0.90625
1630932131593,0.375,-0.046875,0.90625
1630932131625,0.375,-0.046875,0.90625
1630932131656,0.375,-0.046875,0.90625
1630932131687,0.375,-0.046875,0.90625
1630932131718,0.375,-0.046875,0.90625
1630932131750,0.375,-0.046875,0.90625
1630932131781,0.375,-0.046875,0.90625
1630932131812,0.375,-0.046875,0.90625
1630932131843,0.375,-0.046875,0.90625
1630932131875,0.390625,-0.046875,0.90625
1630932131906,0.375,-0.03125,0.90625
1630932131937,0.390625,-0.03125,0.90625
1630932131968,0.359375,-0.0625,0.90625
1630932132000,0.359375,-0.0625,0.921875
1630932132031,0.375,-0.046875,0.90625
1630932132062,0.375,-0.046875,0.90625
1630932132093,0.375,-0.046875,0.90625
1630932132125,0.375,-0.046875,0.90625
1630932132156,0.390625,-0.046875,0.890625
1630932132187,0.390625,-0.046875,0.90625
1630932132218,0.375,-0.046875,0.90625
1630932132250,0.375,-0.046875,0.90625
1630932132281,0.375,-0.046875,0.90625
1630932132312,0.390625,-0.046875,0.90625
1630932132343,0.375,-0.046875,0.90625
1630932132375,0.375,-0.046875,0.90625
1630932132406,0.375,-0.046875,0.90625
1630932132437,0.375,-0.046875,0.90625
1630932132468,0.375,-0.046875,0.90625
1630932132500,0.375,-0.046875,0.90625
1630932132531,0.375,-0.046875,0.90625
1630932132562,0.375,-0.046875,0.90625
1630932132593,0.375,-0.046875,0.90625
1630932132625,0.375,-0.046875,0.90625
1630932132656,0.375,-0.046875,0.90625
1630932132687,0.375,-0.046875,0.90625
1630932132718,0.375,-0.046875,0.90625
1630932132750,0.375,-0.046875,0.90625
1630932132781,0.375,-0.046875,0.90625
1630932132812,0.375,-0.046875,0.90625
1630932132843,0.375,-0.046875,0.90625
1630932132875,0.375,-0.046875,0.90625
1630932132906,0.359375,-0.046875,0.90625
1630932132937,0.375,-0.046875,0.90625
1630932132968,0.375,-0.046875,0.90625
1630932133000,0.390625,-0.046875,0.90625
1630932133031,0.390625,-0.046875,0.90625
1630932133062,0.375,-0.046875,0.90625
1630932133093,0.375,-0.046875,0.90625
1630932133125,0.375,-0.046875,0.90625
1630932133156,0.390625,-0.0625,0.90625
1630932133187,0.375,-0.0625,0.921875
1630932133218,0.359375,-0.0625,0.90625
1630932133250,0.375,-0.046875,0.90625
1630932133281,0.390625,-0.046875,0.90625
1630932133312,0.375,-0.046875,0.90625
1630932133343,0.375,-0.046875,0.90625
1630932133375,0.375,-0.046875,0.90625
1630932133406,0.375,-0.046875,0.921875
1630932133437,0.375,-0.046875,0.90625
1630932133468,0.375,-0.0625,0.90625
1630932133500,0.34375,-0.0625,0.890625
1630932133531,0.390625,0.0,0.921875
1630932133562,0.359375,-0.03125,0.90625
1630932133593,0.390625,-0.03125,0.90625
1630932133625,0.40625,-0.03125,0.890625
1630932133656,0.375,-0.0625,0.90625
1630932133687,0.359375,-0.046875,0.90625
1630932133718,0.359375,-0.046875,0.921875
1630932133750,0.34375,-0.046875,0.90625
1630932133781,0.359375,-0.015625,0.921875
1630932133812,0.4375,-0.03125,0.890625
1630932133843,0.390625,-0.046875,0.875
1630932133875,0.34375,-0.03125,0.90625
1630932133906,0.390625,-0.03125,0.90625
1630932133937,0.390625,-0.03125,0.921875
1630932133968,0.359375,-0.046875,0.90625
1630932134000,0.359375,-0.03125,0.921875
1630932134031,0.375,-0.015625,0.90625
1630932134062,0.359375,-0.046875,0.90625
1630932134093,0.375,-0.03125,0.90625
1630932134125,0.390625,-0.046875,0.90625
1630932134156,0.390625,-0.03125,0.90625
1630932134187,0.390625,-0.046875,0.90625
1630932134218,0.375,-0.046875,0.90625
1630932134250,0.375,-0.046875,0.90625
1630932134281,0.375,-0.03125,0.90625
1630932134312,0.375,-0.03125,0.90625
1630932134343,0.375,-0.03125,0.90625
1630932134375,0.375,-0.03125,0.90625
1630932134406,0.375,-0.03125,0.90625
1630932134437,0.375,-0.03125,0.90625
1630932134468,0.375,-0.03125,0.90625
1630932134500,0.375,-0.03125,0.90625
1630932134531,0.375,-0.03125,0.90625
1630932134562,0.375,-0.03125,0.90625
1630932134593,0.375,-0.03125,0.90625
1630932134625,0.375,-0.046875,0.90625
1630932134656,0.375,-0.03125,0.90625
1630932134687,0.390625,-0.03125,0.90625
1630932134718,0.375,-0.03125,0.90625
1630932134750,0.375,-0.03125,0.90625
1630932134781,0.375,-0.03125,0.90625
1630932134812,0.375,-0.03125,0.90625
1630932134843,0.375,-0.03125,0.90625
1630932134875,0.375,-0.03125,0.90625
1630932134906,0.390625,-0.03125,0.90625
1630932134937,0.375,-0.03125,0.90625
1630932134968,0.375,-0.03125,0.90625
1630932135000,0.375,-0.03125,0.90625
1630932135031,0.375,-0.03125,0.90625
1630932135062,0.375,-0.046875,0.90625
1630932135093,0.375,-0.03125,0.90625
1630932135125,0.375,-0.03125,0.90625
1630932135156,0.375,-0.046875,0.90625
1630932135187,0.390625,-0.046875,0.90625
1630932135218,0.390625,-0.046875,0.90625
1630932135250,0.375,-0.03125,0.90625
1630932135281,0.375,-0.03125,0.90625
1630932135312,0.375,-0.03125,0.90625
1630932135343,0.375,-0.03125,0.90625
1630932135375,0.375,-0.03125,0.90625
1630932135406,0.375,-0.03125,0.90625
1630932135437,0.375,-0.03125,0.90625
1630932135468,0.375,-0.03125,0.90625
1630932135500,0.375,-0.03125,0.90625
1630932135531,0.390625,-0.03125,0.90625
1630932135562,0.375,-0.03125,0.90625
1630932135593,0.390625,-0.046875,0.90625
1630932135625,0.375,-0.03125,0.90625
1630932135656,0.375,-0.03125,0.90625
1630932135687,0.375,-0.03125,0.90625
1630932135718,0.390625,-0.03125,0.90625
1630932135750,0.375,-0.03125,0.90625
1630932135781,0.375,-0.03125,0.90625
1630932135812,0.375,-0.03125,0.90625
1630932135843,0.375,-0.03125,0.90625
1630932135875,0.375,-0.03125,0.90625
1630932135906,0.390625,-0.03125,0.90625
1630932135937,0.40625,-0.046875,0.90625
1630932135968,0.390625,-0.03125,0.90625
1630932136000,0.390625,-0.03125,0.90625
1630932136031,0.390625,-0.046875,0.90625
1630932136062,0.390625,-0.046875,0.90625
1630932136093,0.390625,-0.03125,0.90625
1630932136125,0.390625,-0.03125,0.90625
1630932136156,0.390625,-0.03125,0.90625
1630932136187,0.390625,-0.03125,0.90625
1630932136218,0.390625,-0.03125,0.90625
1630932136250,0.390625,-0.03125,0.90625
1630932136281,0.390625,-0.03125,0.90625
1630932136312,0.390625,-0.03125,0.90625
1630932136343,0.390625,-0.03125,0.90625
1630932136375,0.390625,-0.046875,0.90625
1630932136406,0.390625,-0.03125,0.90625
1630932136437,0.390625,-0.03125,0.90625
1630932136468,0.390625,-0.046875,0.90625
1630932136500,0.390625,-0.046875,0.90625
1630932136531,0.390625,-0.03125,0.90625
1630932136562,0.390625,-0.03125,0.90625
1630932136593,0.390625,-0.03125,0.90625
1630932136625,0.390625,-0.03125,0.90625
1630932136656,0.390625,-0.046875,0.90625
1630932136687,0.390625,-0.03125,0.90625
1630932136718,0.390625,-0.03125,0.90625
1630932136750,0.390625,-0.046875,0.90625
1630932136781,0.390625,-0.046875,0.90625
1630932136812,0.390625,-0.03125,0.90625
1630932136843,0.390625,-0.03125,0.90625
1630932136875,0.390625,-0.03125,0.90625
1630932136906,0.390625,-0.03125,0.90625
1630932136937,0.390625,-0.03125,0.90625
1630932136968,0.390625,-0.03125,0.90625
1630932137000,0.390625,-0.046875,0.90625
1630932137031,0.390625,-0.046875,0.90625
1630932137062,0.390625,-0.03125,0.90625
1630932137093,0.390625,-0.03125,0.90625
1630932137125,0.390625,-0.03125,0.90625
1630932137156,0.390625,-0.03125,0.90625
1630932137187,0.390625,-0.03125,0.90625
1630932137218,0.390625,-0.03125,0.90625
1630932137250,0.390625,-0.03125,0.90625
1630932137281,0.390625,-0.03125,0.90625
1630932137312,0.390625,-0.03125,0.90625
1630932137343,0.390625,-0.03125,0.90625
1630932137375,0.390625,-0.03125,0.90625
1630932137406,0.375,-0.03125,0.90625
1630932137437,0.390625,-0.03125,0.90625
1630932137468,0.390625,-0.03125,0.90625
1630932137500,0.390625,-0.046875,0.90625
1630932137531,0.390625,-0.03125,0.90625
1630932137562,0.390625,-0.03125,0.90625
1630932137593,0.390625,-0.046875,0.90625
1630932137625,0.390625,-0.046875,0.90625
1630932137656,0.390625,-0.03125,0.90625
1630932137687,0.390625,-0.03125,0.90625
1630932137718,0.375,-0.03125,0.90625
1630932137750,0.375,-0.03125,0.90625
1630932137781,0.375,-0.03125,0.90625
1630932137812,0.375,-0.03125,0.90625
1630932137843,0.375,-0.03125,0.90625
1630932137875,0.390625,-0.03125,0.90625
1630932137906,0.390625,-0.03125,0.90625
1630932137937,0.390625,-0.03125,0.90625
1630932137968,0.390625,-0.03125,0.90625
1630932138000,0.390625,-0.03125,0.90625
1630932138031,0.390625,-0.03125,0.90625
1630932138062,0.390625,-0.03125,0.90625
1630932138093,0.390625,-0.03125,0.90625
1630932138125,0.390625,-0.046875,0.90625
1630932138156,0.375,-0.03125,0.90625
1630932138187,0.375,-0.03125,0.90625
1630932138218,0.390625,-0.03125,0.90625
1630932138250,0.390625,-0.03125,0.90625
1630932138281,0.390625,-0.03125,0.90625
1630932138312,0.375,-0.046875,0.90625
1630932138343,0.390625,-0.046875,0.90625
1630932138375,0.390625,-0.03125,0.90625
1630932138406,0.390625,-0.03125,0.90625
1630932138437,0.390625,-0.03125,0.90625
1630932138468,0.390625,-0.046875,0.90625
1630932138500,0.390625,-0.03125,0.90625
1630932138531,0.390625,-0.046875,0.90625
1630932138562,0.390625,-0.046875,0.90625
1630932138593,0.390625,-0.046875,0.90625
1630932138625,0.390625,-0.03125,0.90625
1630932138656,0.390625,-0.03125,0.90625
1630932138687,0.375,-0.03125,0.90625
1630932138718,0.390625,-0.03125,0.90625
1630932138750,0.390625,-0.03125,0.90625
1630932138781,0.390625,-0.03125,0.90625
1630932138812,0.390625,-0.03125,0.90625
1630932138843,0.390625,-0.03125,0.90625
1630932138875,0.390625,-0.03125,0.90625
1630932138906,0.390625,-0.03125,0.90625
1630932138937,0.390625,-0.046875,0.90625
1630932138968,0.390625,-0.03125,0.90625
1630932139000,0.390625,-0.046875,0.90625
1630932139031,0.390625,-0.03125,0.90625
1630932139062,0.390625,-0.03125,0.90625
1630932139093,0.390625,-0.03125,0.90625
1630932139125,0.390625,-0.046875,0.90625
1630932139156,0.390625,-0.03125,0.90625
1630932139187,0.390625,-0.03125,0.90625
1630932139218,0.390625,-0.03125,0.90625
1630932139250,0.390625,-0.03125,0.90625
1630932139281,0.390625,-0.03125,0.90625
1630932139312,0.390625,-0.03125,0.90625
1630932139343,0.390625,-0.03125,0.90625
1630932139375,0.375,-0.046875,0.90625
1630932139406,0.390625,-0.046875,0.90625
1630932139437,0.390625,-0.03125,0.90625
1630932139468,0.390625,-0.03125,0.90625
1630932139500,0.375,-0.046875,0.90625
1630932139531,0.390625,-0.03125,0.90625
1630932139562,0.390625,-0.03125,0.90625
1630932139593,0.390625,-0.03125,0.90625
1630932139625,0.390625,-0.03125,0.90625
1630932139656,0.390625,-0.03125,0.90625
1630932139687,0.375,-0.03125,0.90625
1630932139718,0.390625,-0.03125,0.90625
1630932139750,0.375,-0.046875,0.90625
1630932139781,0.375,-0.046875,0.90625
1630932139812,0.390625,-0.03125,0.90625
1630932139843,0.390625,-0.03125,0.90625
1630932139875,0.375,-0.046875,0.90625
1630932139906,0.375,-0.03125,0.90625
1630932139937,0.375,-0.03125,0.90625
1630932139968,0.390625,-0.03125,0.90625
1630932140000,0.390625,-0.015625,0.90625
1630932140031,0.390625,-0.046875,0.90625
1630932140062,0.390625,-0.046875,0.90625
1630932140093,0.390625,-0.03125,0.90625
1630932140125,0.390625,-0.046875,0.90625
1630932140156,0.375,-0.046875,0.90625
1630932140187,0.375,-0.046875,0.90625
1630932140218,0.375,-0.03125,0.90625
1630932140250,0.390625,-0.03125,0.90625
1630932140281,0.40625,-0.03125,0.90625
1630932140312,0.390625,-0.03125,0.90625
1630932140343,0.375,-0.03125,0.90625
1630932140375,0.375,-0.03125,0.90625
1630932140406,0.375,-0.03125,0.90625
1630932140437,0.390625,-0.046875,0.90625
1630932140468,0.390625,-0.046875,0.90625
1630932140500,0.40625,-0.03125,0.921875
1630932140531,0.390625,-0.046875,0.90625
1630932140562,0.390625,-0.046875,0.90625
1630932140593,0.375,-0.046875,0.90625
1630932140625,0.390625,-0.03125,0.90625
1630932140656,0.390625,-0.03125,0.90625
1630932140687,0.390625,-0.046875,0.90625
1630932140718,0.390625,-0.046875,0.90625
1630932140750,0.390625,-0.03125,0.90625
1630932140781,0.390625,-0.03125,0.90625
1630932140812,0.390625,-0.03125,0.90625
1630932140843,0.390625,-0.03125,0.90625
1630932140875,0.390625,-0.03125,0.90625
1630932140906,0.375,-0.046875,0.90625
1630932140937,0.375,-0.046875,0.90625
1630932140968,0.390625,-0.046875,0.90625
1630932141000,0.390625,-0.046875,0.90625
1630932141031,0.390625,-0.046875,0.90625
1630932141062,0.375,-0.046875,0.90625
1630932141093,0.390625,-0.03125,0.90625
1630932141125,0.390625,-0.03125,0.90625
1630932141156,0.390625,-0.03125,0.90625
1630932141187,0.390625,-0.03125,0.90625
1630932141218,0.390625,-0.03125,0.90625
1630932141250,0.390625,-0.03125,0.90625
1630932141281,0.390625,-0.03125,0.90625
1630932141312,0.390625,-0.046875,0.90625
1630932141343,0.390625,-0.046875,0.90625
1630932141375,0.390625,-0.03125,0.90625
1630932141406,0.390625,-0.03125,0.90625
1630932141437,0.390625,-0.046875,0.90625
1630932141468,0.375,-0.046875,0.90625
1630932141500,0.375,-0.03125,0.90625
1630932141531,0.375,-0.03125,0.90625
1630932141562,0.390625,-0.03125,0.90625
1630932141593,0.390625,-0.03125,0.90625
1630932141625,0.390625,-0.03125,0.90625
1630932141656,0.390625,-0.03125,0.90625
1630932141687,0.390625,-0.03125,0.90625
1630932141718,0.390625,-0.03125,0.90625
1630932141750,0.375,-0.046875,0.90625
1630932141781,0.375,-0.046875,0.90625
1630932141812,0.390625,-0.03125,0.90625
1630932141843,0.390625,-0.03125,0.90625
1630932141875,0.390625,-0.03125,0.90625
1630932141906,0.375,-0.03125,0.90625
1630932141937,0.375,-0.03125,0.90625
1630932141968,0.375,-0.03125,0.90625
1630932142000,0.390625,-0.03125,0.90625
1630932142031,0.390625,-0.03125,0.90625
1630932142062,0.390625,-0.046875,0.90625
1630932142093,0.375,-0.03125,0.90625
1630932142125,0.390625,-0.046875,0.90625
1630932142156,0.390625,-0.046875,0.90625
1630932142187,0.375,-0.046875,0.90625
1630932142218,0.375,-0.046875,0.90625
1630932142250,0.390625,-0.03125,0.90625
1630932142281,0.375,-0.03125,0.90625
1630932142312,0.390625,-0.03125,0.90625
1630932142343,0.375,-0.03125,0.90625
1630932142375,0.375,-0.03125,0.90625
1630932142406,0.375,-0.03125,0.90625
1630932142437,0.390625,-0.046875,0.90625
1630932142468,0.390625,-0.046875,0.90625
1630932142500,0.390625,-0.03125,0.90625
1630932142531,0.390625,-0.03125,0.90625
1630932142562,0.375,-0.03125,0.90625
1630932142593,0.375,-0.03125,0.90625
1630932142625,0.375,-0.03125,0.90625
1630932142656,0.390625,-0.046875,0.90625
1630932142687,0.390625,-0.03125,0.90625
1630932142718,0.390625,-0.03125,0.90625
1630932142750,0.390625,-0.03125,0.90625
1630932142781,0.375,-0.046875,0.90625
1630932142812,0.375,-0.046875,0.90625
1630932142843,0.375,-0.046875,0.90625
1630932142875,0.375,-0.046875,0.90625
1630932142906,0.390625,-0.03125,0.90625
1630932142937,0.390625,-0.03125,0.90625
1630932142968,0.390625,-0.03125,0.90625
1630932143000,0.390625,-0.03125,0.90625
1630932143031,0.390625,-0.03125,0.90625
1630932143062,0.375,-0.03125,0.90625
1630932143093,0.375,-0.03125,0.90625
1630932143125,0.375,-0.03125,0.90625
1630932143156,0.390625,-0.03125,0.90625
1630932143187,0.375,-0.046875,0.90625
1630932143218,0.390625,-0.046875,0.90625
1630932143250,0.390625,-0.03125,0.90625
1630932143281,0.390625,-0.03125,0.90625
1630932143312,0.390625,-0.03125,0.90625
1630932143343,0.390625,-0.03125,0.90625
1630932143375,0.390625,-0.03125,0.90625
1630932143406,0.390625,-0.046875,0.90625
1630932143437,0.390625,-0.03125,0.90625
1630932143468,0.375,-0.03125,0.90625
1630932143500,0.375,-0.03125,0.90625
1630932143531,0.390625,-0.03125,0.90625
1630932143562,0.390625,-0.03125,0.90625
1630932143593,0.375,-0.03125,0.90625
1630932143625,0.390625,-0.03125,0.90625
1630932143656,0.390625,-0.03125,0.90625
1630932143687,0.375,-0.046875,0.90625
1630932143718,0.375,-0.03125,0.90625
1630932143750,0.390625,-0.03125,0.90625
1630932143781,0.390625,-0.03125,0.90625
1630932143812,0.375,-0.03125,0.90625
1630932143843,0.390625,-0.03125,0.90625
1630932143875,0.375,-0.03125,0.90625
1630932143906,0.390625,-0.03125,0.90625
1630932143937,0.40625,-0.03125,0.90625
1630932143968,0.375,-0.046875,0.90625
1630932144000,0.375,-0.046875,0.90625
1630932144031,0.375,-0.046875,0.90625
1630932144062,0.375,-0.03125,0.90625
1630932144093,0.390625,-0.03125,0.90625
1630932144125,0.390625,-0.03125,0.90625
1630932144156,0.390625,-0.03125,0.90625
1630932144187,0.390625,-0.03125,0.90625
1630932144218,0.390625,-0.03125,0.90625
1630932144250,0.390625,-0.03125,0.90625
1630932144281,0.390625,-0.03125,0.90625
1630932144312,0.390625,-0.03125,0.90625
1630932144343,0.390625,-0.03125,0.90625
1630932144375,0.390625,-0.03125,0.90625
1630932144406,0.375,-0.03125,0.90625
1630932144437,0.390625,-0.03125,0.90625
1630932144468,0.390625,-0.03125,0.90625
1630932144500,0.375,-0.046875,0.90625
1630932144531,0.390625,-0.03125,0.90625
1630932144562,0.390625,-0.03125,0.90625
1630932144593,0.390625,-0.03125,0.90625
1630932144625,0.390625,-0.046875,0.90625
1630932144656,0.375,-0.0625,0.90625
1630932144687,0.40625,-0.03125,0.90625
1630932144718,0.375,-0.03125,0.90625
1630932144750,0.375,-0.046875,0.90625
1630932144781,0.390625,-0.046875,0.90625
1630932144812,0.390625,-0.03125,0.90625
1630932144843,0.375,-0.03125,0.90625
1630932144875,0.375,-0.03125,0.90625
1630932144906,0.390625,-0.046875,0.90625
1630932144937,0.390625,-0.03125,0.90625
1630932144968,0.390625,-0.03125,0.90625
1630932145000,0.390625,-0.03125,0.90625
1630932145031,0.390625,-0.03125,0.90625
1630932145062,0.390625,-0.03125,0.90625
1630932145093,0.390625,-0.046875,0.90625
1630932145125,0.390625,-0.046875,0.90625
1630932145156,0.390625,-0.03125,0.90625
1630932145187,0.390625,-0.03125,0.90625
1630932145218,0.375,-0.03125,0.90625
1630932145250,0.390625,-0.03125,0.90625
1630932145281,0.390625,-0.03125,0.90625
1630932145312,0.390625,-0.03125,0.90625
1630932145343,0.390625,-0.03125,0.90625
1630932145375,0.390625,-0.03125,0.90625
1630932145406,0.375,-0.046875,0.90625
1630932145437,0.390625,-0.03125,0.90625
1630932145468,0.390625,-0.046875,0.90625
1630932145500,0.390625,-0.046875,0.90625
1630932145531,0.390625,-0.046875,0.90625
1630932145562,0.390625,-0.03125,0.90625
1630932145593,0.390625,-0.03125,0.90625
1630932145625,0.375,-0.03125,0.90625
1630932145656,0.375,-0.03125,0.90625
1630932145687,0.375,-0.03125,0.90625
1630932145718,0.375,-0.03125,0.90625
1630932145750,0.390625,-0.046875,0.90625
1630932145781,0.390625,-0.03125,0.90625
1630932145812,0.390625,-0.03125,0.90625
1630932145843,0.390625,-0.03125,0.90625
1630932145875,0.390625,-0.046875,0.90625
1630932145906,0.375,-0.046875,0.90625
1630932145937,0.390625,-0.046875,0.90625
1630932145968,0.390625,-0.046875,0.90625
1630932146000,0.390625,-0.03125,0.90625
1630932146031,0.40625,-0.03125,0.921875
1630932146062,0.421875,-0.03125,0.921875
1630932146093,0.40625,-0.046875,0.890625
1630932146125,0.375,-0.03125,0.890625
1630932146156,0.375,-0.046875,0.890625
1630932146187,0.375,-0.0625,0.9375
1630932146218,0.328125,-0.0625,0.9375
1630932146250,0.265625,-0.046875,0.9375
1630932146281,0.375,-0.0625,0.921875
1630932146312,0.375,-0.046875,0.921875
1630932146343,0.40625,-0.0625,0.90625
1630932146375,0.390625,-0.0625,0.90625
1630932146406,0.359375,-0.046875,0.921875
1630932146437,0.359375,-0.046875,0.921875
1630932146468,0.359375,-0.046875,0.90625
1630932146500,0.390625,-0.0625,0.90625
1630932146531,0.390625,-0.046875,0.90625
1630932146562,0.375,-0.046875,0.90625
1630932146593,0.359375,-0.046875,0.921875
1630932146625,0.34375,-0.0625,0.921875
1630932146656,0.375,-0.046875,0.90625
1630932146687,0.390625,-0.046875,0.90625
1630932146718,0.375,-0.046875,0.90625
1630932146750,0.375,-0.046875,0.90625
1630932146781,0.375,-0.046875,0.90625
1630932146812,0.390625,-0.046875,0.90625
1630932146843,0.375,-0.046875,0.90625
1630932146875,0.375,-0.046875,0.90625
1630932146906,0.375,-0.046875,0.90625
1630932146937,0.359375,-0.046875,0.90625
1630932146968,0.34375,-0.046875,0.90625
1630932147000,0.359375,-0.0625,0.921875
1630932147031,0.34375,-0.046875,0.90625
1630932147062,0.359375,-0.046875,0.9375
1630932147093,0.34375,-0.046875,0.90625
1630932147125,0.375,-0.046875,0.953125
1630932147156,0.296875,-0.0625,0.921875
1630932147187,0.328125,-0.0625,0.9375
1630932147218,0.34375,-0.046875,0.921875
1630932147250,0.359375,-0.046875,0.921875
1630932147281,0.359375,-0.046875,0.921875
1630932147312,0.34375,-0.046875,0.921875
1630932147343,0.34375,-0.046875,0.921875
1630932147375,0.359375,-0.0625,0.921875
1630932147406,0.34375,-0.0625,0.921875
1630932147437,0.359375,-0.0625,0.921875
1630932147468,0.328125,-0.03125,0.890625
1630932147500,0.375,-0.015625,0.890625
1630932147531,0.296875,-0.078125,0.9375
1630932147562,0.359375,-0.0625,0.921875
1630932147593,0.359375,-0.09375,0.953125
1630932147625,0.34375,-0.046875,0.921875
1630932147656,0.328125,-0.046875,0.921875
1630932147687,0.34375,-0.0625,0.9375
1630932147718,0.328125,-0.046875,0.921875
1630932147750,0.34375,-0.046875,0.921875
1630932147781,0.328125,-0.046875,0.9375
1630932147812,0.296875,-0.0625,0.921875
1630932147843,0.328125,-0.03125,0.921875
1630932147875,0.296875,-0.0625,0.90625
1630932147906,0.34375,-0.078125,0.921875
1630932147937,0.34375,-0.0625,0.921875
1630932147968,0.34375,-0.046875,0.921875
1630932148000,0.328125,-0.046875,0.90625
1630932148031,0.328125,-0.0625,0.921875
1630932148062,0.34375,-0.0625,0.921875
1630932148093,0.34375,-0.0625,0.921875
1630932148125,0.328125,-0.0625,0.921875
1630932148156,0.359375,-0.0625,0.921875
1630932148187,0.359375,-0.0625,0.921875
1630932148218,0.359375,-0.0625,0.921875
1630932148250,0.34375,-0.0625,0.921875
1630932148281,0.34375,-0.046875,0.921875
1630932148312,0.34375,-0.0625,0.921875
1630932148343,0.359375,-0.0625,0.921875
1630932148375,0.34375,-0.0625,0.921875
1630932148406,0.359375,-0.0625,0.921875
1630932148437,0.34375,-0.046875,0.921875
1630932148468,0.359375,-0.046875,0.921875
1630932148500,0.34375,-0.046875,0.921875
1630932148531,0.34375,-0.046875,0.921875
1630932148562,0.3125,-0.0625,0.921875
1630932148593,0.390625,-0.0625,0.921875
1630932148625,0.296875,-0.046875,0.921875
1630932148656,0.328125,-0.0625,0.921875
1630932148687,0.34375,-0.0625,0.921875
1630932148718,0.375,-0.046875,0.90625
1630932148750,0.359375,-0.046875,0.90625
1630932148781,0.359375,-0.0625,0.9375
1630932148812,0.328125,-0.046875,0.921875
1630932148843,0.34375,-0.0625,0.921875
1630932148875,0.34375,-0.0625,0.921875
1630932148906,0.390625,-0.046875,0.921875
1630932148937,0.34375,-0.03125,0.921875
1630932148968,0.328125,-0.0625,0.921875
1630932149000,0.359375,-0.0625,0.921875
1630932149031,0.34375,-0.046875,0.921875
1630932149062,0.34375,-0.046875,0.921875
1630932149093,0.34375,-0.046875,0.921875
1630932149125,0.34375,-0.0625,0.921875
1630932149156,0.34375,-0.046875,0.921875
1630932149187,0.359375,-0.046875,0.921875
1630932149218,0.34375,-0.0625,0.921875
1630932149250,0.34375,-0.0625,0.921875
1630932149281,0.359375,-0.046875,0.921875
1630932149312,0.34375,-0.046875,0.921875
1630932149343,0.34375,-0.046875,0.921875
1630932149375,0.34375,-0.0625,0.921875
1630932149406,0.34375,-0.046875,0.921875
1630932149437,0.34375,-0.046875,0.921875
1630932149468,0.34375,-0.0625,0.921875
1630932149500,0.359375,-0.0625,0.921875
1630932149531,0.34375,-0.0625,0.921875
1630932149562,0.34375,-0.046875,0.921875
1630932149593,0.34375,-0.046875,0.921875
1630932149625,0.34375,-0.0625,0.921875
1630932149656,0.34375,-0.0625,0.921875
1630932149687,0.359375,-0.0625,0.921875
1630932149718,0.359375,-0.046875,0.921875
1630932149750,0.359375,-0.0625,0.921875
1630932149781,0.40625,-0.046875,0.921875
1630932149812,0.328125,-0.03125,0.921875
1630932149843,0.328125,-0.046875,0.921875
1630932149875,0.34375,-0.0625,0.921875
1630932149906,0.359375,-0.0625,0.921875
1630932149937,0.359375,-0.046875,0.921875
1630932149968,0.34375,-0.0625,0.921875
1630932150000,0.34375,-0.0625,0.921875
1630932150031,0.359375,-0.046875,0.90625
1630932150062,0.359375,-0.046875,0.921875
1630932150093,0.34375,-0.0625,0.921875
1630932150125,0.34375,-0.0625,0.921875
1630932150156,0.359375,-0.046875,0.921875
1630932150187,0.359375,-0.046875,0.921875
1630932150218,0.359375,-0.046875,0.90625
1630932150250,0.359375,-0.046875,0.921875
1630932150281,0.359375,-0.046875,0.921875
1630932150312,0.359375,-0.046875,0.921875
1630932150343,0.359375,-0.046875,0.90625
1630932150375,0.359375,-0.046875,0.921875
1630932150406,0.359375,-0.046875,0.921875
1630932150437,0.359375,-0.046875,0.921875
1630932150468,0.359375,-0.046875,0.90625
1630932150500,0.359375,-0.046875,0.921875
1630932150531,0.359375,-0.046875,0.90625
1630932150562,0.359375,-0.046875,0.90625
1630932150593,0.359375,-0.046875,0.921875
1630932150625,0.359375,-0.046875,0.921875
1630932150656,0.359375,-0.046875,0.921875
1630932150687,0.359375,-0.046875,0.90625
1630932150718,0.375,-0.046875,0.921875
1630932150750,0.359375,-0.046875,0.90625
1630932150781,0.359375,-0.046875,0.921875
1630932150812,0.359375,-0.046875,0.90625
1630932150843,0.359375,-0.046875,0.921875
1630932150875,0.359375,-0.046875,0.90625
1630932150906,0.359375,-0.046875,0.921875
1630932150937,0.359375,-0.046875,0.90625
1630932150968,0.359375,-0.0625,0.90625
1630932151000,0.359375,-0.046875,0.90625
1630932151031,0.375,-0.046875,0.90625
1630932151062,0.359375,-0.0625,0.90625
1630932151093,0.359375,-0.0625,0.90625
1630932151125,0.375,-0.046875,0.90625
1630932151156,0.359375,-0.046875,0.90625
1630932151187,0.359375,-0.046875,0.90625
1630932151218,0.359375,-0.046875,0.921875
1630932151250,0.359375,-0.0625,0.921875
1630932151281,0.359375,-0.046875,0.921875
1630932151312,0.359375,-0.046875,0.921875
1630932151343,0.359375,-0.0625,0.921875
1630932151375,0.359375,-0.0625,0.90625
1630932151406,0.359375,-0.046875,0.90625
1630932151437,0.359375,-0.046875,0.921875
1630932151468,0.359375,-0.046875,0.90625
1630932151500,0.375,-0.046875,0.921875
1630932151531,0.34375,-0.046875,0.921875
1630932151562,0.359375,-0.0625,0.921875
1630932151593,0.375,-0.046875,0.921875
1630932151625,0.375,-0.046875,0.90625
1630932151656,0.359375,-0.046875,0.90625
1630932151687,0.359375,-0.0625,0.90625
1630932151718,0.359375,-0.0625,0.921875
1630932151750,0.359375,-0.0625,0.90625
1630932151781,0.359375,-0.046875,0.90625
1630932151812,0.359375,-0.0625,0.921875
1630932151843,0.34375,-0.046875,0.90625
1630932151875,0.375,-0.046875,0.90625
1630932151906,0.359375,-0.046875,0.90625
1630932151937,0.359375,-0.0625,0.921875
1630932151968,0.359375,-0.046875,0.921875
1630932152000,0.359375,-0.046875,0.90625
1630932152031,0.375,-0.0625,0.90625
1630932152062,0.375,-0.0625,0.90625
1630932152093,0.375,-0.046875,0.90625
1630932152125,0.375,-0.046875,0.90625
1630932152156,0.359375,-0.046875,0.921875
1630932152187,0.359375,-0.0625,0.90625
1630932152218,0.375,-0.046875,0.90625
1630932152250,0.375,-0.046875,0.90625
1630932152281,0.359375,-0.046875,0.90625
1630932152312,0.359375,-0.046875,0.90625
1630932152343,0.375,-0.046875,0.921875
1630932152375,0.359375,-0.046875,0.90625
1630932152406,0.375,-0.046875,0.90625
1630932152437,0.359375,-0.0625,0.921875
1630932152468,0.359375,-0.046875,0.90625
1630932152500,0.375,-0.046875,0.921875
1630932152531,0.34375,-0.0625,0.90625
1630932152562,0.34375,-0.0625,0.921875
1630932152593,0.375,-0.046875,0.90625
1630932152625,0.40625,-0.046875,0.90625
1630932152656,0.359375,-0.046875,0.921875
1630932152687,0.34375,-0.046875,0.921875
1630932152718,0.34375,-0.0625,0.90625
1630932152750,0.390625,-0.0625,0.90625
1630932152781,0.375,-0.0625,0.90625
1630932152812,0.34375,-0.046875,0.921875
1630932152843,0.359375,-0.046875,0.90625
1630932152875,0.359375,-0.0625,0.921875
1630932152906,0.359375,-0.046875,0.90625
1630932152937,0.359375,-0.046875,0.921875
1630932152968,0.359375,-0.046875,0.921875
1630932153000,0.375,-0.046875,0.921875
1630932153031,0.359375,-0.046875,0.921875
1630932153062,0.375,-0.046875,0.90625
1630932153093,0.359375,-0.046875,0.90625
1630932153125,0.359375,-0.046875,0.90625
1630932153156,0.359375,-0.046875,0.90625
1630932153187,0.359375,-0.046875,0.90625
1630932153218,0.359375,-0.046875,0.90625
1630932153250,0.375,-0.046875,0.90625
1630932153281,0.375,-0.0625,0.90625
1630932153312,0.359375,-0.046875,0.90625
1630932153343,0.375,-0.046875,0.90625
1630932153375,0.359375,-0.046875,0.90625
1630932153406,0.359375,-0.0625,0.90625
1630932153437,0.375,-0.046875,0.90625
1630932153468,0.359375,-0.046875,0.90625
1630932153500,0.359375,-0.046875,0.90625
1630932153531,0.375,-0.046875,0.90625
1630932153562,0.359375,-0.046875,0.921875
1630932153593,0.375,-0.046875,0.90625
1630932153625,0.375,-0.046875,0.90625
1630932153656,0.359375,-0.046875,0.90625
1630932153687,0.40625,-0.046875,0.90625
1630932153718,0.359375,-0.0625,0.90625
1630932153750,0.359375,-0.0625,0.90625
1630932153781,0.375,-0.046875,0.90625
1630932153812,0.375,-0.046875,0.90625
1630932153843,0.359375,-0.046875,0.90625
1630932153875,0.390625,-0.046875,0.921875
1630932153906,0.375,-0.046875,0.90625
1630932153937,0.359375,-0.046875,0.90625
1630932153968,0.375,-0.046875,0.90625
1630932154000,0.359375,-0.0625,0.90625
1630932154031,0.40625,-0.046875,0.90625
1630932154062,0.390625,-0.046875,0.90625
1630932154093,0.34375,-0.0625,0.90625
1630932154125,0.359375,-0.0625,0.921875
1630932154156,0.375,-0.046875,0.90625
1630932154187,0.375,-0.0625,0.90625
1630932154218,0.375,-0.046875,0.90625
1630932154250,0.359375,-0.046875,0.90625
1630932154281,0.390625,-0.046875,0.90625
1630932154312,0.375,-0.046875,0.90625
1630932154343,0.375,-0.0625,0.90625
1630932154375,0.359375,-0.0625,0.90625
1630932154406,0.359375,-0.046875,0.90625
1630932154437,0.359375,-0.0625,0.921875
1630932154468,0.375,-0.0625,0.90625
1630932154500,0.375,-0.046875,0.90625
1630932154531,0.375,-0.0625,0.90625
1630932154562,0.375,-0.046875,0.90625
1630932154593,0.359375,-0.0625,0.90625
1630932154625,0.359375,-0.0625,0.90625
1630932154656,0.375,-0.046875,0.90625
1630932154687,0.375,-0.046875,0.90625
1630932154718,0.375,-0.046875,0.90625
1630932154750,0.359375,-0.046875,0.90625
1630932154781,0.375,-0.0625,0.90625
1630932154812,0.375,-0.046875,0.90625
1630932154843,0.375,-0.046875,0.921875
1630932154875,0.34375,-0.046875,0.90625
1630932154906,0.359375,-0.0625,0.90625
1630932154937,0.375,-0.0625,0.90625
1630932154968,0.375,-0.0625,0.90625
1630932155000,0.375,-0.046875,0.90625
1630932155031,0.390625,-0.046875,0.921875
1630932155062,0.359375,-0.046875,0.90625
1630932155093,0.34375,-0.046875,0.90625
1630932155125,0.375,-0.046875,0.90625
1630932155156,0.390625,-0.046875,0.90625
1630932155187,0.375,-0.046875,0.921875
1630932155218,0.375,-0.046875,0.90625
1630932155250,0.375,-0.046875,0.90625
1630932155281,0.375,-0.0625,0.921875
1630932155312,0.359375,-0.046875,0.90625
1630932155343,0.375,-0.046875,0.90625
1630932155375,0.390625,-0.046875,0.90625
1630932155406,0.375,-0.046875,0.90625
1630932155437,0.359375,-0.046875,0.90625
1630932155468,0.375,-0.046875,0.90625
1630932155500,0.375,-0.046875,0.90625
1630932155531,0.375,-0.046875,0.90625
1630932155562,0.375,-0.046875,0.90625
1630932155593,0.375,-0.046875,0.921875
1630932155625,0.359375,-0.046875,0.90625
1630932155656,0.359375,-0.0625,0.90625
1630932155687,0.375,-0.046875,0.90625
1630932155718,0.359375,-0.046875,0.921875
1630932155750,0.375,-0.046875,0.90625
1630932155781,0.375,-0.046875,0.90625
1630932155812,0.375,-0.0625,0.90625
1630932155843,0.375,-0.046875,0.90625
1630932155875,0.375,-0.046875,0.921875
1630932155906,0.359375,-0.0625,0.90625
1630932155937,0.328125,-0.03125,0.921875
1630932155968,0.34375,-0.0625,0.90625
1630932156000,0.359375,-0.0625,0.921875
1630932156031,0.40625,-0.046875,0.921875
1630932156062,0.390625,-0.0625,0.90625
1630932156093,0.359375,-0.046875,0.921875
1630932156125,0.359375,-0.046875,0.90625
1630932156156,0.390625,-0.046875,0.90625
1630932156187,0.40625,-0.046875,0.921875
1630932156218,0.328125,-0.046875,0.921875
1630932156250,0.34375,-0.0625,0.921875
1630932156281,0.359375,-0.0625,0.90625
1630932156312,0.375,-0.046875,0.90625
1630932156343,0.375,-0.046875,0.90625
1630932156375,0.375,-0.046875,0.90625
1630932156406,0.375,-0.046875,0.90625
1630932156437,0.359375,-0.0625,0.90625
1630932156468,0.375,-0.046875,0.90625
1630932156500,0.375,-0.046875,0.90625
1630932156531,0.375,-0.046875,0.90625
1630932156562,0.375,-0.046875,0.90625
1630932156593,0.375,-0.046875,0.90625
1630932156625,0.375,-0.046875,0.90625
1630932156656,0.375,-0.046875,0.90625
1630932156687,0.375,-0.046875,0.90625
1630932156718,0.375,-0.046875,0.90625
1630932156750,0.375,-0.046875,0.90625
1630932156781,0.375,-0.046875,0.90625
1630932156812,0.375,-0.046875,0.90625
1630932156843,0.390625,-0.046875,0.90625
1630932156875,0.359375,-0.046875,0.90625
1630932156906,0.375,-0.046875,0.921875
1630932156937,0.375,-0.046875,0.90625
1630932156968,0.375,-0.046875,0.90625
1630932157000,0.375,-0.046875,0.90625
1630932157031,0.375,-0.046875,0.90625
1630932157062,0.375,-0.046875,0.90625
1630932157093,0.375,-0.046875,0.90625
1630932157125,0.375,-0.046875,0.90625
1630932157156,0.375,-0.046875,0.90625
1630932157187,0.375,-0.046875,0.90625
1630932157218,0.375,-0.046875,0.90625
1630932157250,0.375,-0.046875,0.90625
1630932157281,0.375,-0.046875,0.90625
1630932157312,0.359375,-0.046875,0.90625
1630932157343,0.375,-0.046875,0.90625
1630932157375,0.375,-0.046875,0.90625
1630932157406,0.375,-0.046875,0.90625
1630932157437,0.375,-0.046875,0.90625
1630932157468,0.375,-0.046875,0.90625
1630932157500,0.375,-0.046875,0.90625
1630932157531,0.375,-0.046875,0.90625
1630932157562,0.375,-0.046875,0.90625
1630932157593,0.375,-0.046875,0.90625
1630932157625,0.375,-0.046875,0.90625
1630932157656,0.375,-0.046875,0.90625
1630932157687,0.375,-0.046875,0.90625
1630932157718,0.375,-0.046875,0.90625
1630932157750,0.375,-0.046875,0.90625
1630932157781,0.375,-0.046875,0.90625
1630932157812,0.375,-0.046875,0.90625
1630932157843,0.375,-0.046875,0.90625
1630932157875,0.375,-0.046875,0.90625
1630932157906,0.375,-0.046875,0.921875
1630932157937,0.375,-0.046875,0.90625
1630932157968,0.375,-0.046875,0.90625
1630932158000,0.375,-0.046875,0.90625
1630932158031,0.375,-0.046875,0.90625
1630932158062,0.375,-0.046875,0.90625
1630932158093,0.375,-0.046875,0.90625
1630932158125,0.375,-0.046875,0.921875
1630932158156,0.375,-0.046875,0.90625
1630932158187,0.375,-0.046875,0.90625
1630932158218,0.375,-0.046875,0.90625
1630932158250,0.375,-0.046875,0.90625
1630932158281,0.375,-0.046875,0.90625
1630932158312,0.375,-0.046875,0.90625
1630932158343,0.375,-0.046875,0.90625
1630932158375,0.375,-0.046875,0.90625
1630932158406,0.375,-0.046875,0.90625
1630932158437,0.375,-0.046875,0.921875
1630932158468,0.359375,-0.046875,0.90625
1630932158500,0.359375,-0.03125,0.90625
1630932158531,0.359375,-0.046875,0.921875
1630932158562,0.359375,-0.046875,0.90625
1630932158593,0.359375,-0.046875,0.90625
1630932158625,0.359375,-0.046875,0.921875
1630932158656,0.359375,-0.03125,0.921875
1630932158687,0.359375,-0.03125,0.921875
1630932158718,0.359375,-0.046875,0.921875
1630932158750,0.359375,-0.046875,0.921875
1630932158781,0.359375,-0.046875,0.921875
1630932158812,0.359375,-0.046875,0.921875
1630932158843,0.359375,-0.046875,0.921875
1630932158875,0.359375,-0.03125,0.921875
1630932158906,0.359375,-0.03125,0.921875
1630932158937,0.359375,-0.03125,0.90625
1630932158968,0.359375,-0.03125,0.921875
1630932159000,0.375,-0.03125,0.90625
1630932159031,0.359375,-0.03125,0.90625
1630932159062,0.34375,-0.046875,0.9375
1630932159093,0.265625,-0.0625,0.921875
1630932159125,0.359375,-0.046875,0.921875
1630932159156,0.359375,-0.015625,0.890625
1630932159187,0.453125,0.0,0.890625
1630932159218,0.46875,-0.03125,0.859375
1630932159250,0.453125,-0.03125,0.875
1630932159281,0.484375,0.015625,0.859375
1630932159312,0.53125,0.015625,0.828125
1630932159343,0.53125,-0.015625,0.84375
1630932159375,0.5,0.03125,0.859375
1630932159406,0.484375,0.015625,0.828125
1630932159437,0.578125,-0.015625,0.8125
1630932159468,0.5625,-0.015625,0.8125
1630932159500,0.515625,0.0,0.8125
1630932159531,0.578125,0.015625,0.796875
1630932159562,0.578125,0.046875,0.765625
1630932159593,0.609375,0.0625,0.765625
1630932159625,0.65625,0.03125,0.8125
1630932159656,0.59375,0.015625,0.78125
1630932159687,0.578125,0.015625,0.765625
1630932159718,0.609375,0.0,0.8125
1630932159750,0.515625,-0.046875,0.875
1630932159781,0.0,-0.03125,0.953125
1630932159812,-0.015625,-0.078125,1.078125
1630932159843,0.34375,-0.046875,1.015625
1630932159875,0.4375,-0.015625,0.90625
1630932159906,0.421875,-0.03125,0.859375
1630932159937,0.4375,-0.078125,0.859375
1630932159968,0.4375,-0.078125,0.859375
1630932160000,0.453125,-0.09375,0.921875
1630932160031,0.359375,-0.078125,0.9375
1630932160062,0.328125,-0.078125,0.921875
1630932160093,0.46875,0.0,0.84375
1630932160125,0.421875,-0.046875,0.859375
1630932160156,0.453125,-0.046875,0.875
1630932160187,0.5,-0.09375,0.875
1630932160218,0.453125,-0.078125,0.859375
1630932160250,0.453125,-0.0625,0.875
1630932160281,0.46875,-0.078125,0.875
1630932160312,0.4375,-0.0625,0.875
1630932160343,0.453125,-0.0625,0.875
1630932160375,0.46875,-0.0625,0.875
1630932160406,0.46875,-0.078125,0.875
1630932160437,0.46875,-0.078125,0.875
1630932160468,0.453125,-0.0625,0.875
1630932160500,0.46875,-0.078125,0.875
1630932160531,0.46875,-0.078125,0.859375
1630932160562,0.46875,-0.078125,0.875
1630932160593,0.46875,-0.078125,0.875
1630932160625,0.46875,-0.0625,0.875
1630932160656,0.453125,-0.0625,0.859375
1630932160687,0.46875,-0.046875,0.859375
1630932160718,0.484375,-0.0625,0.859375
1630932160750,0.46875,-0.09375,0.875
1630932160781,0.453125,-0.09375,0.875
1630932160812,0.453125,-0.09375,0.875
1630932160843,0.453125,-0.09375,0.875
1630932160875,0.453125,-0.078125,0.859375
1630932160906,0.46875,-0.0625,0.859375
1630932160937,0.484375,-0.0625,0.859375
1630932160968,0.484375,-0.0625,0.859375
1630932161000,0.46875,-0.0625,0.875
1630932161031,0.453125,-0.078125,0.875
1630932161062,0.453125,-0.09375,0.875
1630932161093,0.453125,-0.09375,0.875
1630932161125,0.46875,-0.078125,0.859375
1630932161156,0.46875,-0.078125,0.859375
1630932161187,0.484375,-0.0625,0.859375
1630932161218,0.46875,-0.0625,0.875
1630932161250,0.46875,-0.0625,0.875
1630932161281,0.46875,-0.0625,0.875
1630932161312,0.46875,-0.078125,0.859375
1630932161343,0.46875,-0.078125,0.875
1630932161375,0.46875,-0.09375,0.859375
1630932161406,0.484375,-0.078125,0.859375
1630932161437,0.484375,-0.078125,0.859375
1630932161468,0.46875,-0.078125,0.859375
1630932161500,0.46875,-0.078125,0.859375
1630932161531,0.46875,-0.078125,0.859375
1630932161562,0.46875,-0.078125,0.859375
1630932161593,0.46875,-0.078125,0.859375
1630932161625,0.484375,-0.078125,0.875
1630932161656,0.484375,-0.078125,0.859375
1630932161687,0.46875,-0.078125,0.875
1630932161718,0.453125,-0.078125,0.875
1630932161750,0.484375,-0.078125,0.859375
1630932161781,0.46875,-0.078125,0.859375
1630932161812,0.46875,-0.0625,0.859375
1630932161843,0.46875,-0.0625,0.859375
1630932161875,0.46875,-0.0625,0.875
1630932161906,0.46875,-0.078125,0.859375
1630932161937,0.46875,-0.078125,0.875
1630932161968,0.46875,-0.078125,0.859375
1630932162000,0.46875,-0.078125,0.859375
1630932162031,0.46875,-0.078125,0.859375
1630932162062,0.46875,-0.078125,0.859375
1630932162093,0.484375,-0.078125,0.84375
1630932162125,0.46875,-0.109375,0.859375
1630932162156,0.5,-0.09375,0.84375
1630932162187,0.484375,-0.078125,0.859375
1630932162218,0.484375,-0.078125,0.875
1630932162250,0.46875,-0.078125,0.875
1630932162281,0.46875,-0.078125,0.859375
1630932162312,0.46875,-0.078125,0.859375
1630932162343,0.46875,-0.078125,0.859375
1630932162375,0.484375,-0.078125,0.859375
1630932162406,0.5,-0.078125,0.859375
1630932162437,0.484375,-0.078125,0.859375
1630932162468,0.46875,-0.078125,0.859375
1630932162500,0.484375,-0.078125,0.859375
1630932162531,0.484375,-0.078125,0.859375
1630932162562,0.46875,-0.078125,0.859375
1630932162593,0.484375,-0.078125,0.859375
1630932162625,0.46875,-0.078125,0.859375
1630932162656,0.46875,-0.078125,0.859375
1630932162687,0.484375,-0.078125,0.859375
1630932162718,0.484375,-0.078125,0.859375
1630932162750,0.46875,-0.078125,0.859375
1630932162781,0.46875,-0.078125,0.859375
1630932162812,0.484375,-0.078125,0.859375
1630932162843,0.484375,-0.078125,0.859375
1630932162875,0.46875,-0.078125,0.875
1630932162906,0.46875,-0.0625,0.859375
1630932162937,0.46875,-0.0625,0.859375
1630932162968,0.46875,-0.0625,0.859375
1630932163000,0.46875,-0.078125,0.859375
1630932163031,0.46875,-0.078125,0.859375
1630932163062,0.46875,-0.078125,0.859375
1630932163093,0.46875,-0.078125,0.859375
1630932163125,0.46875,-0.078125,0.859375
1630932163156,0.46875,-0.078125,0.859375
1630932163187,0.46875,-0.078125,0.875
1630932163218,0.46875,-0.078125,0.859375
1630932163250,0.46875,-0.078125,0.859375
1630932163281,0.46875,-0.078125,0.875
1630932163312,0.46875,-0.0625,0.859375
1630932163343,0.46875,-0.078125,0.859375
1630932163375,0.46875,-0.078125,0.875
1630932163406,0.46875,-0.078125,0.875
1630932163437,0.46875,-0.0625,0.875
1630932163468,0.46875,-0.078125,0.875
1630932163500,0.46875,-0.078125,0.859375
1630932163531,0.46875,-0.078125,0.859375
1630932163562,0.46875,-0.078125,0.859375
1630932163593,0.46875,-0.078125,0.875
1630932163625,0.46875,-0.0625,0.859375
1630932163656,0.46875,-0.078125,0.875
1630932163687,0.46875,-0.078125,0.859375
1630932163718,0.453125,-0.078125,0.875
1630932163750,0.46875,-0.078125,0.875
1630932163781,0.46875,-0.078125,0.875
1630932163812,0.46875,-0.078125,0.875
1630932163843,0.46875,-0.0625,0.875
1630932163875,0.46875,-0.0625,0.859375
1630932163906,0.46875,-0.0625,0.875
1630932163937,0.46875,-0.078125,0.859375
1630932163968,0.46875,-0.078125,0.875
1630932164000,0.46875,-0.078125,0.875
1630932164031,0.46875,-0.078125,0.875
1630932164062,0.46875,-0.078125,0.875
1630932164093,0.46875,-0.078125,0.875
1630932164125,0.46875,-0.0625,0.875
1630932164156,0.46875,-0.0625,0.859375
1630932164187,0.46875,-0.078125,0.875
1630932164218,0.46875,-0.078125,0.875
1630932164250,0.46875,-0.078125,0.875
1630932164281,0.46875,-0.078125,0.875
1630932164312,0.46875,-0.078125,0.859375
1630932164343,0.453125,-0.0625,0.875
1630932164375,0.46875,-0.078125,0.875
1630932164406,0.46875,-0.078125,0.859375
1630932164437,0.46875,-0.078125,0.859375
1630932164468,0.46875,-0.0625,0.875
1630932164500,0.46875,-0.078125,0.875
1630932164531,0.46875,-0.078125,0.875
1630932164562,0.46875,-0.078125,0.875
1630932164593,0.46875,-0.078125,0.875
1630932164625,0.453125,-0.078125,0.875
1630932164656,0.46875,-0.0625,0.875
1630932164687,0.46875,-0.0625,0.859375
1630932164718,0.46875,-0.078125,0.859375
1630932164750,0.46875,-0.078125,0.859375
1630932164781,0.46875,-0.078125,0.859375
1630932164812,0.46875,-0.078125,0.875
1630932164843,0.46875,-0.078125,0.875
1630932164875,0.46875,-0.078125,0.859375
1630932164906,0.46875,-0.0625,0.875
1630932164937,0.46875,-0.078125,0.875
1630932164968,0.46875,-0.078125,0.859375
1630932165000,0.46875,-0.0625,0.875
1630932165031,0.453125,-0.078125,0.875
1630932165062,0.46875,-0.078125,0.859375
1630932165093,0.46875,-0.078125,0.875
1630932165125,0.46875,-0.078125,0.875
1630932165156,0.453125,-0.0625,0.859375
1630932165187,0.46875,-0.0625,0.875
1630932165218,0.46875,-0.078125,0.875
1630932165250,0.46875,-0.078125,0.875
1630932165281,0.46875,-0.0625,0.859375
1630932165312,0.453125,-0.0625,0.875
1630932165343,0.46875,-0.078125,0.875
1630932165375,0.46875,-0.078125,0.875
1630932165406,0.46875,-0.078125,0.859375
1630932165437,0.453125,-0.0625,0.875
1630932165468,0.46875,-0.078125,0.875
1630932165500,0.46875,-0.078125,0.875
1630932165531,0.46875,-0.078125,0.875
1630932165562,0.453125,-0.078125,0.875
1630932165593,0.46875,-0.078125,0.875
1630932165625,0.46875,-0.078125,0.875
1630932165656,0.46875,-0.078125,0.859375
1630932165687,0.46875,-0.0625,0.875
1630932165718,0.453125,-0.0625,0.875
1630932165750,0.46875,-0.078125,0.875
1630932165781,0.46875,-0.078125,0.875
1630932165812,0.46875,-0.078125,0.875
1630932165843,0.46875,-0.078125,0.875
1630932165875,0.46875,-0.0625,0.875
1630932165906,0.46875,-0.078125,0.875
1630932165937,0.46875,-0.078125,0.875
1630932165968,0.46875,-0.0625,0.875
1630932166000,0.46875,-0.078125,0.875
1630932166031,0.46875,-0.078125,0.859375
1630932166062,0.46875,-0.078125,0.875
1630932166093,0.46875,-0.078125,0.875
1630932166125,0.46875,-0.078125,0.875
1630932166156,0.46875,-0.078125,0.875
1630932166187,0.453125,-0.078125,0.859375
1630932166218,0.46875,-0.078125,0.859375
1630932166250,0.46875,-0.0625,0.859375
1630932166281,0.46875,-0.0625,0.875
1630932166312,0.46875,-0.078125,0.859375
1630932166343,0.46875,-0.078125,0.859375
1630932166375,0.46875,-0.078125,0.875
1630932166406,0.46875,-0.0625,0.875
1630932166437,0.453125,-0.078125,0.875
1630932166468,0.46875,-0.078125,0.859375
1630932166500,0.453125,-0.0625,0.875
1630932166531,0.453125,-0.0625,0.875
1630932166562,0.46875,-0.078125,0.875
1630932166593,0.46875,-0.078125,0.875
1630932166625,0.46875,-0.078125,0.859375
1630932166656,0.46875,-0.0625,0.859375
1630932166687,0.46875,-0.0625,0.875
1630932166718,0.46875,-0.078125,0.859375
1630932166750,0.46875,-0.078125,0.875
1630932166781,0.46875,-0.078125,0.875
1630932166812,0.453125,-0.0625,0.875
1630932166843,0.46875,-0.0625,0.875
1630932166875,0.46875,-0.078125,0.875
1630932166906,0.46875,-0.078125,0.859375
1630932166937,0.46875,-0.078125,0.875
1630932166968,0.46875,-0.078125,0.875
1630932167000,0.46875,-0.078125,0.875
1630932167031,0.46875,-0.078125,0.875
1630932167062,0.46875,-0.078125,0.859375
1630932167093,0.46875,-0.0625,0.875
1630932167125,0.46875,-0.078125,0.875
1630932167156,0.46875,-0.078125,0.875
1630932167187,0.46875,-0.078125,0.875
1630932167218,0.46875,-0.0625,0.875
1630932167250,0.46875,-0.078125,0.859375
1630932167281,0.46875,-0.078125,0.859375
1630932167312,0.46875,-0.078125,0.875
1630932167343,0.453125,-0.0625,0.875
1630932167375,0.46875,-0.078125,0.875
1630932167406,0.46875,-0.078125,0.875
1630932167437,0.46875,-0.078125,0.859375
1630932167468,0.46875,-0.0625,0.875
1630932167500,0.46875,-0.078125,0.875
1630932167531,0.46875,-0.0625,0.875
1630932167562,0.46875,-0.078125,0.875
1630932167593,0.46875,-0.0625,0.875
1630932167625,0.46875,-0.078125,0.859375
1630932167656,0.46875,-0.0625,0.859375
1630932167687,0.46875,-0.078125,0.875
1630932167718,0.46875,-0.078125,0.875
1630932167750,0.46875,-0.078125,0.859375
1630932167781,0.46875,-0.0625,0.875
1630932167812,0.46875,-0.0625,0.875
1630932167843,0.453125,-0.078125,0.875
1630932167875,0.46875,-0.078125,0.875
1630932167906,0.453125,-0.0625,0.875
1630932167937,0.46875,-0.0625,0.859375
1630932167968,0.46875,-0.078125,0.875
1630932168000,0.46875,-0.078125,0.875
1630932168031,0.453125,-0.0625,0.859375
1630932168062,0.453125,-0.0625,0.875
1630932168093,0.46875,-0.0625,0.875
1630932168125,0.46875,-0.0625,0.875
1630932168156,0.453125,-0.0625,0.875
1630932168187,0.46875,-0.078125,0.875
1630932168218,0.46875,-0.078125,0.859375
1630932168250,0.46875,-0.0625,0.859375
1630932168281,0.453125,-0.078125,0.859375
1630932168312,0.484375,-0.0625,0.875
1630932168343,0.46875,-0.0625,0.875
1630932168375,0.484375,-0.078125,0.84375
1630932168406,0.453125,-0.09375,0.875
1630932168437,0.453125,-0.0625,0.875
1630932168468,0.453125,-0.078125,0.875
1630932168500,0.46875,-0.0625,0.859375
1630932168531,0.46875,-0.0625,0.84375
1630932168562,0.5,-0.078125,0.859375
1630932168593,0.484375,-0.078125,0.875
1630932168625,0.453125,-0.09375,0.875
1630932168656,0.46875,-0.09375,0.859375
1630932168687,0.484375,-0.09375,0.84375
1630932168718,0.484375,-0.078125,0.859375
1630932168750,0.46875,-0.078125,0.859375
1630932168781,0.46875,-0.0625,0.875
1630932168812,0.46875,-0.0625,0.875
1630932168843,0.453125,-0.078125,0.859375
1630932168875,0.46875,-0.078125,0.859375
1630932168906,0.46875,-0.078125,0.875
1630932168937,0.453125,-0.078125,0.875
1630932168968,0.46875,-0.078125,0.875
1630932169000,0.453125,-0.0625,0.875
1630932169031,0.46875,-0.0625,0.859375
1630932169062,0.5,-0.0625,0.859375
1630932169093,0.5,-0.0625,0.84375
1630932169125,0.484375,-0.078125,0.859375
1630932169156,0.5,-0.0625,0.859375
1630932169187,0.484375,-0.078125,0.875
1630932169218,0.453125,-0.09375,0.875
1630932169250,0.4375,-0.078125,0.890625
1630932169281,0.453125,-0.078125,0.875
1630932169312,0.453125,-0.078125,0.875
1630932169343,0.453125,-0.0625,0.875
1630932169375,0.453125,-0.078125,0.875
1630932169406,0.453125,-0.078125,0.875
1630932169437,0.4375,-0.078125,0.875
1630932169468,0.453125,-0.078125,0.875
1630932169500,0.453125,-0.078125,0.875
1630932169531,0.453125,-0.078125,0.875
1630932169562,0.4375,-0.078125,0.875
1630932169593,0.453125,-0.078125,0.875
1630932169625,0.4375,-0.078125,0.875
1630932169656,0.4375,-0.078125,0.875
1630932169687,0.4375,-0.078125,0.875
1630932169718,0.4375,-0.078125,0.875
1630932169750,0.4375,-0.078125,0.875
1630932169781,0.4375,-0.078125,0.875
1630932169812,0.453125,-0.078125,0.875
1630932169843,0.4375,-0.078125,0.875
1630932169875,0.453125,-0.0625,0.875
1630932169906,0.421875,-0.0625,0.875
1630932169937,0.4375,-0.078125,0.890625
1630932169968,0.421875,-0.078125,0.890625
1630932170000,0.453125,-0.078125,0.875
1630932170031,0.4375,-0.078125,0.875
1630932170062,0.453125,-0.0625,0.875
1630932170093,0.4375,-0.0625,0.875
1630932170125,0.4375,-0.078125,0.875
1630932170156,0.4375,-0.078125,0.875
1630932170187,0.4375,-0.078125,0.875
1630932170218,0.4375,-0.078125,0.875
1630932170250,0.4375,-0.078125,0.875
1630932170281,0.4375,-0.078125,0.890625
1630932170312,0.4375,-0.078125,0.875
1630932170343,0.4375,-0.078125,0.890625
1630932170375,0.4375,-0.078125,0.875
1630932170406,0.4375,-0.078125,0.875
1630932170437,0.453125,-0.078125,0.875
1630932170468,0.4375,-0.078125,0.875
1630932170500,0.4375,-0.078125,0.875
1630932170531,0.4375,-0.078125,0.875
1630932170562,0.4375,-0.078125,0.890625
1630932170593,0.4375,-0.078125,0.890625
1630932170625,0.4375,-0.078125,0.875
1630932170656,0.4375,-0.078125,0.890625
1630932170687,0.4375,-0.078125,0.890625
1630932170718,0.4375,-0.078125,0.875
1630932170750,0.4375,-0.078125,0.890625
1630932170781,0.4375,-0.078125,0.890625
1630932170812,0.4375,-0.078125,0.875
1630932170843,0.4375,-0.078125,0.875
1630932170875,0.4375,-0.078125,0.875
1630932170906,0.4375,-0.078125,0.875
1630932170937,0.4375,-0.078125,0.890625
1630932170968,0.4375,-0.078125,0.875
1630932171000,0.4375,-0.078125,0.875
1630932171031,0.4375,-0.078125,0.875
1630932171062,0.4375,-0.078125,0.875
1630932171093,0.4375,-0.078125,0.875
1630932171125,0.4375,-0.078125,0.875
1630932171156,0.4375,-0.078125,0.875
1630932171187,0.4375,-0.078125,0.875
1630932171218,0.4375,-0.078125,0.875
1630932171250,0.4375,-0.078125,0.875
1630932171281,0.4375,-0.078125,0.890625
1630932171312,0.4375,-0.078125,0.890625
1630932171343,0.4375,-0.078125,0.875
1630932171375,0.4375,-0.078125,0.890625
1630932171406,0.4375,-0.078125,0.875
1630932171437,0.4375,-0.078125,0.875
1630932171468,0.4375,-0.078125,0.875
1630932171500,0.4375,-0.078125,0.875
1630932171531,0.4375,-0.078125,0.890625
1630932171562,0.4375,-0.078125,0.890625
1630932171593,0.4375,-0.078125,0.875
1630932171625,0.4375,-0.078125,0.875
1630932171656,0.4375,-0.078125,0.890625
1630932171687,0.4375,-0.078125,0.875
1630932171718,0.4375,-0.078125,0.875
1630932171750,0.4375,-0.078125,0.875
1630932171781,0.4375,-0.078125,0.890625
1630932171812,0.4375,-0.078125,0.875
1630932171843,0.4375,-0.078125,0.890625
1630932171875,0.4375,-0.078125,0.890625
1630932171906,0.4375,-0.078125,0.890625
1630932171937,0.4375,-0.078125,0.875
1630932171968,0.4375,-0.078125,0.890625
1630932172000,0.4375,-0.078125,0.875
1630932172031,0.4375,-0.078125,0.875
1630932172062,0.4375,-0.078125,0.875
1630932172093,0.4375,-0.078125,0.890625
1630932172125,0.4375,-0.078125,0.890625
1630932172156,0.4375,-0.078125,0.875
1630932172187,0.4375,-0.078125,0.890625
1630932172218,0.4375,-0.0625,0.875
1630932172250,0.4375,-0.078125,0.875
1630932172281,0.4375,-0.078125,0.890625
1630932172312,0.4375,-0.078125,0.875
1630932172343,0.4375,-0.078125,0.875
1630932172375,0.4375,-0.078125,0.875
1630932172406,0.4375,-0.078125,0.890625
1630932172437,0.4375,-0.078125,0.890625
1630932172468,0.4375,-0.078125,0.875
1630932172500,0.4375,-0.078125,0.875
1630932172531,0.4375,-0.078125,0.875
1630932172562,0.4375,-0.078125,0.875
1630932172593,0.4375,-0.078125,0.875
1630932172625,0.421875,-0.078125,0.875
1630932172656,0.453125,-0.078125,0.890625
1630932172687,0.453125,-0.0625,0.890625
1630932172718,0.4375,-0.078125,0.875
1630932172750,0.4375,-0.078125,0.875
1630932172781,0.4375,-0.078125,0.875
1630932172812,0.453125,-0.0625,0.875
1630932172843,0.4375,-0.0625,0.875
1630932172875,0.453125,-0.078125,0.875
1630932172906,0.4375,-0.078125,0.875
1630932172937,0.4375,-0.078125,0.890625
1630932172968,0.4375,-0.078125,0.875
1630932173000,0.4375,-0.078125,0.875
1630932173031,0.4375,-0.09375,0.875
1630932173062,0.453125,-0.078125,0.875
1630932173093,0.453125,-0.078125,0.875
1630932173125,0.453125,-0.078125,0.890625
1630932173156,0.453125,-0.078125,0.875
1630932173187,0.453125,-0.078125,0.875
1630932173218,0.4375,-0.078125,0.875
1630932173250,0.4375,-0.078125,0.875
1630932173281,0.4375,-0.078125,0.875
1630932173312,0.4375,-0.078125,0.875
1630932173343,0.4375,-0.078125,0.875
1630932173375,0.4375,-0.078125,0.875
1630932173406,0.453125,-0.078125,0.875
1630932173437,0.453125,-0.09375,0.875
1630932173468,0.453125,-0.09375,0.875
1630932173500,0.453125,-0.078125,0.875
1630932173531,0.453125,-0.078125,0.875
1630932173562,0.453125,-0.078125,0.875
1630932173593,0.453125,-0.078125,0.875
1630932173625,0.453125,-0.078125,0.875
1630932173656,0.4375,-0.078125,0.875
1630932173687,0.453125,-0.078125,0.875
1630932173718,0.453125,-0.09375,0.875
1630932173750,0.4375,-0.09375,0.875
1630932173781,0.4375,-0.09375,0.875
1630932173812,0.4375,-0.078125,0.890625
1630932173843,0.4375,-0.078125,0.875
1630932173875,0.4375,-0.078125,0.875
1630932173906,0.4375,-0.078125,0.890625
1630932173937,0.4375,-0.078125,0.875
1630932173968,0.4375,-0.078125,0.875
1630932174000,0.4375,-0.078125,0.875
1630932174031,0.453125,-0.078125,0.875
1630932174062,0.453125,-0.078125,0.875
1630932174093,0.453125,-0.078125,0.875
1630932174125,0.453125,-0.078125,0.875
1630932174156,0.453125,-0.09375,0.875
1630932174187,0.453125,-0.078125,0.875
1630932174218,0.453125,-0.09375,0.875
1630932174250,0.453125,-0.09375,0.875
1630932174281,0.453125,-0.09375,0.875
1630932174312,0.453125,-0.078125,0.875
1630932174343,0.453125,-0.078125,0.875
1630932174375,0.453125,-0.078125,0.875
1630932174406,0.453125,-0.078125,0.875
1630932174437,0.453125,-0.078125,0.875
1630932174468,0.453125,-0.078125,0.875
1630932174500,0.453125,-0.078125,0.875
1630932174531,0.46875,-0.078125,0.859375
1630932174562,0.4375,-0.078125,0.875
1630932174593,0.4375,-0.09375,0.859375
1630932174625,0.46875,-0.09375,0.859375
1630932174656,0.453125,-0.09375,0.875
1630932174687,0.453125,-0.09375,0.875
1630932174718,0.453125,-0.078125,0.875
1630932174750,0.4375,-0.09375,0.875
1630932174781,0.4375,-0.09375,0.875
1630932174812,0.4375,-0.078125,0.875
1630932174843,0.453125,-0.078125,0.875
1630932174875,0.4375,-0.078125,0.875
1630932174906,0.4375,-0.078125,0.890625
1630932174937,0.4375,-0.078125,0.875
1630932174968,0.4375,-0.078125,0.875
1630932175000,0.4375,-0.078125,0.875
1630932175031,0.453125,-0.078125,0.875
1630932175062,0.4375,-0.078125,0.875
1630932175093,0.4375,-0.078125,0.875
1630932175125,0.4375,-0.078125,0.875
1630932175156,0.4375,-0.078125,0.890625
1630932175187,0.4375,-0.078125,0.890625
1630932175218,0.421875,-0.09375,0.859375
1630932175250,0.4375,-0.078125,0.859375
1630932175281,0.46875,-0.078125,0.875
1630932175312,0.453125,-0.078125,0.875
1630932175343,0.4375,-0.078125,0.875
1630932175375,0.4375,-0.078125,0.875
1630932175406,0.453125,-0.078125,0.875
1630932175437,0.4375,-0.078125,0.875
1630932175468,0.4375,-0.078125,0.875
1630932175500,0.4375,-0.078125,0.890625
1630932175531,0.4375,-0.078125,0.875
1630932175562,0.4375,-0.078125,0.875
1630932175593,0.4375,-0.078125,0.875
1630932175625,0.4375,-0.078125,0.890625
1630932175656,0.4375,-0.078125,0.875
1630932175687,0.4375,-0.078125,0.875
1630932175718,0.4375,-0.078125,0.890625
1630932175750,0.4375,-0.078125,0.875
1630932175781,0.4375,-0.078125,0.875
1630932175812,0.4375,-0.078125,0.875
1630932175843,0.4375,-0.078125,0.890625
1630932175875,0.4375,-0.078125,0.875
1630932175906,0.4375,-0.078125,0.875
1630932175937,0.4375,-0.078125,0.875
1630932175968,0.4375,-0.078125,0.875
1630932176000,0.4375,-0.078125,0.875
1630932176031,0.4375,-0.078125,0.875
1630932176062,0.4375,-0.078125,0.875
1630932176093,0.4375,-0.078125,0.875
1630932176125,0.4375,-0.078125,0.875
1630932176156,0.4375,-0.078125,0.890625
1630932176187,0.4375,-0.078125,0.875
1630932176218,0.4375,-0.078125,0.875
1630932176250,0.4375,-0.078125,0.875
1630932176281,0.4375,-0.078125,0.875
1630932176312,0.4375,-0.078125,0.875
1630932176343,0.4375,-0.078125,0.875
1630932176375,0.4375,-0.078125,0.890625
1630932176406,0.4375,-0.078125,0.875
1630932176437,0.4375,-0.078125,0.875
1630932176468,0.4375,-0.078125,0.890625
1630932176500,0.4375,-0.078125,0.875
1630932176531,0.4375,-0.078125,0.875
1630932176562,0.4375,-0.078125,0.875
1630932176593,0.4375,-0.078125,0.875
1630932176625,0.4375,-0.078125,0.875
1630932176656,0.4375,-0.078125,0.875
1630932176687,0.4375,-0.078125,0.875
1630932176718,0.4375,-0.078125,0.890625
1630932176750,0.4375,-0.078125,0.875
1630932176781,0.4375,-0.078125,0.890625
1630932176812,0.4375,-0.078125,0.875
1630932176843,0.4375,-0.078125,0.875
1630932176875,0.4375,-0.078125,0.875
1630932176906,0.4375,-0.078125,0.875
1630932176937,0.4375,-0.078125,0.875
1630932176968,0.4375,-0.078125,0.875
1630932177000,0.4375,-0.078125,0.875
1630932177031,0.4375,-0.078125,0.875
1630932177062,0.4375,-0.078125,0.875
1630932177093,0.4375,-0.078125,0.875
1630932177125,0.4375,-0.078125,0.875
1630932177156,0.4375,-0.078125,0.875
1630932177187,0.4375,-0.078125,0.875
1630932177218,0.4375,-0.078125,0.890625
1630932177250,0.4375,-0.078125,0.875
1630932177281,0.4375,-0.078125,0.875
1630932177312,0.4375,-0.078125,0.875
1630932177343,0.4375,-0.078125,0.875
1630932177375,0.453125,-0.078125,0.875
1630932177406,0.453125,-0.078125,0.875
1630932177437,0.4375,-0.078125,0.875
1630932177468,0.4375,-0.078125,0.875
1630932177500,0.4375,-0.078125,0.875
1630932177531,0.4375,-0.078125,0.875
1630932177562,0.4375,-0.078125,0.875
1630932177593,0.4375,-0.078125,0.875
1630932177625,0.453125,-0.078125,0.875
1630932177656,0.453125,-0.078125,0.875
1630932177687,0.453125,-0.078125,0.875
1630932177718,0.453125,-0.078125,0.875
1630932177750,0.453125,-0.078125,0.875
1630932177781,0.4375,-0.078125,0.875
1630932177812,0.453125,-0.078125,0.875
1630932177843,0.453125,-0.078125,0.875
1630932177875,0.453125,-0.078125,0.875
1630932177906,0.453125,-0.078125,0.875
1630932177937,0.453125,-0.078125,0.875
1630932177968,0.453125,-0.078125,0.875
1630932178000,0.453125,-0.078125,0.875
1630932178031,0.453125,-0.078125,0.875
1630932178062,0.453125,-0.078125,0.875
1630932178093,0.453125,-0.09375,0.875
1630932178125,0.453125,-0.078125,0.875
1630932178156,0.453125,-0.078125,0.875
1630932178187,0.453125,-0.078125,0.875
1630932178218,0.46875,-0.09375,0.890625
1630932178250,0.453125,-0.09375,0.859375
1630932178281,0.484375,-0.078125,0.890625
1630932178312,0.4375,-0.078125,0.890625
1630932178343,0.453125,-0.078125,0.875
1630932178375,0.4375,-0.078125,0.875
1630932178406,0.453125,-0.078125,0.875
1630932178437,0.453125,-0.078125,0.875
1630932178468,0.4375,-0.078125,0.875
1630932178500,0.4375,-0.078125,0.875
1630932178531,0.4375,-0.078125,0.890625
1630932178562,0.4375,-0.078125,0.875
1630932178593,0.4375,-0.078125,0.875
1630932178625,0.4375,-0.078125,0.875
1630932178656,0.453125,-0.078125,0.875
1630932178687,0.4375,-0.078125,0.875
1630932178718,0.4375,-0.078125,0.875
1630932178750,0.4375,-0.078125,0.875
1630932178781,0.4375,-0.078125,0.875
1630932178812,0.4375,-0.078125,0.875
1630932178843,0.421875,-0.078125,0.875
1630932178875,0.4375,-0.078125,0.875
1630932178906,0.4375,-0.078125,0.890625
1630932178937,0.4375,-0.078125,0.890625
1630932178968,0.421875,-0.078125,0.875
1630932179000,0.421875,-0.0625,0.890625
1630932179031,0.421875,-0.078125,0.890625
1630932179062,0.421875,-0.078125,0.875
1630932179093,0.4375,-0.078125,0.875
1630932179125,0.4375,-0.078125,0.890625
1630932179156,0.4375,-0.078125,0.890625
1630932179187,0.4375,-0.078125,0.890625
1630932179218,0.4375,-0.078125,0.875
1630932179250,0.4375,-0.078125,0.875
1630932179281,0.421875,-0.078125,0.890625
1630932179312,0.4375,-0.078125,0.875
1630932179343,0.4375,-0.078125,0.875
1630932179375,0.4375,-0.078125,0.875
1630932179406,0.421875,-0.078125,0.859375
1630932179437,0.453125,-0.078125,0.875
1630932179468,0.4375,-0.078125,0.875
1630932179500,0.4375,-0.09375,0.890625
1630932179531,0.4375,-0.09375,0.875
1630932179562,0.453125,-0.09375,0.875
1630932179593,0.453125,-0.078125,0.875
1630932179625,0.453125,-0.078125,0.890625
1630932179656,0.46875,-0.078125,0.890625
1630932179687,0.453125,-0.078125,0.875
1630932179718,0.453125,-0.078125,0.875
1630932179750,0.453125,-0.09375,0.875
1630932179781,0.453125,-0.09375,0.875
1630932179812,0.46875,-0.109375,0.875
1630932179843,0.4375,-0.09375,0.875
1630932179875,0.4375,-0.09375,0.875
1630932179906,0.4375,-0.09375,0.875
1630932179937,0.4375,-0.078125,0.875
1630932179968,0.4375,-0.0625,0.875
1630932180000,0.421875,-0.0625,0.890625
1630932180031,0.421875,-0.078125,0.890625
1630932180062,0.4375,-0.078125,0.875
1630932180093,0.4375,-0.078125,0.875
1630932180125,0.4375,-0.078125,0.875
1630932180156,0.4375,-0.09375,0.890625
1630932180187,0.4375,-0.09375,0.875
1630932180218,0.453125,-0.09375,0.875
1630932180250,0.4375,-0.078125,0.875
1630932180281,0.4375,-0.078125,0.875
1630932180312,0.4375,-0.078125,0.890625
1630932180343,0.4375,-0.078125,0.875
1630932180375,0.453125,-0.078125,0.875
1630932180406,0.4375,-0.09375,0.859375
1630932180437,0.453125,-0.09375,0.875
1630932180468,0.453125,-0.09375,0.875
1630932180500,0.453125,-0.09375,0.875
1630932180531,0.4375,-0.078125,0.890625
1630932180562,0.4375,-0.078125,0.875
1630932180593,0.4375,-0.078125,0.875
1630932180625,0.453125,-0.078125,0.875
1630932180656,0.4375,-0.078125,0.890625
1630932180687,0.4375,-0.078125,0.890625
1630932180718,0.4375,-0.09375,0.859375
1630932180750,0.453125,-0.09375,0.875
1630932180781,0.453125,-0.078125,0.875
1630932180812,0.4375,-0.09375,0.875
1630932180843,0.453125,-0.09375,0.875
1630932180875,0.453125,-0.078125,0.875
1630932180906,0.453125,-0.078125,0.875
1630932180937,0.453125,-0.078125,0.875
1630932180968,0.4375,-0.09375,0.859375
1630932181000,0.453125,-0.09375,0.859375
1630932181031,0.453125,-0.09375,0.875
1630932181062,0.453125,-0.09375,0.890625
1630932181093,0.46875,-0.09375,0.875
1630932181125,0.453125,-0.078125,0.859375
1630932181156,0.453125,-0.078125,0.875
1630932181187,0.40625,-0.078125,0.859375
1630932181218,0.46875,-0.109375,0.875
1630932181250,0.46875,-0.109375,0.875
1630932181281,0.46875,-0.09375,0.875
1630932181312,0.46875,-0.09375,0.875
1630932181343,0.46875,-0.109375,0.875
1630932181375,0.453125,-0.09375,0.875
1630932181406,0.453125,-0.09375,0.890625
1630932181437,0.453125,-0.09375,0.890625
1630932181468,0.453125,-0.078125,0.875
1630932181500,0.4375,-0.078125,0.875
1630932181531,0.421875,-0.078125,0.875
1630932181562,0.4375,-0.078125,0.875
1630932181593,0.421875,-0.0625,0.890625
1630932181625,0.421875,-0.078125,0.890625
1630932181656,0.40625,-0.078125,0.890625
1630932181687,0.4375,-0.078125,0.875
1630932181718,0.4375,-0.078125,0.875
1630932181750,0.4375,-0.078125,0.875
1630932181781,0.4375,-0.078125,0.875
1630932181812,0.4375,-0.078125,0.875
1630932181843,0.4375,-0.09375,0.890625
1630932181875,0.4375,-0.078125,0.890625
1630932181906,0.421875,-0.078125,0.890625
1630932181937,0.421875,-0.078125,0.890625
1630932181968,0.4375,-0.078125,0.875
1630932182000,0.4375,-0.0625,0.875
1630932182031,0.4375,-0.078125,0.890625
1630932182062,0.4375,-0.078125,0.875
1630932182093,0.4375,-0.078125,0.890625
1630932182125,0.4375,-0.078125,0.890625
1630932182156,0.421875,-0.078125,0.875
1630932182187,0.4375,-0.078125,0.875
1630932182218,0.4375,-0.078125,0.875
1630932182250,0.421875,-0.0625,0.875
1630932182281,0.421875,-0.078125,0.859375
1630932182312,0.421875,-0.078125,0.859375
1630932182343,0.46875,-0.078125,0.84375
1630932182375,0.453125,-0.03125,0.890625
1630932182406,0.34375,-0.046875,0.96875
1630932182437,0.390625,-0.046875,0.9375
1630932182468,0.34375,-0.0625,0.875
1630932182500,0.421875,-0.046875,0.90625
1630932182531,0.390625,-0.015625,0.875
1630932182562,0.453125,0.0,0.875
1630932182593,0.40625,0.015625,0.875
1630932182625,0.390625,-0.015625,0.9375
1630932182656,0.40625,-0.015625,0.90625
1630932182687,0.34375,0.015625,0.859375
1630932182718,0.375,-0.015625,0.953125
1630932182750,0.3125,0.0,0.953125
1630932182781,0.484375,0.0,0.875
1630932182812,0.5,0.03125,0.859375
1630932182843,0.390625,0.03125,0.875
1630932182875,0.359375,0.0,0.921875
1630932182906,0.375,-0.015625,0.9375
1630932182937,0.34375,-0.03125,0.9375
1630932182968,0.34375,-0.015625,0.90625
1630932183000,0.390625,-0.03125,0.90625
1630932183031,0.421875,-0.015625,0.90625
1630932183062,0.390625,-0.015625,0.875
1630932183093,0.390625,0.0,0.90625
1630932183125,0.421875,0.0,0.890625
1630932183156,0.40625,0.015625,0.859375
1630932183187,0.40625,0.015625,0.875
1630932183218,0.390625,0.03125,0.890625
1630932183250,0.40625,0.03125,0.890625
1630932183281,0.390625,0.0,0.875
1630932183312,0.375,0.0,0.875
1630932183343,0.421875,-0.015625,0.921875
1630932183375,0.4375,0.0,0.890625
1630932183406,0.421875,0.0,0.875
1630932183437,0.375,0.015625,0.875
1630932183468,0.4375,0.015625,0.921875
1630932183500,0.421875,-0.015625,0.890625
1630932183531,0.40625,-0.046875,0.90625
1630932183562,0.390625,-0.0625,0.9375
1630932183593,0.28125,-0.078125,0.984375
1630932183625,0.234375,-0.078125,0.96875
1630932183656,0.34375,-0.078125,0.921875
1630932183687,0.46875,-0.046875,0.90625
1630932183718,0.5,-0.046875,0.890625
1630932183750,0.453125,-0.03125,0.859375
1630932183781,0.4375,-0.03125,0.84375
1630932183812,0.46875,-0.046875,0.875
1630932183843,0.46875,-0.09375,0.90625
1630932183875,0.421875,-0.09375,0.890625
1630932183906,0.375,-0.09375,0.84375
1630932183937,0.390625,-0.09375,0.84375
1630932183968,0.453125,-0.078125,0.890625
1630932184000,0.4375,-0.0625,0.890625
1630932184031,0.4375,-0.0625,0.875
1630932184062,0.4375,-0.0625,0.859375
1630932184093,0.453125,-0.0625,0.875
1630932184125,0.453125,-0.0625,0.859375
1630932184156,0.453125,-0.078125,0.859375
1630932184187,0.453125,-0.078125,0.859375
1630932184218,0.46875,-0.078125,0.875
1630932184250,0.46875,-0.09375,0.875
1630932184281,0.46875,-0.109375,0.875
1630932184312,0.46875,-0.09375,0.859375
1630932184343,0.46875,-0.09375,0.859375
1630932184375,0.484375,-0.09375,0.859375
1630932184406,0.5,-0.09375,0.859375
1630932184437,0.5,-0.078125,0.859375
1630932184468,0.5,-0.09375,0.875
1630932184500,0.5,-0.09375,0.875
1630932184531,0.46875,-0.09375,0.875
1630932184562,0.453125,-0.09375,0.859375
1630932184593,0.453125,-0.078125,0.84375
1630932184625,0.46875,-0.078125,0.859375
1630932184656,0.46875,-0.078125,0.875
1630932184687,0.46875,-0.078125,0.859375
1630932184718,0.453125,-0.078125,0.859375
1630932184750,0.46875,-0.078125,0.859375
1630932184781,0.453125,-0.078125,0.875
1630932184812,0.453125,-0.078125,0.875
1630932184843,0.453125,-0.078125,0.875
1630932184875,0.453125,-0.078125,0.875
1630932184906,0.46875,-0.078125,0.875
1630932184937,0.453125,-0.078125,0.875
1630932184968,0.46875,-0.078125,0.859375
1630932185000,0.46875,-0.078125,0.859375
1630932185031,0.46875,-0.078125,0.875
1630932185062,0.46875,-0.09375,0.859375
1630932185093,0.46875,-0.09375,0.875
1630932185125,0.46875,-0.078125,0.859375
1630932185156,0.453125,-0.078125,0.859375
1630932185187,0.46875,-0.078125,0.859375
1630932185218,0.46875,-0.078125,0.859375
1630932185250,0.46875,-0.078125,0.859375
1630932185281,0.46875,-0.078125,0.875
1630932185312,0.46875,-0.078125,0.875
1630932185343,0.46875,-0.09375,0.859375
1630932185375,0.453125,-0.078125,0.859375
1630932185406,0.453125,-0.078125,0.859375
1630932185437,0.453125,-0.078125,0.875
1630932185468,0.453125,-0.078125,0.875
1630932185500,0.46875,-0.078125,0.875
1630932185531,0.46875,-0.078125,0.859375
1630932185562,0.453125,-0.078125,0.859375
1630932185593,0.46875,-0.078125,0.875
1630932185625,0.46875,-0.078125,0.875
1630932185656,0.46875,-0.078125,0.875
1630932185687,0.46875,-0.078125,0.875
1630932185718,0.453125,-0.078125,0.875
1630932185750,0.46875,-0.078125,0.875
1630932185781,0.46875,-0.09375,0.875
1630932185812,0.46875,-0.078125,0.875
1630932185843,0.46875,-0.078125,0.875
1630932185875,0.46875,-0.078125,0.875
1630932185906,0.453125,-0.078125,0.859375
1630932185937,0.453125,-0.078125,0.875
1630932185968,0.46875,-0.078125,0.859375
1630932186000,0.46875,-0.09375,0.859375
1630932186031,0.46875,-0.09375,0.859375
1630932186062,0.46875,-0.078125,0.859375
1630932186093,0.46875,-0.078125,0.875
1630932186125,0.46875,-0.078125,0.875
1630932186156,0.453125,-0.078125,0.875
1630932186187,0.453125,-0.078125,0.859375
1630932186218,0.46875,-0.078125,0.875
1630932186250,0.453125,-0.078125,0.875
1630932186281,0.46875,-0.078125,0.859375
1630932186312,0.46875,-0.078125,0.859375
1630932186343,0.484375,-0.078125,0.859375
1630932186375,0.453125,-0.078125,0.859375
1630932186406,0.453125,-0.078125,0.875
1630932186437,0.453125,-0.078125,0.875
1630932186468,0.453125,-0.078125,0.859375
1630932186500,0.453125,-0.09375,0.875
1630932186531,0.46875,-0.078125,0.859375
1630932186562,0.453125,-0.078125,0.875
1630932186593,0.453125,-0.078125,0.875
1630932186625,0.46875,-0.078125,0.875
1630932186656,0.46875,-0.078125,0.875
1630932186687,0.453125,-0.078125,0.875
1630932186718,0.453125,-0.078125,0.875
1630932186750,0.453125,-0.078125,0.875
1630932186781,0.453125,-0.078125,0.875
1630932186812,0.453125,-0.078125,0.859375
1630932186843,0.46875,-0.078125,0.875
1630932186875,0.46875,-0.078125,0.890625
1630932186906,0.4375,-0.09375,0.875
1630932186937,0.4375,-0.078125,0.875
1630932186968,0.4375,-0.078125,0.875
1630932187000,0.4375,-0.078125,0.875
1630932187031,0.421875,-0.078125,0.859375
1630932187062,0.453125,-0.078125,0.875
1630932187093,0.40625,-0.09375,0.890625
1630932187125,0.421875,-0.09375,0.90625
1630932187156,0.40625,-0.09375,0.90625
1630932187187,0.421875,-0.09375,0.890625
1630932187218,0.40625,-0.078125,0.890625
1630932187250,0.421875,-0.078125,0.890625
1630932187281,0.390625,-0.078125,0.890625
1630932187312,0.40625,-0.078125,0.890625
1630932187343,0.421875,-0.078125,0.890625
1630932187375,0.40625,-0.078125,0.90625
1630932187406,0.40625,-0.078125,0.890625
1630932187437,0.390625,-0.09375,0.90625
1630932187468,0.390625,-0.09375,0.90625
1630932187500,0.40625,-0.078125,0.890625
1630932187531,0.390625,-0.078125,0.890625
1630932187562,0.40625,-0.078125,0.90625
1630932187593,0.390625,-0.078125,0.90625
1630932187625,0.40625,-0.078125,0.890625
1630932187656,0.40625,-0.078125,0.890625
1630932187687,0.40625,-0.09375,0.890625
1630932187718,0.421875,-0.09375,0.90625
1630932187750,0.40625,-0.09375,0.890625
1630932187781,0.40625,-0.09375,0.890625
1630932187812,0.40625,-0.078125,0.90625
1630932187843,0.40625,-0.078125,0.90625
1630932187875,0.390625,-0.078125,0.890625
1630932187906,0.390625,-0.078125,0.90625
1630932187937,0.390625,-0.078125,0.90625
1630932187968,0.390625,-0.078125,0.890625
1630932188000,0.390625,-0.078125,0.890625
1630932188031,0.40625,-0.078125,0.890625
1630932188062,0.390625,-0.078125,0.90625
1630932188093,0.375,-0.078125,0.90625
1630932188125,0.390625,-0.078125,0.90625
1630932188156,0.375,-0.078125,0.90625
1630932188187,0.390625,-0.078125,0.90625
1630932188218,0.390625,-0.078125,0.90625
1630932188250,0.40625,-0.078125,0.890625
1630932188281,0.40625,-0.078125,0.90625
1630932188312,0.40625,-0.078125,0.90625
1630932188343,0.390625,-0.078125,0.90625
1630932188375,0.390625,-0.09375,0.890625
1630932188406,0.390625,-0.078125,0.890625
1630932188437,0.40625,-0.078125,0.890625
1630932188468,0.390625,-0.078125,0.90625
1630932188500,0.390625,-0.078125,0.90625
1630932188531,0.390625,-0.078125,0.90625
1630932188562,0.390625,-0.078125,0.90625
1630932188593,0.390625,-0.078125,0.890625
1630932188625,0.390625,-0.078125,0.90625
1630932188656,0.390625,-0.078125,0.90625
1630932188687,0.390625,-0.078125,0.90625
1630932188718,0.390625,-0.078125,0.90625
1630932188750,0.390625,-0.078125,0.90625
1630932188781,0.390625,-0.078125,0.890625
1630932188812,0.390625,-0.078125,0.890625
1630932188843,0.390625,-0.078125,0.90625
1630932188875,0.390625,-0.078125,0.90625
1630932188906,0.390625,-0.078125,0.890625
1630932188937,0.390625,-0.078125,0.90625
1630932188968,0.390625,-0.078125,0.90625
1630932189000,0.390625,-0.078125,0.90625
1630932189031,0.390625,-0.078125,0.90625
1630932189062,0.390625,-0.078125,0.90625
1630932189093,0.375,-0.078125,0.90625
1630932189125,0.390625,-0.078125,0.90625
1630932189156,0.390625,-0.078125,0.90625
1630932189187,0.390625,-0.078125,0.90625
1630932189218,0.390625,-0.078125,0.90625
1630932189250,0.390625,-0.078125,0.90625
1630932189281,0.390625,-0.078125,0.90625
1630932189312,0.390625,-0.078125,0.90625
1630932189343,0.390625,-0.078125,0.90625
1630932189375,0.390625,-0.078125,0.90625
1630932189406,0.390625,-0.078125,0.90625
1630932189437,0.390625,-0.078125,0.90625
1630932189468,0.390625,-0.078125,0.90625
1630932189500,0.375,-0.078125,0.90625
1630932189531,0.390625,-0.078125,0.90625
1630932189562,0.375,-0.078125,0.90625
1630932189593,0.390625,-0.078125,0.90625
1630932189625,0.390625,-0.078125,0.90625
1630932189656,0.390625,-0.078125,0.90625
1630932189687,0.390625,-0.078125,0.90625
1630932189718,0.390625,-0.078125,0.890625
1630932189750,0.390625,-0.078125,0.90625
1630932189781,0.390625,-0.078125,0.90625
1630932189812,0.390625,-0.078125,0.890625
1630932189843,0.390625,-0.078125,0.90625
1630932189875,0.375,-0.0625,0.90625
1630932189906,0.390625,-0.078125,0.90625
1630932189937,0.390625,-0.078125,0.90625
1630932189968,0.375,-0.078125,0.90625
1630932190000,0.390625,-0.078125,0.90625
1630932190031,0.390625,-0.078125,0.90625
1630932190062,0.390625,-0.078125,0.90625
1630932190093,0.390625,-0.078125,0.90625
1630932190125,0.390625,-0.078125,0.90625
1630932190156,0.390625,-0.078125,0.90625
1630932190187,0.390625,-0.078125,0.90625
1630932190218,0.390625,-0.078125,0.90625
1630932190250,0.390625,-0.078125,0.90625
1630932190281,0.390625,-0.078125,0.90625
1630932190312,0.375,-0.078125,0.90625
1630932190343,0.390625,-0.078125,0.90625
1630932190375,0.390625,-0.078125,0.90625
1630932190406,0.375,-0.078125,0.90625
1630932190437,0.390625,-0.078125,0.90625
1630932190468,0.390625,-0.078125,0.90625
1630932190500,0.390625,-0.078125,0.90625
1630932190531,0.390625,-0.078125,0.90625
1630932190562,0.40625,-0.078125,0.90625
1630932190593,0.390625,-0.078125,0.90625
1630932190625,0.390625,-0.078125,0.90625
1630932190656,0.375,-0.078125,0.890625
1630932190687,0.359375,-0.0625,0.90625
1630932190718,0.359375,-0.0625,0.890625
1630932190750,0.34375,-0.0625,0.875
1630932190781,0.390625,-0.078125,0.890625
1630932190812,0.421875,-0.078125,0.890625
1630932190843,0.484375,-0.09375,0.90625
1630932190875,0.484375,-0.109375,0.90625
1630932190906,0.4375,-0.109375,0.890625
1630932190937,0.40625,-0.078125,0.890625
1630932190968,0.390625,-0.078125,0.890625
1630932191000,0.390625,-0.078125,0.890625
1630932191031,0.40625,-0.078125,0.890625
1630932191062,0.421875,-0.09375,0.875
1630932191093,0.421875,-0.09375,0.875
1630932191125,0.421875,-0.078125,0.875
1630932191156,0.4375,-0.078125,0.890625
1630932191187,0.421875,-0.09375,0.921875
1630932191218,0.40625,-0.078125,0.90625
1630932191250,0.421875,-0.078125,0.875
1630932191281,0.390625,-0.09375,0.875
1630932191312,0.40625,-0.078125,0.90625
1630932191343,0.390625,-0.078125,0.90625
1630932191375,0.421875,-0.078125,0.90625
1630932191406,0.390625,-0.09375,0.90625
1630932191437,0.390625,-0.078125,0.890625
1630932191468,0.40625,-0.078125,0.90625
1630932191500,0.40625,-0.09375,0.890625
1630932191531,0.421875,-0.078125,0.890625
1630932191562,0.40625,-0.09375,0.90625
1630932191593,0.390625,-0.078125,0.890625
1630932191625,0.390625,-0.078125,0.890625
1630932191656,0.40625,-0.09375,0.890625
1630932191687,0.40625,-0.109375,0.890625
1630932191718,0.40625,-0.09375,0.890625
1630932191750,0.390625,-0.078125,0.90625
1630932191781,0.390625,-0.078125,0.90625
1630932191812,0.40625,-0.078125,0.890625
1630932191843,0.40625,-0.078125,0.890625
1630932191875,0.40625,-0.078125,0.90625
1630932191906,0.390625,-0.078125,0.90625
1630932191937,0.390625,-0.09375,0.90625
1630932191968,0.390625,-0.09375,0.90625
1630932192000,0.390625,-0.078125,0.890625
1630932192031,0.390625,-0.078125,0.890625
1630932192062,0.40625,-0.078125,0.890625
1630932192093,0.40625,-0.078125,0.890625
1630932192125,0.40625,-0.09375,0.90625
1630932192156,0.390625,-0.09375,0.90625
1630932192187,0.40625,-0.078125,0.90625
1630932192218,0.390625,-0.09375,0.890625
1630932192250,0.40625,-0.09375,0.890625
1630932192281,0.40625,-0.09375,0.890625
1630932192312,0.40625,-0.09375,0.90625
1630932192343,0.390625,-0.09375,0.90625
1630932192375,0.40625,-0.09375,0.90625
1630932192406,0.390625,-0.09375,0.90625
1630932192437,0.390625,-0.09375,0.90625
1630932192468,0.40625,-0.078125,0.890625
1630932192500,0.375,-0.09375,0.890625
1630932192531,0.390625,-0.078125,0.890625
1630932192562,0.390625,-0.0625,0.890625
1630932192593,0.421875,-0.0625,0.890625
1630932192625,0.421875,-0.0625,0.90625
1630932192656,0.421875,-0.078125,0.90625
1630932192687,0.390625,-0.09375,0.90625
1630932192718,0.375,-0.109375,0.90625
1630932192750,0.390625,-0.109375,0.90625
1630932192781,0.390625,-0.109375,0.90625
1630932192812,0.375,-0.09375,0.90625
1630932192843,0.375,-0.09375,0.90625
1630932192875,0.390625,-0.09375,0.90625
1630932192906,0.390625,-0.09375,0.90625
1630932192937,0.375,-0.078125,0.90625
1630932192968,0.375,-0.078125,0.90625
1630932193000,0.390625,-0.078125,0.890625
1630932193031,0.390625,-0.078125,0.890625
1630932193062,0.40625,-0.09375,0.890625
1630932193093,0.40625,-0.109375,0.90625
1630932193125,0.390625,-0.109375,0.90625
1630932193156,0.375,-0.09375,0.921875
1630932193187,0.375,-0.09375,0.90625
1630932193218,0.390625,-0.09375,0.890625
1630932193250,0.40625,-0.09375,0.890625
1630932193281,0.390625,-0.09375,0.90625
1630932193312,0.375,-0.078125,0.90625
1630932193343,0.375,-0.09375,0.90625
1630932193375,0.359375,-0.09375,0.90625
1630932193406,0.375,-0.09375,0.90625
1630932193437,0.375,-0.09375,0.890625
1630932193468,0.390625,-0.09375,0.890625
1630932193500,0.390625,-0.09375,0.90625
1630932193531,0.375,-0.09375,0.921875
1630932193562,0.359375,-0.09375,0.90625
1630932193593,0.375,-0.09375,0.90625
1630932193625,0.390625,-0.09375,0.90625
1630932193656,0.375,-0.09375,0.90625
1630932193687,0.375,-0.09375,0.90625
1630932193718,0.390625,-0.09375,0.90625
1630932193750,0.390625,-0.09375,0.90625
1630932193781,0.390625,-0.078125,0.890625
1630932193812,0.390625,-0.09375,0.890625
1630932193843,0.390625,-0.09375,0.90625
1630932193875,0.375,-0.09375,0.90625
1630932193906,0.375,-0.09375,0.90625
1630932193937,0.375,-0.09375,0.90625
1630932193968,0.390625,-0.09375,0.90625
1630932194000,0.390625,-0.09375,0.90625
1630932194031,0.390625,-0.09375,0.90625
1630932194062,0.40625,-0.09375,0.890625
1630932194093,0.390625,-0.09375,0.90625
1630932194125,0.375,-0.09375,0.890625
1630932194156,0.390625,-0.09375,0.90625
1630932194187,0.390625,-0.09375,0.90625
1630932194218,0.375,-0.09375,0.90625
1630932194250,0.390625,-0.09375,0.90625
1630932194281,0.390625,-0.09375,0.90625
1630932194312,0.375,-0.09375,0.90625
1630932194343,0.390625,-0.09375,0.90625
1630932194375,0.375,-0.09375,0.890625
1630932194406,0.390625,-0.078125,0.90625
1630932194437,0.375,-0.078125,0.90625
1630932194468,0.375,-0.09375,0.90625
1630932194500,0.375,-0.09375,0.90625
1630932194531,0.375,-0.09375,0.90625
1630932194562,0.375,-0.09375,0.90625
1630932194593,0.375,-0.078125,0.90625
1630932194625,0.359375,-0.078125,0.90625
1630932194656,0.359375,-0.078125,0.90625
1630932194687,0.359375,-0.078125,0.90625
1630932194718,0.359375,-0.078125,0.90625
1630932194750,0.359375,-0.078125,0.90625
1630932194781,0.375,-0.078125,0.90625
1630932194812,0.375,-0.078125,0.90625
1630932194843,0.359375,-0.09375,0.90625
1630932194875,0.375,-0.09375,0.90625
1630932194906,0.375,-0.09375,0.90625
1630932194937,0.375,-0.09375,0.90625
1630932194968,0.375,-0.09375,0.90625
1630932195000,0.375,-0.09375,0.90625
1630932195031,0.375,-0.09375,0.90625
1630932195062,0.359375,-0.09375,0.90625
1630932195093,0.375,-0.078125,0.90625
1630932195125,0.375,-0.09375,0.90625
1630932195156,0.375,-0.09375,0.90625
1630932195187,0.375,-0.09375,0.90625
1630932195218,0.359375,-0.09375,0.90625
1630932195250,0.359375,-0.09375,0.90625
1630932195281,0.359375,-0.078125,0.921875
1630932195312,0.359375,-0.09375,0.90625
1630932195343,0.375,-0.09375,0.90625
1630932195375,0.359375,-0.09375,0.90625
1630932195406,0.359375,-0.078125,0.90625
1630932195437,0.359375,-0.078125,0.90625
1630932195468,0.359375,-0.078125,0.90625
1630932195500,0.359375,-0.09375,0.921875
1630932195531,0.359375,-0.078125,0.921875
1630932195562,0.359375,-0.078125,0.921875
1630932195593,0.375,-0.09375,0.90625
1630932195625,0.375,-0.09375,0.90625
1630932195656,0.375,-0.09375,0.90625
1630932195687,0.359375,-0.09375,0.90625
1630932195718,0.375,-0.09375,0.90625
1630932195750,0.359375,-0.078125,0.90625
1630932195781,0.375,-0.078125,0.90625
1630932195812,0.359375,-0.078125,0.90625
1630932195843,0.359375,-0.078125,0.90625
1630932195875,0.359375,-0.078125,0.90625
1630932195906,0.359375,-0.078125,0.90625
1630932195937,0.359375,-0.078125,0.90625
1630932195968,0.359375,-0.09375,0.90625
1630932196000,0.359375,-0.09375,0.90625
1630932196031,0.375,-0.09375,0.90625
1630932196062,0.359375,-0.078125,0.90625
1630932196093,0.359375,-0.09375,0.921875
1630932196125,0.359375,-0.078125,0.90625
1630932196156,0.375,-0.078125,0.921875
1630932196187,0.359375,-0.078125,0.921875
1630932196218,0.359375,-0.09375,0.90625
1630932196250,0.375,-0.09375,0.90625
1630932196281,0.359375,-0.078125,0.90625
1630932196312,0.359375,-0.078125,0.90625
1630932196343,0.359375,-0.078125,0.90625
1630932196375,0.359375,-0.078125,0.90625
1630932196406,0.359375,-0.078125,0.90625
1630932196437,0.359375,-0.078125,0.90625
1630932196468,0.359375,-0.078125,0.90625
1630932196500,0.375,-0.09375,0.90625
1630932196531,0.359375,-0.09375,0.90625
1630932196562,0.359375,-0.09375,0.90625
1630932196593,0.375,-0.078125,0.90625
1630932196625,0.359375,-0.078125,0.90625
1630932196656,0.359375,-0.09375,0.90625
1630932196687,0.359375,-0.09375,0.90625
1630932196718,0.359375,-0.078125,0.90625
1630932196750,0.359375,-0.078125,0.921875
1630932196781,0.359375,-0.09375,0.90625
1630932196812,0.359375,-0.09375,0.90625
1630932196843,0.359375,-0.078125,0.90625
1630932196875,0.375,-0.078125,0.90625
1630932196906,0.359375,-0.078125,0.90625
1630932196937,0.359375,-0.078125,0.90625
1630932196968,0.359375,-0.078125,0.90625
1630932197000,0.359375,-0.09375,0.90625
1630932197031,0.359375,-0.078125,0.90625
1630932197062,0.359375,-0.078125,0.90625
1630932197093,0.359375,-0.09375,0.90625
1630932197125,0.359375,-0.09375,0.921875
1630932197156,0.359375,-0.078125,0.921875
1630932197187,0.359375,-0.078125,0.90625
1630932197218,0.359375,-0.078125,0.90625
1630932197250,0.375,-0.078125,0.90625
1630932197281,0.359375,-0.078125,0.921875
1630932197312,0.34375,-0.078125,0.90625
1630932197343,0.359375,-0.078125,0.921875
1630932197375,0.359375,-0.09375,0.921875
1630932197406,0.375,-0.09375,0.90625
1630932197437,0.359375,-0.09375,0.921875
1630932197468,0.359375,-0.09375,0.921875
1630932197500,0.375,-0.078125,0.90625
1630932197531,0.375,-0.078125,0.90625
1630932197562,0.375,-0.078125,0.90625
1630932197593,0.359375,-0.078125,0.90625
1630932197625,0.359375,-0.078125,0.90625
1630932197656,0.375,-0.09375,0.90625
1630932197687,0.375,-0.09375,0.90625
1630932197718,0.375,-0.09375,0.90625
1630932197750,0.375,-0.09375,0.90625
1630932197781,0.375,-0.09375,0.921875
1630932197812,0.359375,-0.09375,0.921875
1630932197843,0.359375,-0.078125,0.890625
1630932197875,0.375,-0.0625,0.890625
1630932197906,0.390625,-0.0625,0.890625
1630932197937,0.390625,-0.0625,0.890625
1630932197968,0.390625,-0.09375,0.90625
1630932198000,0.421875,-0.109375,0.90625
1630932198031,0.421875,-0.109375,0.875
1630932198062,0.421875,-0.125,0.875
1630932198093,0.421875,-0.125,0.875
1630932198125,0.390625,-0.109375,0.890625
1630932198156,0.390625,-0.09375,0.890625
1630932198187,0.40625,-0.09375,0.890625
1630932198218,0.421875,-0.09375,0.890625
1630932198250,0.421875,-0.09375,0.890625
1630932198281,0.421875,-0.09375,0.890625
1630932198312,0.453125,-0.09375,0.890625
1630932198343,0.453125,-0.09375,0.890625
1630932198375,0.421875,-0.109375,0.875
1630932198406,0.421875,-0.125,0.875
1630932198437,0.453125,-0.109375,0.875
1630932198468,0.453125,-0.109375,0.875
1630932198500,0.4375,-0.109375,0.875
1630932198531,0.46875,-0.125,0.859375
1630932198562,0.484375,-0.125,0.875
1630932198593,0.46875,-0.125,0.859375
1630932198625,0.484375,-0.109375,0.859375
1630932198656,0.484375,-0.109375,0.875
1630932198687,0.421875,-0.125,0.90625
1630932198718,0.375,-0.125,0.90625
1630932198750,0.40625,-0.125,0.890625
1630932198781,0.421875,-0.125,0.84375
1630932198812,0.421875,-0.125,0.84375
1630932198843,0.484375,-0.140625,0.859375
1630932198875,0.484375,-0.15625,0.890625
1630932198906,0.453125,-0.171875,0.875
1630932198937,0.4375,-0.171875,0.890625
1630932198968,0.4375,-0.171875,0.875
1630932199000,0.46875,-0.140625,0.890625
1630932199031,0.421875,-0.125,0.890625
1630932199062,0.390625,-0.109375,0.890625
1630932199093,0.359375,-0.109375,0.875
1630932199125,0.34375,-0.109375,0.890625
1630932199156,0.359375,-0.125,0.875
1630932199187,0.390625,-0.109375,0.875
1630932199218,0.375,-0.109375,0.875
1630932199250,0.40625,-0.140625,0.90625
1630932199281,0.484375,-0.140625,0.90625
1630932199312,0.484375,-0.140625,0.890625
1630932199343,0.46875,-0.15625,0.875
1630932199375,0.453125,-0.171875,0.859375
1630932199406,0.53125,-0.15625,0.875
1630932199437,0.46875,-0.125,0.8125
1630932199468,0.453125,-0.125,0.8125
1630932199500,0.40625,-0.140625,0.84375
1630932199531,0.421875,-0.140625,0.875
1630932199562,0.4375,-0.125,0.875
1630932199593,0.453125,-0.125,0.921875
1630932199625,0.453125,-0.125,0.9375
1630932199656,0.421875,-0.140625,0.921875
1630932199687,0.390625,-0.15625,0.875
1630932199718,0.453125,-0.140625,0.828125
1630932199750,0.515625,-0.125,0.859375
1630932199781,0.484375,-0.125,0.859375
1630932199812,0.4375,-0.140625,0.84375
1630932199843,0.4375,-0.140625,0.859375
1630932199875,0.4375,-0.140625,0.875
1630932199906,0.4375,-0.140625,0.90625
1630932199937,0.4375,-0.140625,0.90625
1630932199968,0.421875,-0.140625,0.875
1630932200000,0.4375,-0.140625,0.875
1630932200031,0.4375,-0.125,0.875
1630932200062,0.421875,-0.125,0.875
1630932200093,0.421875,-0.109375,0.875
1630932200125,0.421875,-0.109375,0.875
1630932200156,0.421875,-0.109375,0.890625
1630932200187,0.421875,-0.109375,0.890625
1630932200218,0.421875,-0.125,0.890625
1630932200250,0.40625,-0.125,0.890625
1630932200281,0.390625,-0.125,0.890625
1630932200312,0.40625,-0.125,0.890625
1630932200343,0.40625,-0.125,0.890625
1630932200375,0.40625,-0.125,0.890625
1630932200406,0.40625,-0.125,0.890625
1630932200437,0.40625,-0.125,0.875
1630932200468,0.40625,-0.109375,0.890625
1630932200500,0.40625,-0.109375,0.90625
1630932200531,0.40625,-0.109375,0.90625
1630932200562,0.390625,-0.109375,0.890625
1630932200593,0.390625,-0.109375,0.890625
1630932200625,0.390625,-0.109375,0.890625
1630932200656,0.390625,-0.125,0.90625
1630932200687,0.390625,-0.109375,0.890625
1630932200718,0.390625,-0.109375,0.90625
1630932200750,0.390625,-0.109375,0.890625
1630932200781,0.40625,-0.109375,0.890625
1630932200812,0.40625,-0.109375,0.890625
1630932200843,0.40625,-0.109375,0.890625
1630932200875,0.390625,-0.109375,0.90625
1630932200906,0.390625,-0.109375,0.890625
1630932200937,0.390625,-0.109375,0.890625
1630932200968,0.390625,-0.109375,0.890625
1630932201000,0.390625,-0.125,0.90625
1630932201031,0.390625,-0.109375,0.890625
1630932201062,0.390625,-0.109375,0.890625
1630932201093,0.40625,-0.109375,0.90625
1630932201125,0.40625,-0.109375,0.890625
1630932201156,0.40625,-0.109375,0.890625
1630932201187,0.390625,-0.109375,0.890625
1630932201218,0.40625,-0.109375,0.90625
1630932201250,0.390625,-0.109375,0.90625
1630932201281,0.390625,-0.125,0.90625
1630932201312,0.390625,-0.125,0.90625
1630932201343,0.390625,-0.109375,0.890625
1630932201375,0.40625,-0.109375,0.890625
1630932201406,0.40625,-0.109375,0.890625
1630932201437,0.40625,-0.109375,0.890625
1630932201468,0.390625,-0.109375,0.890625
1630932201500,0.390625,-0.125,0.90625
1630932201531,0.375,-0.109375,0.90625
1630932201562,0.390625,-0.109375,0.890625
1630932201593,0.390625,-0.109375,0.890625
1630932201625,0.40625,-0.109375,0.890625
1630932201656,0.40625,-0.109375,0.90625
1630932201687,0.390625,-0.109375,0.890625
1630932201718,0.390625,-0.109375,0.90625
1630932201750,0.390625,-0.109375,0.90625
1630932201781,0.375,-0.109375,0.90625
1630932201812,0.390625,-0.109375,0.890625
1630932201843,0.390625,-0.109375,0.890625
1630932201875,0.390625,-0.109375,0.890625
1630932201906,0.390625,-0.109375,0.90625
1630932201937,0.390625,-0.109375,0.90625
1630932201968,0.390625,-0.109375,0.90625
1630932202000,0.390625,-0.109375,0.90625
1630932202031,0.390625,-0.109375,0.890625
1630932202062,0.390625,-0.109375,0.90625
1630932202093,0.390625,-0.109375,0.90625
1630932202125,0.390625,-0.109375,0.90625
1630932202156,0.390625,-0.109375,0.90625
1630932202187,0.390625,-0.109375,0.90625
1630932202218,0.375,-0.109375,0.90625
1630932202250,0.390625,-0.109375,0.90625
1630932202281,0.390625,-0.109375,0.90625
1630932202312,0.390625,-0.109375,0.90625
1630932202343,0.390625,-0.109375,0.90625
1630932202375,0.390625,-0.109375,0.890625
1630932202406,0.390625,-0.109375,0.90625
1630932202437,0.390625,-0.109375,0.890625
1630932202468,0.390625,-0.109375,0.90625
1630932202500,0.390625,-0.109375,0.890625
1630932202531,0.390625,-0.109375,0.890625
1630932202562,0.390625,-0.109375,0.90625
1630932202593,0.375,-0.109375,0.90625
1630932202625,0.390625,-0.109375,0.90625
1630932202656,0.390625,-0.109375,0.90625
1630932202687,0.390625,-0.109375,0.90625
1630932202718,0.390625,-0.109375,0.90625
1630932202750,0.390625,-0.109375,0.90625
1630932202781,0.375,-0.109375,0.90625
1630932202812,0.390625,-0.109375,0.90625
1630932202843,0.390625,-0.109375,0.890625
1630932202875,0.390625,-0.109375,0.90625
1630932202906,0.390625,-0.109375,0.890625
1630932202937,0.390625,-0.109375,0.90625
1630932202968,0.390625,-0.109375,0.90625
1630932203000,0.390625,-0.109375,0.890625
1630932203031,0.390625,-0.109375,0.90625
1630932203062,0.390625,-0.109375,0.90625
1630932203093,0.390625,-0.109375,0.90625
1630932203125,0.390625,-0.109375,0.890625
1630932203156,0.390625,-0.109375,0.890625
1630932203187,0.390625,-0.109375,0.90625
1630932203218,0.390625,-0.109375,0.90625
1630932203250,0.390625,-0.109375,0.90625
1630932203281,0.390625,-0.109375,0.890625
1630932203312,0.390625,-0.109375,0.90625
1630932203343,0.390625,-0.109375,0.90625
1630932203375,0.390625,-0.109375,0.90625
1630932203406,0.390625,-0.109375,0.90625
1630932203437,0.390625,-0.109375,0.90625
1630932203468,0.390625,-0.109375,0.890625
1630932203500,0.375,-0.109375,0.90625
1630932203531,0.390625,-0.109375,0.90625
1630932203562,0.390625,-0.109375,0.890625
1630932203593,0.390625,-0.109375,0.890625
1630932203625,0.390625,-0.109375,0.890625
1630932203656,0.390625,-0.109375,0.90625
1630932203687,0.390625,-0.109375,0.90625
1630932203718,0.390625,-0.109375,0.90625
1630932203750,0.390625,-0.109375,0.90625
1630932203781,0.390625,-0.109375,0.890625
1630932203812,0.390625,-0.109375,0.90625
1630932203843,0.390625,-0.109375,0.90625
1630932203875,0.390625,-0.109375,0.890625
1630932203906,0.390625,-0.109375,0.90625
1630932203937,0.390625,-0.109375,0.890625
1630932203968,0.390625,-0.109375,0.90625
1630932204000,0.390625,-0.109375,0.90625
1630932204031,0.390625,-0.109375,0.90625
1630932204062,0.390625,-0.109375,0.90625
1630932204093,0.390625,-0.109375,0.90625
1630932204125,0.390625,-0.109375,0.90625
1630932204156,0.390625,-0.109375,0.90625
1630932204187,0.390625,-0.109375,0.90625
1630932204218,0.375,-0.109375,0.90625
1630932204250,0.390625,-0.109375,0.90625
1630932204281,0.390625,-0.109375,0.90625
1630932204312,0.390625,-0.109375,0.890625
1630932204343,0.390625,-0.109375,0.90625
1630932204375,0.390625,-0.109375,0.90625
1630932204406,0.390625,-0.109375,0.90625
1630932204437,0.390625,-0.109375,0.90625
1630932204468,0.390625,-0.109375,0.90625
1630932204500,0.390625,-0.109375,0.90625
1630932204531,0.390625,-0.109375,0.890625
1630932204562,0.390625,-0.109375,0.890625
1630932204593,0.390625,-0.109375,0.90625
1630932204625,0.390625,-0.109375,0.90625
1630932204656,0.390625,-0.109375,0.890625
1630932204687,0.390625,-0.109375,0.90625
1630932204718,0.390625,-0.109375,0.90625
1630932204750,0.390625,-0.109375,0.890625
1630932204781,0.390625,-0.109375,0.90625
1630932204812,0.390625,-0.109375,0.90625
1630932204843,0.390625,-0.109375,0.890625
1630932204875,0.390625,-0.109375,0.90625
1630932204906,0.390625,-0.109375,0.90625
1630932204937,0.390625,-0.109375,0.890625
1630932204968,0.390625,-0.109375,0.890625
1630932205000,0.390625,-0.109375,0.90625
1630932205031,0.390625,-0.109375,0.90625
1630932205062,0.390625,-0.109375,0.90625
1630932205093,0.390625,-0.109375,0.890625
1630932205125,0.390625,-0.109375,0.90625
1630932205156,0.390625,-0.109375,0.890625
1630932205187,0.390625,-0.109375,0.890625
1630932205218,0.390625,-0.109375,0.890625
1630932205250,0.390625,-0.109375,0.890625
1630932205281,0.390625,-0.109375,0.890625
1630932205312,0.390625,-0.109375,0.90625
1630932205343,0.390625,-0.109375,0.90625
1630932205375,0.390625,-0.109375,0.90625
1630932205406,0.40625,-0.109375,0.890625
1630932205437,0.390625,-0.109375,0.90625
1630932205468,0.390625,-0.109375,0.90625
1630932205500,0.390625,-0.109375,0.890625
1630932205531,0.390625,-0.109375,0.890625
1630932205562,0.390625,-0.109375,0.90625
1630932205593,0.390625,-0.109375,0.90625
1630932205625,0.390625,-0.109375,0.890625
1630932205656,0.390625,-0.109375,0.890625
1630932205687,0.390625,-0.109375,0.90625
1630932205718,0.390625,-0.109375,0.890625
1630932205750,0.390625,-0.109375,0.890625
1630932205781,0.390625,-0.109375,0.90625
1630932205812,0.390625,-0.109375,0.890625
1630932205843,0.390625,-0.109375,0.90625
1630932205875,0.390625,-0.109375,0.90625
1630932205906,0.390625,-0.109375,0.890625
1630932205937,0.390625,-0.109375,0.890625
1630932205968,0.390625,-0.109375,0.90625
1630932206000,0.390625,-0.109375,0.890625
1630932206031,0.390625,-0.109375,0.890625
1630932206062,0.390625,-0.109375,0.890625
1630932206093,0.390625,-0.109375,0.90625
1630932206125,0.390625,-0.109375,0.90625
1630932206156,0.390625,-0.109375,0.90625
1630932206187,0.390625,-0.109375,0.90625
1630932206218,0.390625,-0.109375,0.90625
1630932206250,0.390625,-0.109375,0.90625
1630932206281,0.390625,-0.109375,0.890625
1630932206312,0.390625,-0.109375,0.90625
1630932206343,0.390625,-0.109375,0.890625
1630932206375,0.390625,-0.109375,0.90625
1630932206406,0.390625,-0.109375,0.90625
1630932206437,0.390625,-0.109375,0.90625
1630932206468,0.390625,-0.109375,0.890625
1630932206500,0.390625,-0.109375,0.90625
1630932206531,0.390625,-0.109375,0.890625
1630932206562,0.390625,-0.109375,0.90625
1630932206593,0.390625,-0.109375,0.90625
1630932206625,0.390625,-0.109375,0.90625
1630932206656,0.390625,-0.109375,0.890625
1630932206687,0.390625,-0.109375,0.90625
1630932206718,0.390625,-0.109375,0.90625
1630932206750,0.390625,-0.109375,0.890625
1630932206781,0.390625,-0.109375,0.890625
1630932206812,0.390625,-0.109375,0.90625
1630932206843,0.390625,-0.109375,0.890625
1630932206875,0.390625,-0.109375,0.890625
1630932206906,0.390625,-0.109375,0.90625
1630932206937,0.390625,-0.109375,0.90625
1630932206968,0.390625,-0.109375,0.890625
1630932207000,0.390625,-0.109375,0.90625
1630932207031,0.390625,-0.109375,0.90625
1630932207062,0.390625,-0.109375,0.90625
1630932207093,0.390625,-0.109375,0.890625
1630932207125,0.375,-0.109375,0.890625
1630932207156,0.390625,-0.109375,0.890625
1630932207187,0.390625,-0.109375,0.890625
1630932207218,0.390625,-0.109375,0.90625
1630932207250,0.390625,-0.109375,0.90625
1630932207281,0.390625,-0.109375,0.90625
1630932207312,0.390625,-0.109375,0.90625
1630932207343,0.390625,-0.109375,0.890625
1630932207375,0.390625,-0.109375,0.890625
1630932207406,0.390625,-0.109375,0.90625
1630932207437,0.375,-0.109375,0.90625
1630932207468,0.390625,-0.109375,0.890625
1630932207500,0.390625,-0.109375,0.90625
1630932207531,0.390625,-0.109375,0.90625
1630932207562,0.390625,-0.109375,0.90625
1630932207593,0.390625,-0.109375,0.90625
1630932207625,0.390625,-0.109375,0.90625
1630932207656,0.390625,-0.109375,0.90625
1630932207687,0.390625,-0.109375,0.90625
1630932207718,0.375,-0.109375,0.890625
1630932207750,0.390625,-0.109375,0.90625
1630932207781,0.390625,-0.109375,0.90625
1630932207812,0.390625,-0.109375,0.90625
1630932207843,0.390625,-0.109375,0.890625
1630932207875,0.390625,-0.109375,0.890625
1630932207906,0.390625,-0.109375,0.90625
1630932207937,0.390625,-0.109375,0.90625
1630932207968,0.390625,-0.109375,0.90625
1630932208000,0.375,-0.109375,0.90625
1630932208031,0.390625,-0.109375,0.90625
1630932208062,0.390625,-0.09375,0.890625
1630932208093,0.390625,-0.109375,0.90625
1630932208125,0.390625,-0.109375,0.890625
1630932208156,0.40625,-0.109375,0.890625
1630932208187,0.40625,-0.109375,0.890625
1630932208218,0.390625,-0.109375,0.90625
1630932208250,0.390625,-0.125,0.890625
1630932208281,0.390625,-0.125,0.90625
1630932208312,0.390625,-0.125,0.90625
