timestamp,ax,ay,az
1629376330000,-0.53125,0.390625,0.734375
1629376330031,-0.53125,0.390625,0.734375
1629376330062,-0.53125,0.375,0.734375
1629376330093,-0.546875,0.375,0.734375
1629376330125,-0.546875,0.390625,0.734375
1629376330156,-0.53125,0.375,0.734375
1629376330187,-0.546875,0.390625,0.734375
1629376330218,-0.53125,0.375,0.734375
1629376330250,-0.53125,0.390625,0.734375
1629376330281,-0.546875,0.375,0.734375
1629376330312,-0.546875,0.375,0.734375
1629376330343,-0.53125,0.375,0.734375
1629376330375,-0.546875,0.375,0.734375
1629376330406,-0.53125,0.375,0.734375
1629376330437,-0.53125,0.375,0.734375
1629376330468,-0.53125,0.375,0.734375
1629376330500,-0.53125,0.375,0.734375
1629376330531,-0.546875,0.375,0.734375
1629376330562,-0.53125,0.375,0.734375
1629376330593,-0.546875,0.375,0.734375
1629376330625,-0.53125,0.375,0.734375
1629376330656,-0.53125,0.375,0.734375
1629376330687,-0.53125,0.375,0.734375
1629376330718,-0.53125,0.375,0.734375
1629376330750,-0.546875,0.375,0.734375
1629376330781,-0.546875,0.375,0.734375
1629376330812,-0.546875,0.390625,0.734375
1629376330843,-0.546875,0.375,0.734375
1629376330875,-0.546875,0.375,0.734375
1629376330906,-0.546875,0.375,0.734375
1629376330937,-0.53125,0.390625,0.734375
1629376330968,-0.546875,0.375,0.734375
1629376331000,-0.53125,0.375,0.734375
1629376331031,-0.53125,0.375,0.734375
1629376331062,-0.53125,0.375,0.734375
1629376331093,-0.546875,0.390625,0.734375
1629376331125,-0.53125,0.375,0.734375
1629376331156,-0.53125,0.375,0.734375
1629376331187,-0.53125,0.375,0.734375
1629376331218,-0.53125,0.375,0.734375
1629376331250,-0.546875,0.375,0.734375
1629376331281,-0.53125,0.390625,0.734375
1629376331312,-0.53125,0.375,0.734375
1629376331343,-0.53125,0.375,0.734375
1629376331375,-0.546875,0.375,0.71875
1629376331406,-0.53125,0.390625,0.734375
1629376331437,-0.53125,0.375,0.734375
1629376331468,-0.546875,0.390625,0.71875
1629376331500,-0.546875,0.390625,0.71875
1629376331531,-0.546875,0.375,0.71875
1629376331562,-0.546875,0.390625,0.734375
1629376331593,-0.546875,0.390625,0.734375
1629376331625,-0.546875,0.390625,0.734375
1629376331656,-0.546875,0.390625,0.71875
1629376331687,-0.5625,0.375,0.71875
1629376331718,-0.5625,0.375,0.71875
1629376331750,-0.5625,0.375,0.71875
1629376331781,-0.578125,0.375,0.71875
1629376331812,-0.578125,0.375,0.71875
1629376331843,-0.5625,0.375,0.71875
1629376331875,-0.546875,0.375,0.71875
1629376331906,-0.5625,0.359375,0.71875
1629376331937,-0.59375,0.375,0.6875
1629376331968,-0.609375,0.375,0.6875
1629376332000,-0.609375,0.375,0.671875
1629376332031,-0.640625,0.375,0.65625
1629376332062,-0.640625,0.359375,0.65625
1629376332093,-0.671875,0.34375,0.640625
1629376332125,-0.671875,0.34375,0.640625
1629376332156,-0.8125,0.28125,0.578125
1629376332187,-0.59375,0.328125,0.734375
1629376332218,-0.625,0.3125,0.71875
1629376332250,-0.671875,0.28125,0.65625
1629376332281,-0.703125,0.28125,0.65625
1629376332312,-0.71875,0.296875,0.625
1629376332343,-0.734375,0.296875,0.5625
1629376332375,-0.75,0.3125,0.578125
1629376332406,-0.734375,0.34375,0.609375
1629376332437,-0.765625,0.3125,0.578125
1629376332468,-0.765625,0.3125,0.5625
1629376332500,-0.75,0.28125,0.59375
1629376332531,-0.734375,0.28125,0.625
1629376332562,-0.71875,0.265625,0.640625
1629376332593,-0.71875,0.265625,0.640625
1629376332625,-0.71875,0.25,0.609375
1629376332656,-0.640625,0.28125,0.734375
1629376332687,-0.65625,0.328125,0.75
1629376332718,-0.734375,0.34375,0.703125
1629376332750,-0.890625,0.453125,0.71875
1629376332781,-0.921875,0.421875,0.71875
1629376332812,-0.78125,0.34375,0.703125
1629376332843,-0.609375,0.3125,0.78125
1629376332875,-0.515625,0.359375,0.8125
1629376332906,-0.625,0.234375,0.703125
1629376332937,-0.59375,0.234375,0.65625
1629376332968,-0.5625,0.234375,0.640625
1629376333000,-0.59375,0.15625,0.609375
1629376333031,-0.5,0.140625,0.65625
1629376333062,-0.515625,0.09375,0.625
1629376333093,-0.5,0.0625,0.5625
1629376333125,-0.625,0.0625,0.65625
1629376333156,-0.640625,0.046875,0.5625
1629376333187,-0.734375,0.078125,0.46875
1629376333218,-0.96875,0.109375,0.375
1629376333250,-1.34375,0.1875,0.578125
1629376333281,-0.84375,0.15625,0.75
1629376333312,-0.53125,0.171875,0.796875
1629376333343,-0.640625,0.171875,0.859375
1629376333375,-0.828125,0.125,0.625
1629376333406,-0.734375,0.140625,0.59375
1629376333437,-0.609375,0.171875,0.5625
1629376333468,-0.671875,0.125,0.5
1629376333500,-0.6875,0.140625,0.515625
1629376333531,-0.734375,0.125,0.578125
1629376333562,-0.6875,0.125,0.609375
1629376333593,-0.71875,0.140625,0.671875
1629376333625,-0.765625,0.15625,0.703125
1629376333656,-0.78125,0.171875,0.71875
1629376333687,-0.703125,0.203125,0.71875
1629376333718,-0.703125,0.203125,0.71875
1629376333750,-0.671875,0.203125,0.71875
1629376333781,-0.65625,0.1875,0.703125
1629376333812,-0.703125,0.1875,0.671875
1629376333843,-0.6875,0.171875,0.6875
1629376333875,-0.6875,0.171875,0.703125
1629376333906,-0.640625,0.15625,0.703125
1629376333937,-0.671875,0.15625,0.703125
1629376333968,-0.65625,0.15625,0.734375
1629376334000,-0.625,0.171875,0.734375
1629376334031,-0.640625,0.171875,0.734375
1629376334062,-0.65625,0.171875,0.734375
1629376334093,-0.640625,0.171875,0.75
1629376334125,-0.640625,0.15625,0.75
1629376334156,-0.640625,0.15625,0.734375
1629376334187,-0.640625,0.171875,0.734375
1629376334218,-0.640625,0.171875,0.734375
1629376334250,-0.640625,0.171875,0.734375
1629376334281,-0.625,0.171875,0.734375
1629376334312,-0.640625,0.171875,0.734375
1629376334343,-0.640625,0.171875,0.75
1629376334375,-0.625,0.171875,0.734375
1629376334406,-0.625,0.171875,0.734375
1629376334437,-0.640625,0.15625,0.734375
1629376334468,-0.640625,0.171875,0.734375
1629376334500,-0.640625,0.171875,0.734375
1629376334531,-0.640625,0.171875,0.734375
1629376334562,-0.640625,0.171875,0.75
1629376334593,-0.625,0.171875,0.75
1629376334625,-0.625,0.171875,0.734375
1629376334656,-0.625,0.15625,0.734375
1629376334687,-0.625,0.171875,0.734375
1629376334718,-0.625,0.171875,0.734375
1629376334750,-0.625,0.171875,0.75
1629376334781,-0.625,0.171875,0.75
1629376334812,-0.640625,0.171875,0.75
1629376334843,-0.640625,0.171875,0.75
1629376334875,-0.625,0.171875,0.75
1629376334906,-0.625,0.171875,0.75
1629376334937,-0.625,0.171875,0.75
1629376334968,-0.625,0.171875,0.734375
1629376335000,-0.625,0.171875,0.75
1629376335031,-0.640625,0.171875,0.75
1629376335062,-0.625,0.171875,0.75
1629376335093,-0.609375,0.171875,0.75
1629376335125,-0.609375,0.15625,0.75
1629376335156,-0.625,0.171875,0.734375
1629376335187,-0.625,0.171875,0.75
1629376335218,-0.625,0.171875,0.75
1629376335250,-0.625,0.171875,0.75
1629376335281,-0.625,0.171875,0.75
1629376335312,-0.625,0.171875,0.75
1629376335343,-0.609375,0.15625,0.75
1629376335375,-0.609375,0.15625,0.75
1629376335406,-0.609375,0.15625,0.75
1629376335437,-0.609375,0.15625,0.75
1629376335468,-0.609375,0.15625,0.75
1629376335500,-0.609375,0.171875,0.75
1629376335531,-0.609375,0.171875,0.75
1629376335562,-0.609375,0.15625,0.75
1629376335593,-0.609375,0.171875,0.75
1629376335625,-0.625,0.15625,0.765625
1629376335656,-0.609375,0.15625,0.765625
1629376335687,-0.609375,0.15625,0.75
1629376335718,-0.609375,0.15625,0.75
1629376335750,-0.625,0.171875,0.75
1629376335781,-0.609375,0.171875,0.75
1629376335812,-0.609375,0.171875,0.75
1629376335843,-0.625,0.171875,0.75
1629376335875,-0.609375,0.171875,0.765625
1629376335906,-0.609375,0.171875,0.765625
1629376335937,-0.609375,0.15625,0.75
1629376335968,-0.609375,0.15625,0.75
1629376336000,-0.609375,0.15625,0.75
1629376336031,-0.609375,0.15625,0.765625
1629376336062,-0.609375,0.171875,0.78125
1629376336093,-0.609375,0.15625,0.765625
1629376336125,-0.609375,0.15625,0.75
1629376336156,-0.609375,0.15625,0.75
1629376336187,-0.609375,0.15625,0.765625
1629376336218,-0.609375,0.15625,0.765625
1629376336250,-0.59375,0.15625,0.78125
1629376336281,-0.59375,0.140625,0.78125
1629376336312,-0.59375,0.140625,0.765625
1629376336343,-0.578125,0.140625,0.75
1629376336375,-0.59375,0.140625,0.75
1629376336406,-0.609375,0.15625,0.75
1629376336437,-0.609375,0.15625,0.765625
1629376336468,-0.609375,0.171875,0.765625
1629376336500,-0.609375,0.171875,0.765625
1629376336531,-0.609375,0.171875,0.75
1629376336562,-0.609375,0.15625,0.765625
1629376336593,-0.609375,0.15625,0.78125
1629376336625,-0.59375,0.15625,0.78125
1629376336656,-0.59375,0.15625,0.78125
1629376336687,-0.59375,0.15625,0.78125
1629376336718,-0.59375,0.15625,0.78125
1629376336750,-0.59375,0.15625,0.78125
1629376336781,-0.578125,0.15625,0.765625
1629376336812,-0.578125,0.15625,0.765625
1629376336843,-0.59375,0.15625,0.78125
1629376336875,-0.59375,0.15625,0.78125
1629376336906,-0.59375,0.171875,0.78125
1629376336937,-0.59375,0.171875,0.78125
1629376336968,-0.578125,0.1875,0.78125
1629376337000,-0.59375,0.171875,0.765625
1629376337031,-0.59375,0.171875,0.78125
1629376337062,-0.578125,0.15625,0.78125
1629376337093,-0.578125,0.15625,0.78125
1629376337125,-0.578125,0.15625,0.78125
1629376337156,-0.578125,0.171875,0.78125
1629376337187,-0.59375,0.171875,0.765625
1629376337218,-0.59375,0.171875,0.78125
1629376337250,-0.59375,0.171875,0.765625
1629376337281,-0.59375,0.171875,0.78125
1629376337312,-0.578125,0.171875,0.78125
1629376337343,-0.578125,0.171875,0.78125
1629376337375,-0.59375,0.171875,0.78125
1629376337406,-0.59375,0.171875,0.78125
1629376337437,-0.578125,0.171875,0.78125
1629376337468,-0.59375,0.171875,0.765625
1629376337500,-0.59375,0.171875,0.765625
1629376337531,-0.59375,0.15625,0.765625
1629376337562,-0.59375,0.171875,0.765625
1629376337593,-0.59375,0.171875,0.78125
1629376337625,-0.59375,0.171875,0.765625
1629376337656,-0.59375,0.1875,0.78125
1629376337687,-0.59375,0.1875,0.78125
1629376337718,-0.59375,0.1875,0.78125
1629376337750,-0.59375,0.1875,0.78125
1629376337781,-0.59375,0.1875,0.765625
1629376337812,-0.59375,0.1875,0.75
1629376337843,-0.59375,0.1875,0.765625
1629376337875,-0.59375,0.1875,0.78125
1629376337906,-0.59375,0.171875,0.78125
1629376337937,-0.59375,0.171875,0.78125
1629376337968,-0.59375,0.171875,0.765625
1629376338000,-0.578125,0.171875,0.765625
1629376338031,-0.578125,0.171875,0.765625
1629376338062,-0.578125,0.171875,0.78125
1629376338093,-0.578125,0.171875,0.78125
1629376338125,-0.578125,0.171875,0.78125
1629376338156,-0.578125,0.1875,0.765625
1629376338187,-0.59375,0.1875,0.78125
1629376338218,-0.59375,0.171875,0.78125
1629376338250,-0.578125,0.171875,0.78125
1629376338281,-0.59375,0.171875,0.78125
1629376338312,-0.578125,0.171875,0.78125
1629376338343,-0.578125,0.171875,0.78125
1629376338375,-0.578125,0.1875,0.78125
1629376338406,-0.578125,0.1875,0.78125
1629376338437,-0.578125,0.171875,0.78125
1629376338468,-0.578125,0.171875,0.78125
1629376338500,-0.578125,0.171875,0.78125
1629376338531,-0.578125,0.171875,0.78125
1629376338562,-0.578125,0.1875,0.78125
1629376338593,-0.578125,0.171875,0.78125
1629376338625,-0.59375,0.1875,0.78125
1629376338656,-0.578125,0.1875,0.796875
1629376338687,-0.578125,0.1875,0.78125
1629376338718,-0.578125,0.1875,0.78125
1629376338750,-0.578125,0.1875,0.765625
1629376338781,-0.578125,0.1875,0.765625
1629376338812,-0.578125,0.1875,0.765625
1629376338843,-0.578125,0.1875,0.78125
1629376338875,-0.578125,0.1875,0.78125
1629376338906,-0.578125,0.1875,0.78125
1629376338937,-0.578125,0.1875,0.796875
1629376338968,-0.578125,0.1875,0.78125
1629376339000,-0.578125,0.1875,0.78125
1629376339031,-0.578125,0.1875,0.78125
1629376339062,-0.578125,0.1875,0.78125
1629376339093,-0.578125,0.1875,0.78125
1629376339125,-0.578125,0.1875,0.78125
1629376339156,-0.578125,0.1875,0.78125
1629376339187,-0.578125,0.1875,0.78125
1629376339218,-0.5625,0.1875,0.78125
1629376339250,-0.578125,0.1875,0.78125
1629376339281,-0.59375,0.1875,0.78125
1629376339312,-0.578125,0.1875,0.78125
1629376339343,-0.578125,0.1875,0.78125
1629376339375,-0.5625,0.1875,0.78125
1629376339406,-0.578125,0.1875,0.78125
1629376339437,-0.5625,0.1875,0.78125
1629376339468,-0.578125,0.1875,0.78125
1629376339500,-0.578125,0.1875,0.796875
1629376339531,-0.578125,0.1875,0.796875
1629376339562,-0.5625,0.1875,0.78125
1629376339593,-0.578125,0.171875,0.78125
1629376339625,-0.578125,0.1875,0.78125
1629376339656,-0.5625,0.1875,0.78125
1629376339687,-0.5625,0.1875,0.796875
1629376339718,-0.5625,0.171875,0.796875
1629376339750,-0.5625,0.171875,0.796875
1629376339781,-0.5625,0.171875,0.78125
1629376339812,-0.5625,0.171875,0.78125
1629376339843,-0.578125,0.171875,0.78125
1629376339875,-0.5625,0.1875,0.78125
1629376339906,-0.578125,0.1875,0.78125
1629376339937,-0.5625,0.1875,0.78125
1629376339968,-0.5625,0.171875,0.796875
1629376340000,-0.5625,0.171875,0.796875
1629376340031,-0.5625,0.171875,0.796875
1629376340062,-0.5625,0.171875,0.796875
1629376340093,-0.5625,0.1875,0.796875
1629376340125,-0.5625,0.1875,0.796875
1629376340156,-0.5625,0.171875,0.796875
1629376340187,-0.5625,0.1875,0.796875
1629376340218,-0.5625,0.1875,0.78125
1629376340250,-0.5625,0.171875,0.78125
1629376340281,-0.578125,0.1875,0.796875
1629376340312,-0.5625,0.1875,0.796875
1629376340343,-0.5625,0.1875,0.78125
1629376340375,-0.5625,0.1875,0.796875
1629376340406,-0.5625,0.1875,0.78125
1629376340437,-0.5625,0.171875,0.796875
1629376340468,-0.5625,0.171875,0.78125
1629376340500,-0.5625,0.171875,0.796875
1629376340531,-0.5625,0.1875,0.796875
1629376340562,-0.5625,0.1875,0.78125
1629376340593,-0.5625,0.1875,0.78125
1629376340625,-0.578125,0.1875,0.78125
1629376340656,-0.5625,0.1875,0.78125
1629376340687,-0.5625,0.1875,0.78125
1629376340718,-0.578125,0.1875,0.796875
1629376340750,-0.5625,0.1875,0.78125
1629376340781,-0.5625,0.1875,0.78125
1629376340812,-0.578125,0.1875,0.78125
1629376340843,-0.5625,0.1875,0.78125
1629376340875,-0.5625,0.1875,0.796875
1629376340906,-0.5625,0.1875,0.78125
1629376340937,-0.5625,0.1875,0.796875
1629376340968,-0.5625,0.1875,0.78125
1629376341000,-0.5625,0.1875,0.78125
1629376341031,-0.5625,0.1875,0.78125
1629376341062,-0.5625,0.171875,0.796875
1629376341093,-0.578125,0.1875,0.78125
1629376341125,-0.5625,0.1875,0.78125
1629376341156,-0.578125,0.1875,0.78125
1629376341187,-0.578125,0.1875,0.78125
1629376341218,-0.5625,0.1875,0.78125
1629376341250,-0.578125,0.1875,0.796875
1629376341281,-0.5625,0.1875,0.78125
1629376341312,-0.5625,0.171875,0.796875
1629376341343,-0.5625,0.1875,0.796875
1629376341375,-0.5625,0.171875,0.796875
1629376341406,-0.5625,0.171875,0.796875
1629376341437,-0.5625,0.171875,0.796875
1629376341468,-0.5625,0.171875,0.78125
1629376341500,-0.5625,0.1875,0.796875
1629376341531,-0.5625,0.1875,0.78125
1629376341562,-0.5625,0.171875,0.78125
1629376341593,-0.5625,0.171875,0.78125
1629376341625,-0.5625,0.171875,0.796875
1629376341656,-0.5625,0.1875,0.796875
1629376341687,-0.5625,0.1875,0.796875
1629376341718,-0.5625,0.171875,0.796875
1629376341750,-0.578125,0.171875,0.78125
1629376341781,-0.578125,0.1875,0.78125
1629376341812,-0.5625,0.171875,0.796875
1629376341843,-0.5625,0.1875,0.796875
1629376341875,-0.5625,0.171875,0.796875
1629376341906,-0.5625,0.171875,0.796875
1629376341937,-0.5625,0.171875,0.78125
1629376341968,-0.5625,0.1875,0.796875
1629376342000,-0.5625,0.171875,0.796875
1629376342031,-0.5625,0.171875,0.796875
1629376342062,-0.5625,0.171875,0.796875
1629376342093,-0.5625,0.171875,0.796875
1629376342125,-0.5625,0.171875,0.796875
1629376342156,-0.5625,0.171875,0.796875
1629376342187,-0.5625,0.171875,0.796875
1629376342218,-0.5625,0.171875,0.796875
1629376342250,-0.5625,0.171875,0.78125
1629376342281,-0.5625,0.171875,0.796875
1629376342312,-0.5625,0.171875,0.796875
1629376342343,-0.5625,0.171875,0.78125
1629376342375,-0.5625,0.1875,0.78125
1629376342406,-0.578125,0.171875,0.78125
1629376342437,-0.578125,0.171875,0.78125
1629376342468,-0.5625,0.1875,0.796875
1629376342500,-0.5625,0.1875,0.78125
1629376342531,-0.5625,0.1875,0.78125
1629376342562,-0.5625,0.1875,0.796875
1629376342593,-0.5625,0.1875,0.796875
1629376342625,-0.5625,0.1875,0.796875
1629376342656,-0.578125,0.1875,0.796875
1629376342687,-0.578125,0.171875,0.796875
1629376342718,-0.5625,0.171875,0.796875
1629376342750,-0.5625,0.171875,0.796875
1629376342781,-0.5625,0.171875,0.78125
1629376342812,-0.5625,0.171875,0.796875
1629376342843,-0.5625,0.171875,0.78125
1629376342875,-0.5625,0.1875,0.796875
1629376342906,-0.5625,0.171875,0.796875
1629376342937,-0.5625,0.1875,0.796875
1629376342968,-0.5625,0.171875,0.78125
1629376343000,-0.5625,0.1875,0.78125
1629376343031,-0.5625,0.1875,0.796875
1629376343062,-0.5625,0.171875,0.796875
1629376343093,-0.5625,0.1875,0.796875
1629376343125,-0.5625,0.171875,0.78125
1629376343156,-0.5625,0.1875,0.796875
1629376343187,-0.5625,0.171875,0.796875
1629376343218,-0.5625,0.171875,0.78125
1629376343250,-0.5625,0.1875,0.78125
1629376343281,-0.5625,0.1875,0.796875
1629376343312,-0.5625,0.171875,0.796875
1629376343343,-0.5625,0.1875,0.796875
1629376343375,-0.5625,0.1875,0.796875
1629376343406,-0.5625,0.1875,0.78125
1629376343437,-0.5625,0.1875,0.796875
1629376343468,-0.5625,0.1875,0.796875
1629376343500,-0.5625,0.1875,0.796875
1629376343531,-0.5625,0.1875,0.796875
1629376343562,-0.5625,0.1875,0.796875
1629376343593,-0.5625,0.1875,0.796875
1629376343625,-0.5625,0.1875,0.796875
1629376343656,-0.5625,0.1875,0.796875
1629376343687,-0.5625,0.1875,0.796875
1629376343718,-0.5625,0.1875,0.796875
1629376343750,-0.5625,0.1875,0.796875
1629376343781,-0.5625,0.1875,0.796875
1629376343812,-0.5625,0.1875,0.78125
1629376343843,-0.546875,0.1875,0.796875
1629376343875,-0.546875,0.1875,0.796875
1629376343906,-0.546875,0.1875,0.796875
1629376343937,-0.546875,0.1875,0.796875
1629376343968,-0.546875,0.1875,0.796875
1629376344000,-0.546875,0.1875,0.796875
1629376344031,-0.546875,0.1875,0.796875
1629376344062,-0.546875,0.1875,0.796875
1629376344093,-0.546875,0.1875,0.796875
1629376344125,-0.5625,0.1875,0.796875
1629376344156,-0.546875,0.1875,0.796875
1629376344187,-0.546875,0.1875,0.796875
1629376344218,-0.546875,0.1875,0.796875
1629376344250,-0.546875,0.1875,0.796875
1629376344281,-0.546875,0.1875,0.796875
1629376344312,-0.5625,0.1875,0.796875
1629376344343,-0.5625,0.1875,0.796875
1629376344375,-0.5625,0.1875,0.796875
1629376344406,-0.546875,0.1875,0.796875
1629376344437,-0.546875,0.1875,0.796875
1629376344468,-0.5625,0.1875,0.796875
1629376344500,-0.5625,0.171875,0.796875
1629376344531,-0.5625,0.1875,0.796875
1629376344562,-0.5625,0.1875,0.796875
1629376344593,-0.5625,0.1875,0.796875
1629376344625,-0.5625,0.1875,0.796875
1629376344656,-0.5625,0.1875,0.796875
1629376344687,-0.5625,0.1875,0.796875
1629376344718,-0.546875,0.1875,0.796875
1629376344750,-0.5625,0.1875,0.796875
1629376344781,-0.5625,0.1875,0.796875
1629376344812,-0.5625,0.1875,0.796875
1629376344843,-0.5625,0.1875,0.796875
1629376344875,-0.5625,0.1875,0.796875
1629376344906,-0.5625,0.1875,0.796875
1629376344937,-0.5625,0.1875,0.796875
1629376344968,-0.5625,0.1875,0.796875
1629376345000,-0.5625,0.1875,0.796875
1629376345031,-0.5625,0.1875,0.796875
1629376345062,-0.5625,0.1875,0.796875
1629376345093,-0.5625,0.1875,0.796875
1629376345125,-0.5625,0.1875,0.796875
1629376345156,-0.5625,0.1875,0.796875
1629376345187,-0.5625,0.171875,0.796875
1629376345218,-0.5625,0.1875,0.796875
1629376345250,-0.5625,0.1875,0.796875
1629376345281,-0.5625,0.1875,0.796875
1629376345312,-0.5625,0.1875,0.796875
1629376345343,-0.5625,0.171875,0.796875
1629376345375,-0.5625,0.1875,0.796875
1629376345406,-0.5625,0.1875,0.796875
1629376345437,-0.5625,0.1875,0.796875
1629376345468,-0.5625,0.171875,0.796875
1629376345500,-0.5625,0.1875,0.796875
1629376345531,-0.5625,0.1875,0.796875
1629376345562,-0.5625,0.1875,0.796875
1629376345593,-0.5625,0.1875,0.796875
1629376345625,-0.5625,0.171875,0.796875
1629376345656,-0.5625,0.1875,0.796875
1629376345687,-0.5625,0.1875,0.796875
1629376345718,-0.5625,0.1875,0.796875
1629376345750,-0.5625,0.171875,0.796875
1629376345781,-0.5625,0.171875,0.796875
1629376345812,-0.5625,0.171875,0.796875
1629376345843,-0.5625,0.171875,0.796875
1629376345875,-0.5625,0.171875,0.796875
1629376345906,-0.5625,0.1875,0.796875
1629376345937,-0.5625,0.1875,0.796875
1629376345968,-0.5625,0.171875,0.796875
1629376346000,-0.5625,0.1875,0.796875
1629376346031,-0.5625,0.171875,0.796875
1629376346062,-0.5625,0.1875,0.796875
1629376346093,-0.5625,0.1875,0.796875
1629376346125,-0.5625,0.171875,0.796875
1629376346156,-0.5625,0.1875,0.796875
1629376346187,-0.5625,0.1875,0.78125
1629376346218,-0.5625,0.171875,0.796875
1629376346250,-0.5625,0.1875,0.796875
1629376346281,-0.5625,0.1875,0.796875
1629376346312,-0.5625,0.1875,0.796875
1629376346343,-0.5625,0.1875,0.796875
1629376346375,-0.5625,0.171875,0.796875
1629376346406,-0.546875,0.1875,0.796875
1629376346437,-0.546875,0.171875,0.78125
1629376346468,-0.5625,0.171875,0.796875
1629376346500,-0.5625,0.171875,0.796875
1629376346531,-0.5625,0.1875,0.796875
1629376346562,-0.5625,0.1875,0.796875
1629376346593,-0.5625,0.1875,0.796875
1629376346625,-0.5625,0.1875,0.796875
1629376346656,-0.5625,0.1875,0.796875
1629376346687,-0.5625,0.171875,0.796875
1629376346718,-0.5625,0.1875,0.796875
1629376346750,-0.5625,0.171875,0.796875
1629376346781,-0.546875,0.1875,0.796875
1629376346812,-0.546875,0.171875,0.796875
1629376346843,-0.546875,0.171875,0.78125
1629376346875,-0.578125,0.171875,0.78125
1629376346906,-0.5625,0.1875,0.796875
1629376346937,-0.5625,0.1875,0.796875
1629376346968,-0.5625,0.1875,0.796875
1629376347000,-0.5625,0.1875,0.796875
1629376347031,-0.5625,0.1875,0.78125
1629376347062,-0.5625,0.1875,0.78125
1629376347093,-0.5625,0.1875,0.796875
1629376347125,-0.5625,0.1875,0.796875
1629376347156,-0.5625,0.1875,0.796875
1629376347187,-0.5625,0.1875,0.796875
1629376347218,-0.5625,0.1875,0.796875
1629376347250,-0.546875,0.1875,0.796875
1629376347281,-0.5625,0.1875,0.796875
1629376347312,-0.5625,0.1875,0.796875
1629376347343,-0.5625,0.1875,0.796875
1629376347375,-0.5625,0.1875,0.796875
1629376347406,-0.5625,0.1875,0.796875
1629376347437,-0.5625,0.1875,0.796875
1629376347468,-0.5625,0.1875,0.796875
1629376347500,-0.5625,0.1875,0.796875
1629376347531,-0.546875,0.1875,0.796875
1629376347562,-0.5625,0.1875,0.796875
1629376347593,-0.5625,0.1875,0.796875
1629376347625,-0.5625,0.1875,0.796875
1629376347656,-0.546875,0.1875,0.796875
1629376347687,-0.5625,0.171875,0.796875
1629376347718,-0.546875,0.1875,0.796875
1629376347750,-0.5625,0.1875,0.796875
1629376347781,-0.5625,0.1875,0.796875
1629376347812,-0.5625,0.1875,0.796875
1629376347843,-0.5625,0.1875,0.796875
1629376347875,-0.5625,0.1875,0.796875
1629376347906,-0.5625,0.1875,0.796875
1629376347937,-0.5625,0.1875,0.796875
1629376347968,-0.5625,0.1875,0.796875
1629376348000,-0.5625,0.1875,0.796875
1629376348031,-0.546875,0.1875,0.796875
1629376348062,-0.5625,0.1875,0.796875
1629376348093,-0.5625,0.1875,0.796875
1629376348125,-0.5625,0.1875,0.796875
1629376348156,-0.546875,0.1875,0.796875
1629376348187,-0.5625,0.171875,0.796875
1629376348218,-0.5625,0.1875,0.796875
1629376348250,-0.5625,0.1875,0.796875
1629376348281,-0.5625,0.171875,0.796875
1629376348312,-0.5625,0.1875,0.796875
1629376348343,-0.5625,0.1875,0.796875
1629376348375,-0.5625,0.171875,0.796875
1629376348406,-0.5625,0.1875,0.796875
1629376348437,-0.5625,0.1875,0.796875
1629376348468,-0.5625,0.1875,0.796875
1629376348500,-0.5625,0.1875,0.796875
1629376348531,-0.5625,0.1875,0.796875
1629376348562,-0.5625,0.1875,0.796875
1629376348593,-0.5625,0.1875,0.796875
1629376348625,-0.5625,0.1875,0.796875
1629376348656,-0.5625,0.1875,0.796875
1629376348687,-0.5625,0.1875,0.796875
1629376348718,-0.5625,0.1875,0.796875
1629376348750,-0.5625,0.1875,0.796875
1629376348781,-0.5625,0.1875,0.796875
1629376348812,-0.5625,0.1875,0.796875
1629376348843,-0.5625,0.1875,0.796875
1629376348875,-0.5625,0.1875,0.796875
1629376348906,-0.5625,0.1875,0.796875
1629376348937,-0.5625,0.171875,0.796875
1629376348968,-0.5625,0.1875,0.796875
1629376349000,-0.5625,0.1875,0.796875
1629376349031,-0.5625,0.1875,0.796875
1629376349062,-0.5625,0.1875,0.796875
1629376349093,-0.5625,0.1875,0.796875
1629376349125,-0.5625,0.1875,0.796875
1629376349156,-0.5625,0.1875,0.796875
1629376349187,-0.5625,0.1875,0.796875
1629376349218,-0.5625,0.1875,0.796875
1629376349250,-0.5625,0.1875,0.796875
1629376349281,-0.5625,0.1875,0.796875
1629376349312,-0.5625,0.1875,0.796875
1629376349343,-0.5625,0.1875,0.796875
1629376349375,-0.5625,0.1875,0.796875
1629376349406,-0.546875,0.1875,0.796875
1629376349437,-0.5625,0.1875,0.796875
1629376349468,-0.5625,0.1875,0.796875
1629376349500,-0.5625,0.1875,0.78125
1629376349531,-0.5625,0.1875,0.796875
1629376349562,-0.59375,0.171875,0.78125
1629376349593,-0.625,0.1875,0.75
1629376349625,-0.640625,0.1875,0.765625
1629376349656,-0.625,0.21875,0.734375
1629376349687,-0.59375,0.1875,0.75
1629376349718,-0.609375,0.203125,0.765625
1629376349750,-0.6875,0.171875,0.65625
1629376349781,-0.6875,0.171875,0.640625
1629376349812,-0.703125,0.15625,0.625
1629376349843,-0.703125,0.15625,0.65625
1629376349875,-0.734375,0.15625,0.671875
1629376349906,-0.703125,0.1875,0.59375
1629376349937,-0.734375,0.1875,0.5
1629376349968,-0.953125,0.15625,0.171875
1629376350000,-1.015625,0.234375,0.140625
1629376350031,-1.109375,0.25,0.15625
1629376350062,-1.046875,0.234375,0.234375
1629376350093,-1.140625,0.25,0.359375
1629376350125,-0.9375,0.203125,0.390625
1629376350156,-1.21875,0.234375,0.28125
1629376350187,-1.21875,0.15625,0.3125
1629376350218,-0.859375,0.0625,0.390625
1629376350250,-0.75,0.046875,0.484375
1629376350281,-0.703125,0.046875,0.515625
1629376350312,-0.640625,0.0625,0.671875
1629376350343,-0.703125,0.078125,0.671875
1629376350375,-0.5,0.109375,0.71875
1629376350406,-0.4375,0.140625,0.671875
1629376350437,-0.171875,0.1875,0.734375
1629376350468,-0.328125,0.25,0.90625
1629376350500,-0.390625,0.28125,0.90625
1629376350531,-0.40625,0.25,0.859375
1629376350562,-0.40625,0.25,0.78125
1629376350593,-0.53125,0.265625,0.78125
1629376350625,-0.390625,0.296875,0.953125
1629376350656,-0.40625,0.265625,0.984375
1629376350687,-0.46875,0.28125,0.921875
1629376350718,-0.328125,0.28125,0.90625
1629376350750,-0.328125,0.28125,0.90625
1629376350781,-0.328125,0.25,0.921875
1629376350812,-0.328125,0.25,0.921875
1629376350843,-0.3125,0.265625,0.890625
1629376350875,-0.3125,0.28125,0.890625
1629376350906,-0.34375,0.28125,0.90625
1629376350937,-0.375,0.265625,0.921875
1629376350968,-0.359375,0.28125,0.96875
1629376351000,-0.390625,0.265625,0.953125
1629376351031,-0.421875,0.25,0.828125
1629376351062,-0.421875,0.265625,0.828125
1629376351093,-0.46875,0.25,0.859375
1629376351125,-0.421875,0.25,0.890625
1629376351156,-0.390625,0.25,0.859375
1629376351187,-0.390625,0.234375,0.828125
1629376351218,-0.390625,0.21875,0.828125
1629376351250,-0.34375,0.171875,0.84375
1629376351281,-0.28125,0.171875,0.78125
1629376351312,-0.515625,0.171875,0.6875
1629376351343,-0.65625,0.171875,0.640625
1629376351375,-0.75,0.171875,0.578125
1629376351406,-0.890625,0.15625,0.4375
1629376351437,-0.90625,0.140625,0.328125
1629376351468,-0.9375,0.125,0.328125
1629376351500,-1.078125,0.109375,0.21875
1629376351531,-1.078125,0.09375,0.171875
1629376351562,-0.921875,0.09375,0.15625
1629376351593,-0.921875,0.078125,0.140625
1629376351625,-0.90625,0.0625,0.140625
1629376351656,-0.859375,0.09375,0.15625
1629376351687,-0.90625,0.09375,0.125
1629376351718,-1.453125,0.046875,-0.125
1629376351750,-1.171875,0.03125,-0.109375
1629376351781,-1.109375,0.09375,-0.171875
1629376351812,-0.90625,0.09375,0.03125
1629376351843,-0.921875,0.0625,0.109375
1629376351875,-0.953125,0.109375,0.1875
1629376351906,-0.75,0.109375,0.5
1629376351937,-0.65625,0.109375,0.59375
1629376351968,-0.5,0.171875,0.828125
1629376352000,-0.6875,0.1875,0.703125
1629376352031,-0.6875,0.21875,0.734375
1629376352062,-0.578125,0.234375,0.84375
1629376352093,-0.484375,0.21875,0.875
1629376352125,-0.390625,0.21875,0.90625
1629376352156,-0.5,0.203125,0.859375
1629376352187,-0.5,0.203125,0.859375
1629376352218,-0.5,0.203125,0.84375
1629376352250,-0.5,0.203125,0.84375
1629376352281,-0.53125,0.1875,0.828125
1629376352312,-0.53125,0.1875,0.828125
1629376352343,-0.53125,0.1875,0.828125
1629376352375,-0.515625,0.171875,0.8125
1629376352406,-0.5,0.171875,0.828125
1629376352437,-0.5,0.171875,0.796875
1629376352468,-0.515625,0.1875,0.796875
1629376352500,-0.53125,0.171875,0.8125
1629376352531,-0.546875,0.1875,0.8125
1629376352562,-0.5625,0.203125,0.8125
1629376352593,-0.546875,0.1875,0.8125
1629376352625,-0.53125,0.1875,0.8125
1629376352656,-0.53125,0.171875,0.8125
1629376352687,-0.515625,0.1875,0.828125
1629376352718,-0.53125,0.1875,0.828125
1629376352750,-0.53125,0.1875,0.828125
1629376352781,-0.53125,0.1875,0.8125
1629376352812,-0.53125,0.1875,0.8125
1629376352843,-0.53125,0.1875,0.8125
1629376352875,-0.53125,0.1875,0.796875
1629376352906,-0.515625,0.203125,0.796875
1629376352937,-0.515625,0.1875,0.8125
1629376352968,-0.515625,0.1875,0.8125
1629376353000,-0.53125,0.1875,0.828125
1629376353031,-0.53125,0.1875,0.796875
1629376353062,-0.53125,0.1875,0.796875
1629376353093,-0.546875,0.1875,0.796875
1629376353125,-0.53125,0.1875,0.8125
1629376353156,-0.53125,0.1875,0.8125
1629376353187,-0.515625,0.1875,0.8125
1629376353218,-0.515625,0.1875,0.8125
1629376353250,-0.53125,0.1875,0.8125
1629376353281,-0.53125,0.1875,0.828125
1629376353312,-0.515625,0.1875,0.8125
1629376353343,-0.515625,0.1875,0.8125
1629376353375,-0.515625,0.1875,0.828125
1629376353406,-0.5,0.1875,0.828125
1629376353437,-0.515625,0.1875,0.828125
1629376353468,-0.515625,0.1875,0.828125
1629376353500,-0.515625,0.1875,0.828125
1629376353531,-0.515625,0.1875,0.828125
1629376353562,-0.515625,0.1875,0.828125
1629376353593,-0.515625,0.1875,0.828125
1629376353625,-0.5,0.1875,0.828125
1629376353656,-0.515625,0.1875,0.828125
1629376353687,-0.5,0.1875,0.828125
1629376353718,-0.5,0.1875,0.828125
1629376353750,-0.515625,0.1875,0.828125
1629376353781,-0.5,0.1875,0.8125
1629376353812,-0.5,0.1875,0.8125
1629376353843,-0.5,0.1875,0.828125
1629376353875,-0.5,0.1875,0.828125
1629376353906,-0.5,0.1875,0.828125
1629376353937,-0.515625,0.1875,0.828125
1629376353968,-0.5,0.203125,0.828125
1629376354000,-0.5,0.203125,0.828125
1629376354031,-0.5,0.203125,0.828125
1629376354062,-0.5,0.203125,0.828125
1629376354093,-0.5,0.1875,0.828125
1629376354125,-0.5,0.203125,0.828125
1629376354156,-0.5,0.203125,0.828125
1629376354187,-0.5,0.203125,0.828125
1629376354218,-0.5,0.203125,0.828125
1629376354250,-0.5,0.203125,0.828125
1629376354281,-0.5,0.203125,0.828125
1629376354312,-0.5,0.203125,0.828125
1629376354343,-0.5,0.203125,0.828125
1629376354375,-0.5,0.203125,0.828125
1629376354406,-0.5,0.203125,0.828125
1629376354437,-0.5,0.1875,0.828125
1629376354468,-0.484375,0.203125,0.828125
1629376354500,-0.484375,0.203125,0.828125
1629376354531,-0.484375,0.203125,0.828125
1629376354562,-0.484375,0.203125,0.84375
1629376354593,-0.453125,0.203125,0.859375
1629376354625,-0.46875,0.203125,0.84375
1629376354656,-0.46875,0.203125,0.84375
1629376354687,-0.46875,0.203125,0.84375
1629376354718,-0.46875,0.203125,0.84375
1629376354750,-0.46875,0.203125,0.84375
1629376354781,-0.46875,0.203125,0.84375
1629376354812,-0.46875,0.203125,0.84375
1629376354843,-0.46875,0.203125,0.84375
1629376354875,-0.46875,0.203125,0.84375
1629376354906,-0.46875,0.203125,0.84375
1629376354937,-0.46875,0.203125,0.84375
1629376354968,-0.46875,0.203125,0.84375
1629376355000,-0.46875,0.203125,0.84375
1629376355031,-0.46875,0.203125,0.84375
1629376355062,-0.46875,0.203125,0.84375
1629376355093,-0.46875,0.203125,0.84375
1629376355125,-0.46875,0.203125,0.84375
1629376355156,-0.46875,0.203125,0.84375
1629376355187,-0.46875,0.203125,0.84375
1629376355218,-0.46875,0.203125,0.84375
1629376355250,-0.46875,0.203125,0.84375
1629376355281,-0.46875,0.203125,0.84375
1629376355312,-0.46875,0.203125,0.84375
1629376355343,-0.46875,0.203125,0.84375
1629376355375,-0.46875,0.203125,0.84375
1629376355406,-0.46875,0.203125,0.84375
1629376355437,-0.46875,0.203125,0.84375
1629376355468,-0.46875,0.203125,0.84375
1629376355500,-0.46875,0.203125,0.84375
1629376355531,-0.46875,0.203125,0.84375
1629376355562,-0.46875,0.203125,0.84375
1629376355593,-0.46875,0.203125,0.84375
1629376355625,-0.46875,0.203125,0.859375
1629376355656,-0.46875,0.203125,0.84375
1629376355687,-0.46875,0.203125,0.84375
1629376355718,-0.46875,0.203125,0.84375
1629376355750,-0.46875,0.203125,0.84375
1629376355781,-0.46875,0.203125,0.84375
1629376355812,-0.46875,0.203125,0.84375
1629376355843,-0.46875,0.203125,0.84375
1629376355875,-0.46875,0.203125,0.84375
1629376355906,-0.46875,0.203125,0.84375
1629376355937,-0.46875,0.203125,0.84375
1629376355968,-0.46875,0.203125,0.84375
1629376356000,-0.46875,0.203125,0.84375
1629376356031,-0.46875,0.203125,0.84375
1629376356062,-0.46875,0.203125,0.84375
1629376356093,-0.46875,0.203125,0.84375
1629376356125,-0.46875,0.203125,0.84375
1629376356156,-0.46875,0.203125,0.84375
1629376356187,-0.46875,0.203125,0.84375
1629376356218,-0.46875,0.203125,0.84375
1629376356250,-0.46875,0.203125,0.84375
1629376356281,-0.46875,0.203125,0.84375
1629376356312,-0.46875,0.203125,0.84375
1629376356343,-0.46875,0.203125,0.84375
1629376356375,-0.46875,0.203125,0.84375
1629376356406,-0.46875,0.203125,0.84375
1629376356437,-0.46875,0.203125,0.84375
1629376356468,-0.46875,0.203125,0.84375
1629376356500,-0.46875,0.203125,0.84375
1629376356531,-0.46875,0.203125,0.84375
1629376356562,-0.46875,0.203125,0.84375
1629376356593,-0.46875,0.203125,0.84375
1629376356625,-0.46875,0.203125,0.84375
1629376356656,-0.46875,0.203125,0.84375
1629376356687,-0.46875,0.203125,0.84375
1629376356718,-0.46875,0.203125,0.84375
1629376356750,-0.46875,0.203125,0.84375
1629376356781,-0.46875,0.203125,0.84375
1629376356812,-0.46875,0.203125,0.84375
1629376356843,-0.46875,0.203125,0.84375
1629376356875,-0.46875,0.203125,0.84375
1629376356906,-0.46875,0.203125,0.84375
1629376356937,-0.46875,0.203125,0.84375
1629376356968,-0.46875,0.203125,0.84375
1629376357000,-0.46875,0.203125,0.84375
1629376357031,-0.46875,0.203125,0.84375
1629376357062,-0.46875,0.203125,0.84375
1629376357093,-0.46875,0.203125,0.84375
1629376357125,-0.46875,0.203125,0.84375
1629376357156,-0.46875,0.203125,0.84375
1629376357187,-0.46875,0.203125,0.84375
1629376357218,-0.46875,0.203125,0.84375
1629376357250,-0.46875,0.203125,0.84375
1629376357281,-0.46875,0.203125,0.84375
1629376357312,-0.46875,0.203125,0.84375
1629376357343,-0.46875,0.203125,0.84375
1629376357375,-0.46875,0.203125,0.84375
1629376357406,-0.46875,0.203125,0.84375
1629376357437,-0.46875,0.203125,0.84375
1629376357468,-0.46875,0.203125,0.84375
1629376357500,-0.46875,0.203125,0.84375
1629376357531,-0.46875,0.203125,0.84375
1629376357562,-0.46875,0.203125,0.84375
1629376357593,-0.46875,0.203125,0.84375
1629376357625,-0.46875,0.203125,0.84375
1629376357656,-0.46875,0.203125,0.84375
1629376357687,-0.46875,0.203125,0.84375
1629376357718,-0.46875,0.203125,0.84375
1629376357750,-0.46875,0.203125,0.84375
1629376357781,-0.46875,0.203125,0.84375
1629376357812,-0.46875,0.203125,0.84375
1629376357843,-0.46875,0.203125,0.84375
1629376357875,-0.484375,0.203125,0.84375
1629376357906,-0.46875,0.203125,0.84375
1629376357937,-0.46875,0.203125,0.84375
1629376357968,-0.46875,0.203125,0.84375
1629376358000,-0.46875,0.203125,0.828125
1629376358031,-0.46875,0.203125,0.84375
1629376358062,-0.46875,0.203125,0.84375
1629376358093,-0.46875,0.203125,0.84375
1629376358125,-0.46875,0.203125,0.84375
1629376358156,-0.46875,0.203125,0.84375
1629376358187,-0.46875,0.203125,0.84375
1629376358218,-0.46875,0.203125,0.84375
1629376358250,-0.46875,0.203125,0.84375
1629376358281,-0.46875,0.203125,0.84375
1629376358312,-0.46875,0.203125,0.84375
1629376358343,-0.46875,0.203125,0.84375
1629376358375,-0.46875,0.203125,0.84375
1629376358406,-0.46875,0.203125,0.84375
1629376358437,-0.46875,0.203125,0.84375
1629376358468,-0.46875,0.203125,0.84375
1629376358500,-0.46875,0.203125,0.84375
1629376358531,-0.46875,0.203125,0.84375
1629376358562,-0.46875,0.203125,0.84375
1629376358593,-0.46875,0.203125,0.84375
1629376358625,-0.46875,0.203125,0.84375
1629376358656,-0.46875,0.203125,0.84375
1629376358687,-0.46875,0.203125,0.84375
1629376358718,-0.46875,0.203125,0.84375
1629376358750,-0.46875,0.203125,0.84375
1629376358781,-0.46875,0.203125,0.84375
1629376358812,-0.46875,0.203125,0.84375
1629376358843,-0.46875,0.203125,0.84375
1629376358875,-0.46875,0.203125,0.84375
1629376358906,-0.46875,0.203125,0.84375
1629376358937,-0.46875,0.203125,0.84375
1629376358968,-0.46875,0.203125,0.84375
1629376359000,-0.46875,0.203125,0.84375
1629376359031,-0.46875,0.203125,0.84375
1629376359062,-0.46875,0.203125,0.84375
1629376359093,-0.46875,0.203125,0.84375
1629376359125,-0.46875,0.203125,0.84375
1629376359156,-0.46875,0.203125,0.84375
1629376359187,-0.46875,0.203125,0.84375
1629376359218,-0.46875,0.203125,0.84375
1629376359250,-0.46875,0.203125,0.828125
1629376359281,-0.484375,0.203125,0.84375
1629376359312,-0.484375,0.203125,0.84375
1629376359343,-0.46875,0.203125,0.84375
1629376359375,-0.46875,0.203125,0.84375
1629376359406,-0.46875,0.203125,0.84375
1629376359437,-0.46875,0.203125,0.84375
1629376359468,-0.46875,0.203125,0.84375
1629376359500,-0.46875,0.203125,0.84375
1629376359531,-0.46875,0.203125,0.84375
1629376359562,-0.46875,0.203125,0.84375
1629376359593,-0.484375,0.203125,0.84375
1629376359625,-0.46875,0.203125,0.84375
1629376359656,-0.46875,0.203125,0.84375
1629376359687,-0.46875,0.203125,0.84375
1629376359718,-0.46875,0.203125,0.84375
1629376359750,-0.46875,0.203125,0.84375
1629376359781,-0.484375,0.203125,0.84375
1629376359812,-0.46875,0.203125,0.84375
1629376359843,-0.484375,0.203125,0.828125
1629376359875,-0.46875,0.203125,0.84375
1629376359906,-0.46875,0.203125,0.84375
1629376359937,-0.484375,0.203125,0.84375
1629376359968,-0.484375,0.203125,0.828125
1629376360000,-0.46875,0.203125,0.84375
1629376360031,-0.484375,0.203125,0.84375
1629376360062,-0.46875,0.203125,0.828125
1629376360093,-0.484375,0.203125,0.828125
1629376360125,-0.484375,0.203125,0.828125
1629376360156,-0.484375,0.203125,0.84375
1629376360187,-0.484375,0.203125,0.84375
1629376360218,-0.484375,0.203125,0.828125
1629376360250,-0.484375,0.203125,0.84375
1629376360281,-0.484375,0.203125,0.84375
1629376360312,-0.484375,0.203125,0.84375
1629376360343,-0.484375,0.203125,0.84375
1629376360375,-0.484375,0.203125,0.828125
1629376360406,-0.484375,0.203125,0.84375
1629376360437,-0.484375,0.203125,0.828125
1629376360468,-0.46875,0.203125,0.828125
1629376360500,-0.484375,0.203125,0.828125
1629376360531,-0.484375,0.203125,0.84375
1629376360562,-0.484375,0.203125,0.828125
1629376360593,-0.484375,0.203125,0.828125
1629376360625,-0.484375,0.203125,0.828125
1629376360656,-0.484375,0.203125,0.84375
1629376360687,-0.484375,0.203125,0.828125
1629376360718,-0.484375,0.203125,0.828125
1629376360750,-0.484375,0.203125,0.828125
1629376360781,-0.484375,0.203125,0.828125
1629376360812,-0.484375,0.203125,0.828125
1629376360843,-0.484375,0.203125,0.84375
1629376360875,-0.484375,0.203125,0.828125
1629376360906,-0.484375,0.203125,0.84375
1629376360937,-0.484375,0.203125,0.828125
1629376360968,-0.484375,0.203125,0.828125
1629376361000,-0.484375,0.21875,0.84375
1629376361031,-0.484375,0.203125,0.84375
1629376361062,-0.484375,0.203125,0.828125
1629376361093,-0.484375,0.203125,0.828125
1629376361125,-0.484375,0.203125,0.828125
1629376361156,-0.484375,0.203125,0.828125
1629376361187,-0.484375,0.203125,0.828125
1629376361218,-0.484375,0.203125,0.828125
1629376361250,-0.484375,0.203125,0.828125
1629376361281,-0.484375,0.203125,0.828125
1629376361312,-0.5,0.203125,0.828125
1629376361343,-0.5,0.203125,0.828125
1629376361375,-0.5,0.203125,0.828125
1629376361406,-0.484375,0.203125,0.84375
1629376361437,-0.484375,0.203125,0.828125
1629376361468,-0.484375,0.203125,0.828125
1629376361500,-0.484375,0.203125,0.828125
1629376361531,-0.5,0.203125,0.828125
1629376361562,-0.484375,0.203125,0.828125
1629376361593,-0.484375,0.203125,0.828125
1629376361625,-0.5,0.203125,0.828125
1629376361656,-0.5,0.203125,0.828125
1629376361687,-0.5,0.203125,0.828125
1629376361718,-0.5,0.203125,0.828125
1629376361750,-0.5,0.203125,0.828125
1629376361781,-0.5,0.203125,0.828125
1629376361812,-0.5,0.203125,0.828125
1629376361843,-0.5,0.203125,0.828125
1629376361875,-0.5,0.203125,0.828125
1629376361906,-0.5,0.203125,0.828125
1629376361937,-0.5,0.203125,0.828125
1629376361968,-0.5,0.203125,0.828125
1629376362000,-0.5,0.203125,0.828125
1629376362031,-0.5,0.203125,0.828125
1629376362062,-0.5,0.203125,0.828125
1629376362093,-0.5,0.203125,0.828125
1629376362125,-0.5,0.203125,0.828125
1629376362156,-0.5,0.203125,0.828125
1629376362187,-0.5,0.203125,0.828125
1629376362218,-0.5,0.203125,0.828125
1629376362250,-0.5,0.203125,0.828125
1629376362281,-0.5,0.203125,0.828125
1629376362312,-0.5,0.203125,0.828125
1629376362343,-0.5,0.203125,0.828125
1629376362375,-0.5,0.203125,0.828125
1629376362406,-0.5,0.203125,0.828125
1629376362437,-0.5,0.203125,0.828125
1629376362468,-0.5,0.203125,0.828125
1629376362500,-0.5,0.203125,0.828125
1629376362531,-0.5,0.203125,0.828125
1629376362562,-0.5,0.203125,0.828125
1629376362593,-0.5,0.203125,0.828125
1629376362625,-0.5,0.203125,0.828125
1629376362656,-0.5,0.203125,0.828125
1629376362687,-0.5,0.203125,0.828125
1629376362718,-0.5,0.203125,0.828125
1629376362750,-0.484375,0.203125,0.828125
1629376362781,-0.5,0.203125,0.828125
1629376362812,-0.5,0.203125,0.828125
1629376362843,-0.5,0.203125,0.828125
1629376362875,-0.5,0.203125,0.828125
1629376362906,-0.5,0.203125,0.828125
1629376362937,-0.5,0.203125,0.828125
1629376362968,-0.5,0.203125,0.828125
1629376363000,-0.5,0.203125,0.828125
1629376363031,-0.5,0.203125,0.828125
1629376363062,-0.5,0.203125,0.828125
1629376363093,-0.5,0.203125,0.828125
1629376363125,-0.484375,0.203125,0.828125
1629376363156,-0.484375,0.203125,0.828125
1629376363187,-0.5,0.203125,0.828125
1629376363218,-0.5,0.203125,0.828125
1629376363250,-0.5,0.203125,0.828125
1629376363281,-0.484375,0.203125,0.828125
1629376363312,-0.484375,0.203125,0.828125
1629376363343,-0.5,0.203125,0.828125
1629376363375,-0.5,0.203125,0.828125
1629376363406,-0.484375,0.203125,0.828125
1629376363437,-0.5,0.203125,0.828125
1629376363468,-0.484375,0.203125,0.828125
1629376363500,-0.484375,0.203125,0.828125
1629376363531,-0.484375,0.203125,0.828125
1629376363562,-0.5,0.203125,0.828125
1629376363593,-0.5,0.203125,0.828125
1629376363625,-0.5,0.203125,0.828125
1629376363656,-0.484375,0.203125,0.828125
1629376363687,-0.5,0.203125,0.828125
1629376363718,-0.5,0.203125,0.828125
1629376363750,-0.484375,0.203125,0.828125
1629376363781,-0.484375,0.203125,0.828125
1629376363812,-0.484375,0.203125,0.828125
1629376363843,-0.484375,0.203125,0.828125
1629376363875,-0.484375,0.203125,0.828125
1629376363906,-0.484375,0.203125,0.828125
1629376363937,-0.484375,0.203125,0.828125
1629376363968,-0.484375,0.203125,0.828125
1629376364000,-0.484375,0.203125,0.828125
1629376364031,-0.5,0.203125,0.828125
1629376364062,-0.5,0.203125,0.828125
1629376364093,-0.484375,0.203125,0.828125
1629376364125,-0.484375,0.203125,0.828125
1629376364156,-0.484375,0.203125,0.84375
1629376364187,-0.484375,0.203125,0.84375
1629376364218,-0.484375,0.203125,0.828125
1629376364250,-0.484375,0.203125,0.84375
1629376364281,-0.46875,0.203125,0.828125
1629376364312,-0.484375,0.203125,0.828125
1629376364343,-0.484375,0.203125,0.828125
1629376364375,-0.484375,0.203125,0.84375
1629376364406,-0.484375,0.203125,0.84375
1629376364437,-0.484375,0.203125,0.84375
1629376364468,-0.484375,0.203125,0.84375
1629376364500,-0.484375,0.203125,0.84375
1629376364531,-0.484375,0.203125,0.828125
1629376364562,-0.484375,0.203125,0.828125
1629376364593,-0.484375,0.203125,0.828125
1629376364625,-0.46875,0.203125,0.84375
1629376364656,-0.484375,0.203125,0.828125
1629376364687,-0.484375,0.203125,0.84375
1629376364718,-0.484375,0.203125,0.84375
1629376364750,-0.484375,0.203125,0.84375
1629376364781,-0.484375,0.203125,0.84375
1629376364812,-0.46875,0.203125,0.828125
1629376364843,-0.484375,0.203125,0.84375
1629376364875,-0.484375,0.203125,0.84375
1629376364906,-0.484375,0.203125,0.84375
1629376364937,-0.484375,0.203125,0.828125
1629376364968,-0.484375,0.203125,0.84375
1629376365000,-0.484375,0.203125,0.828125
1629376365031,-0.484375,0.203125,0.84375
1629376365062,-0.484375,0.203125,0.84375
1629376365093,-0.484375,0.203125,0.84375
1629376365125,-0.484375,0.203125,0.828125
1629376365156,-0.484375,0.203125,0.84375
1629376365187,-0.484375,0.203125,0.84375
1629376365218,-0.484375,0.203125,0.828125
1629376365250,-0.484375,0.203125,0.84375
1629376365281,-0.484375,0.203125,0.84375
1629376365312,-0.484375,0.203125,0.84375
1629376365343,-0.484375,0.203125,0.84375
1629376365375,-0.484375,0.203125,0.828125
1629376365406,-0.46875,0.203125,0.84375
1629376365437,-0.46875,0.203125,0.828125
1629376365468,-0.484375,0.203125,0.828125
1629376365500,-0.484375,0.203125,0.828125
1629376365531,-0.484375,0.203125,0.828125
1629376365562,-0.484375,0.203125,0.84375
1629376365593,-0.484375,0.203125,0.828125
1629376365625,-0.484375,0.203125,0.828125
1629376365656,-0.484375,0.203125,0.828125
1629376365687,-0.46875,0.203125,0.84375
1629376365718,-0.46875,0.203125,0.84375
1629376365750,-0.484375,0.203125,0.828125
1629376365781,-0.484375,0.203125,0.828125
1629376365812,-0.484375,0.203125,0.84375
1629376365843,-0.484375,0.203125,0.828125
1629376365875,-0.484375,0.203125,0.84375
1629376365906,-0.484375,0.203125,0.828125
1629376365937,-0.46875,0.203125,0.84375
1629376365968,-0.484375,0.203125,0.828125
1629376366000,-0.484375,0.203125,0.84375
1629376366031,-0.484375,0.203125,0.84375
1629376366062,-0.484375,0.203125,0.84375
1629376366093,-0.484375,0.203125,0.84375
1629376366125,-0.484375,0.203125,0.828125
1629376366156,-0.484375,0.203125,0.84375
1629376366187,-0.484375,0.203125,0.828125
1629376366218,-0.46875,0.203125,0.84375
1629376366250,-0.484375,0.203125,0.828125
1629376366281,-0.484375,0.203125,0.84375
1629376366312,-0.484375,0.203125,0.84375
1629376366343,-0.484375,0.203125,0.84375
1629376366375,-0.484375,0.203125,0.84375
1629376366406,-0.484375,0.203125,0.828125
1629376366437,-0.46875,0.203125,0.828125
1629376366468,-0.484375,0.203125,0.84375
1629376366500,-0.484375,0.203125,0.84375
1629376366531,-0.46875,0.203125,0.828125
1629376366562,-0.484375,0.203125,0.828125
1629376366593,-0.46875,0.203125,0.84375
1629376366625,-0.484375,0.203125,0.828125
1629376366656,-0.484375,0.203125,0.828125
1629376366687,-0.484375,0.203125,0.828125
1629376366718,-0.484375,0.203125,0.828125
1629376366750,-0.484375,0.203125,0.828125
1629376366781,-0.484375,0.203125,0.828125
1629376366812,-0.484375,0.203125,0.828125
1629376366843,-0.484375,0.203125,0.828125
1629376366875,-0.484375,0.203125,0.828125
1629376366906,-0.484375,0.203125,0.84375
1629376366937,-0.484375,0.203125,0.828125
1629376366968,-0.484375,0.203125,0.828125
1629376367000,-0.484375,0.203125,0.84375
1629376367031,-0.484375,0.203125,0.84375
1629376367062,-0.484375,0.203125,0.828125
1629376367093,-0.484375,0.203125,0.828125
1629376367125,-0.484375,0.203125,0.828125
1629376367156,-0.484375,0.203125,0.84375
1629376367187,-0.484375,0.203125,0.828125
1629376367218,-0.484375,0.203125,0.828125
1629376367250,-0.484375,0.203125,0.828125
1629376367281,-0.484375,0.203125,0.84375
1629376367312,-0.46875,0.203125,0.828125
1629376367343,-0.484375,0.203125,0.84375
1629376367375,-0.484375,0.203125,0.84375
1629376367406,-0.484375,0.203125,0.828125
1629376367437,-0.484375,0.203125,0.828125
1629376367468,-0.484375,0.203125,0.828125
1629376367500,-0.484375,0.203125,0.84375
1629376367531,-0.484375,0.203125,0.84375
1629376367562,-0.484375,0.203125,0.828125
1629376367593,-0.484375,0.203125,0.828125
1629376367625,-0.484375,0.203125,0.828125
1629376367656,-0.484375,0.203125,0.828125
1629376367687,-0.484375,0.203125,0.828125
1629376367718,-0.484375,0.203125,0.828125
1629376367750,-0.484375,0.203125,0.84375
1629376367781,-0.484375,0.203125,0.828125
1629376367812,-0.484375,0.203125,0.828125
1629376367843,-0.484375,0.203125,0.828125
1629376367875,-0.484375,0.21875,0.828125
1629376367906,-0.484375,0.21875,0.84375
1629376367937,-0.484375,0.203125,0.828125
1629376367968,-0.484375,0.203125,0.84375
1629376368000,-0.484375,0.203125,0.828125
1629376368031,-0.484375,0.203125,0.828125
1629376368062,-0.484375,0.203125,0.828125
1629376368093,-0.484375,0.203125,0.828125
1629376368125,-0.484375,0.203125,0.828125
1629376368156,-0.484375,0.203125,0.828125
1629376368187,-0.484375,0.203125,0.828125
1629376368218,-0.484375,0.203125,0.84375
1629376368250,-0.484375,0.203125,0.84375
1629376368281,-0.484375,0.203125,0.828125
1629376368312,-0.484375,0.203125,0.84375
1629376368343,-0.484375,0.203125,0.828125
1629376368375,-0.484375,0.203125,0.828125
1629376368406,-0.484375,0.203125,0.84375
1629376368437,-0.484375,0.203125,0.84375
1629376368468,-0.484375,0.203125,0.828125
1629376368500,-0.484375,0.203125,0.828125
1629376368531,-0.484375,0.203125,0.828125
1629376368562,-0.484375,0.203125,0.84375
1629376368593,-0.484375,0.203125,0.828125
1629376368625,-0.46875,0.203125,0.84375
1629376368656,-0.484375,0.203125,0.84375
1629376368687,-0.484375,0.203125,0.84375
1629376368718,-0.484375,0.203125,0.828125
1629376368750,-0.484375,0.203125,0.828125
1629376368781,-0.484375,0.203125,0.828125
1629376368812,-0.484375,0.203125,0.84375
1629376368843,-0.46875,0.203125,0.84375
1629376368875,-0.484375,0.203125,0.828125
1629376368906,-0.484375,0.203125,0.84375
1629376368937,-0.484375,0.203125,0.828125
1629376368968,-0.484375,0.203125,0.84375
1629376369000,-0.46875,0.203125,0.84375
1629376369031,-0.46875,0.203125,0.84375
1629376369062,-0.484375,0.203125,0.828125
1629376369093,-0.484375,0.21875,0.828125
1629376369125,-0.484375,0.203125,0.828125
1629376369156,-0.484375,0.203125,0.828125
1629376369187,-0.484375,0.203125,0.828125
1629376369218,-0.484375,0.203125,0.828125
1629376369250,-0.484375,0.203125,0.84375
1629376369281,-0.484375,0.203125,0.828125
1629376369312,-0.484375,0.203125,0.828125
1629376369343,-0.484375,0.203125,0.828125
1629376369375,-0.484375,0.203125,0.828125
1629376369406,-0.484375,0.203125,0.84375
1629376369437,-0.46875,0.203125,0.84375
1629376369468,-0.484375,0.203125,0.84375
1629376369500,-0.484375,0.203125,0.828125
1629376369531,-0.484375,0.203125,0.828125
1629376369562,-0.484375,0.203125,0.828125
1629376369593,-0.484375,0.203125,0.84375
1629376369625,-0.484375,0.203125,0.828125
1629376369656,-0.484375,0.203125,0.828125
1629376369687,-0.484375,0.203125,0.828125
1629376369718,-0.484375,0.203125,0.828125
1629376369750,-0.484375,0.203125,0.84375
1629376369781,-0.484375,0.203125,0.828125
1629376369812,-0.484375,0.203125,0.828125
1629376369843,-0.484375,0.203125,0.84375
1629376369875,-0.484375,0.203125,0.828125
1629376369906,-0.484375,0.203125,0.84375
1629376369937,-0.46875,0.203125,0.84375
1629376369968,-0.484375,0.203125,0.828125
1629376370000,-0.484375,0.203125,0.828125
1629376370031,-0.484375,0.203125,0.828125
1629376370062,-0.484375,0.203125,0.828125
1629376370093,-0.484375,0.203125,0.828125
1629376370125,-0.484375,0.203125,0.828125
1629376370156,-0.484375,0.203125,0.828125
1629376370187,-0.484375,0.203125,0.84375
1629376370218,-0.484375,0.203125,0.84375
1629376370250,-0.484375,0.203125,0.828125
1629376370281,-0.484375,0.203125,0.828125
1629376370312,-0.484375,0.203125,0.828125
1629376370343,-0.484375,0.203125,0.828125
1629376370375,-0.484375,0.203125,0.828125
1629376370406,-0.484375,0.203125,0.828125
1629376370437,-0.484375,0.203125,0.828125
1629376370468,-0.484375,0.203125,0.84375
1629376370500,-0.484375,0.21875,0.84375
1629376370531,-0.484375,0.203125,0.84375
1629376370562,-0.484375,0.203125,0.828125
1629376370593,-0.484375,0.203125,0.828125
1629376370625,-0.484375,0.203125,0.84375
1629376370656,-0.484375,0.203125,0.84375
1629376370687,-0.484375,0.203125,0.84375
1629376370718,-0.484375,0.203125,0.84375
1629376370750,-0.484375,0.203125,0.828125
1629376370781,-0.484375,0.203125,0.828125
1629376370812,-0.484375,0.203125,0.828125
1629376370843,-0.484375,0.203125,0.828125
1629376370875,-0.484375,0.203125,0.828125
1629376370906,-0.484375,0.203125,0.84375
1629376370937,-0.484375,0.203125,0.828125
1629376370968,-0.484375,0.203125,0.828125
1629376371000,-0.484375,0.203125,0.828125
1629376371031,-0.484375,0.203125,0.84375
1629376371062,-0.484375,0.203125,0.84375
1629376371093,-0.484375,0.203125,0.828125
1629376371125,-0.484375,0.203125,0.828125
1629376371156,-0.484375,0.203125,0.84375
1629376371187,-0.484375,0.203125,0.828125
1629376371218,-0.484375,0.203125,0.828125
1629376371250,-0.484375,0.203125,0.828125
1629376371281,-0.484375,0.203125,0.828125
1629376371312,-0.484375,0.203125,0.828125
1629376371343,-0.484375,0.203125,0.828125
1629376371375,-0.484375,0.203125,0.84375
1629376371406,-0.484375,0.203125,0.84375
1629376371437,-0.484375,0.203125,0.828125
1629376371468,-0.484375,0.203125,0.828125
1629376371500,-0.484375,0.203125,0.828125
1629376371531,-0.484375,0.203125,0.828125
1629376371562,-0.484375,0.203125,0.828125
1629376371593,-0.484375,0.203125,0.828125
1629376371625,-0.484375,0.203125,0.84375
1629376371656,-0.484375,0.203125,0.84375
1629376371687,-0.484375,0.203125,0.84375
1629376371718,-0.484375,0.203125,0.828125
1629376371750,-0.484375,0.203125,0.84375
1629376371781,-0.484375,0.203125,0.828125
1629376371812,-0.484375,0.203125,0.828125
1629376371843,-0.484375,0.203125,0.828125
1629376371875,-0.484375,0.203125,0.828125
1629376371906,-0.484375,0.203125,0.828125
1629376371937,-0.484375,0.203125,0.84375
1629376371968,-0.484375,0.203125,0.828125
1629376372000,-0.484375,0.203125,0.84375
1629376372031,-0.484375,0.203125,0.828125
1629376372062,-0.484375,0.203125,0.828125
1629376372093,-0.484375,0.203125,0.84375
1629376372125,-0.484375,0.203125,0.828125
1629376372156,-0.484375,0.203125,0.828125
1629376372187,-0.484375,0.203125,0.84375
1629376372218,-0.484375,0.203125,0.828125
1629376372250,-0.484375,0.203125,0.828125
1629376372281,-0.484375,0.203125,0.828125
1629376372312,-0.484375,0.203125,0.828125
1629376372343,-0.484375,0.203125,0.828125
1629376372375,-0.484375,0.203125,0.828125
1629376372406,-0.484375,0.203125,0.828125
1629376372437,-0.484375,0.203125,0.84375
1629376372468,-0.484375,0.203125,0.84375
1629376372500,-0.484375,0.203125,0.828125
1629376372531,-0.484375,0.203125,0.828125
1629376372562,-0.484375,0.203125,0.828125
1629376372593,-0.484375,0.203125,0.84375
1629376372625,-0.484375,0.203125,0.828125
1629376372656,-0.484375,0.203125,0.828125
1629376372687,-0.484375,0.203125,0.828125
1629376372718,-0.484375,0.203125,0.828125
1629376372750,-0.484375,0.203125,0.828125
1629376372781,-0.484375,0.203125,0.828125
1629376372812,-0.484375,0.203125,0.828125
1629376372843,-0.484375,0.203125,0.828125
1629376372875,-0.484375,0.203125,0.828125
1629376372906,-0.484375,0.203125,0.828125
1629376372937,-0.484375,0.203125,0.84375
1629376372968,-0.484375,0.203125,0.84375
1629376373000,-0.484375,0.203125,0.828125
1629376373031,-0.484375,0.203125,0.828125
1629376373062,-0.484375,0.203125,0.828125
1629376373093,-0.484375,0.203125,0.84375
1629376373125,-0.484375,0.203125,0.828125
1629376373156,-0.484375,0.203125,0.828125
1629376373187,-0.484375,0.203125,0.828125
1629376373218,-0.484375,0.203125,0.828125
1629376373250,-0.484375,0.203125,0.828125
1629376373281,-0.484375,0.203125,0.84375
1629376373312,-0.484375,0.203125,0.828125
1629376373343,-0.484375,0.203125,0.828125
1629376373375,-0.484375,0.203125,0.84375
1629376373406,-0.484375,0.203125,0.828125
1629376373437,-0.484375,0.203125,0.828125
1629376373468,-0.484375,0.203125,0.828125
1629376373500,-0.484375,0.203125,0.84375
1629376373531,-0.484375,0.203125,0.84375
1629376373562,-0.484375,0.203125,0.84375
1629376373593,-0.5,0.203125,0.84375
1629376373625,-0.484375,0.203125,0.828125
1629376373656,-0.5,0.203125,0.828125
1629376373687,-0.484375,0.203125,0.828125
1629376373718,-0.5,0.203125,0.828125
1629376373750,-0.484375,0.203125,0.828125
1629376373781,-0.5,0.203125,0.828125
1629376373812,-0.5,0.203125,0.828125
1629376373843,-0.484375,0.203125,0.84375
1629376373875,-0.484375,0.203125,0.828125
1629376373906,-0.484375,0.203125,0.84375
1629376373937,-0.484375,0.203125,0.84375
1629376373968,-0.484375,0.203125,0.828125
1629376374000,-0.484375,0.203125,0.828125
1629376374031,-0.484375,0.203125,0.828125
1629376374062,-0.484375,0.203125,0.84375
1629376374093,-0.484375,0.203125,0.828125
1629376374125,-0.484375,0.203125,0.84375
1629376374156,-0.484375,0.203125,0.828125
1629376374187,-0.484375,0.203125,0.84375
1629376374218,-0.484375,0.203125,0.828125
1629376374250,-0.484375,0.203125,0.84375
1629376374281,-0.484375,0.203125,0.84375
1629376374312,-0.484375,0.203125,0.828125
1629376374343,-0.484375,0.203125,0.828125
1629376374375,-0.484375,0.203125,0.828125
1629376374406,-0.484375,0.203125,0.84375
1629376374437,-0.484375,0.203125,0.828125
1629376374468,-0.484375,0.203125,0.84375
1629376374500,-0.484375,0.203125,0.828125
1629376374531,-0.484375,0.203125,0.828125
1629376374562,-0.484375,0.203125,0.828125
1629376374593,-0.484375,0.203125,0.84375
1629376374625,-0.484375,0.203125,0.84375
1629376374656,-0.484375,0.203125,0.828125
1629376374687,-0.484375,0.203125,0.828125
1629376374718,-0.484375,0.203125,0.84375
1629376374750,-0.484375,0.203125,0.84375
1629376374781,-0.484375,0.203125,0.828125
1629376374812,-0.484375,0.203125,0.828125
1629376374843,-0.484375,0.203125,0.828125
1629376374875,-0.484375,0.203125,0.828125
1629376374906,-0.484375,0.203125,0.828125
1629376374937,-0.484375,0.203125,0.84375
1629376374968,-0.484375,0.203125,0.828125
1629376375000,-0.484375,0.203125,0.828125
1629376375031,-0.484375,0.203125,0.828125
1629376375062,-0.484375,0.203125,0.84375
1629376375093,-0.484375,0.203125,0.828125
1629376375125,-0.484375,0.203125,0.828125
1629376375156,-0.484375,0.203125,0.84375
1629376375187,-0.484375,0.203125,0.84375
1629376375218,-0.484375,0.203125,0.828125
1629376375250,-0.484375,0.203125,0.828125
1629376375281,-0.484375,0.203125,0.84375
1629376375312,-0.484375,0.203125,0.84375
1629376375343,-0.484375,0.203125,0.828125
1629376375375,-0.484375,0.203125,0.828125
1629376375406,-0.484375,0.203125,0.828125
1629376375437,-0.484375,0.203125,0.828125
1629376375468,-0.484375,0.203125,0.84375
1629376375500,-0.484375,0.203125,0.84375
1629376375531,-0.484375,0.203125,0.84375
1629376375562,-0.484375,0.203125,0.84375
1629376375593,-0.484375,0.203125,0.828125
1629376375625,-0.484375,0.203125,0.84375
1629376375656,-0.484375,0.203125,0.84375
1629376375687,-0.484375,0.203125,0.828125
1629376375718,-0.484375,0.203125,0.828125
1629376375750,-0.484375,0.203125,0.828125
1629376375781,-0.484375,0.203125,0.828125
1629376375812,-0.484375,0.203125,0.828125
1629376375843,-0.484375,0.203125,0.828125
1629376375875,-0.484375,0.203125,0.84375
1629376375906,-0.484375,0.203125,0.84375
1629376375937,-0.484375,0.203125,0.84375
1629376375968,-0.484375,0.203125,0.828125
1629376376000,-0.484375,0.203125,0.828125
1629376376031,-0.484375,0.203125,0.828125
1629376376062,-0.484375,0.203125,0.828125
1629376376093,-0.484375,0.203125,0.84375
1629376376125,-0.484375,0.203125,0.84375
1629376376156,-0.484375,0.203125,0.84375
1629376376187,-0.484375,0.203125,0.828125
1629376376218,-0.484375,0.203125,0.84375
1629376376250,-0.484375,0.203125,0.828125
1629376376281,-0.484375,0.203125,0.828125
1629376376312,-0.484375,0.203125,0.84375
1629376376343,-0.484375,0.203125,0.828125
1629376376375,-0.484375,0.203125,0.828125
1629376376406,-0.484375,0.203125,0.828125
1629376376437,-0.484375,0.203125,0.828125
1629376376468,-0.484375,0.203125,0.828125
1629376376500,-0.484375,0.203125,0.828125
1629376376531,-0.5,0.203125,0.828125
1629376376562,-0.46875,0.203125,0.84375
1629376376593,-0.484375,0.203125,0.84375
1629376376625,-0.484375,0.203125,0.84375
1629376376656,-0.484375,0.203125,0.84375
1629376376687,-0.484375,0.203125,0.84375
1629376376718,-0.46875,0.203125,0.84375
1629376376750,-0.46875,0.203125,0.84375
1629376376781,-0.484375,0.203125,0.84375
1629376376812,-0.484375,0.203125,0.84375
1629376376843,-0.5,0.203125,0.828125
1629376376875,-0.484375,0.203125,0.828125
1629376376906,-0.484375,0.203125,0.84375
1629376376937,-0.46875,0.203125,0.84375
1629376376968,-0.484375,0.203125,0.84375
1629376377000,-0.484375,0.203125,0.828125
1629376377031,-0.484375,0.203125,0.828125
1629376377062,-0.484375,0.203125,0.84375
1629376377093,-0.46875,0.203125,0.84375
1629376377125,-0.46875,0.203125,0.84375
1629376377156,-0.484375,0.203125,0.84375
1629376377187,-0.484375,0.203125,0.84375
1629376377218,-0.484375,0.203125,0.84375
1629376377250,-0.484375,0.203125,0.828125
1629376377281,-0.484375,0.203125,0.84375
1629376377312,-0.484375,0.203125,0.84375
1629376377343,-0.484375,0.203125,0.84375
1629376377375,-0.484375,0.203125,0.84375
1629376377406,-0.484375,0.203125,0.84375
1629376377437,-0.484375,0.203125,0.84375
1629376377468,-0.484375,0.203125,0.84375
1629376377500,-0.484375,0.203125,0.84375
1629376377531,-0.484375,0.203125,0.828125
1629376377562,-0.484375,0.203125,0.828125
1629376377593,-0.484375,0.203125,0.84375
1629376377625,-0.484375,0.203125,0.84375
1629376377656,-0.484375,0.203125,0.828125
1629376377687,-0.484375,0.203125,0.84375
1629376377718,-0.484375,0.203125,0.84375
1629376377750,-0.484375,0.203125,0.828125
1629376377781,-0.484375,0.203125,0.84375
1629376377812,-0.484375,0.203125,0.828125
1629376377843,-0.484375,0.203125,0.828125
1629376377875,-0.484375,0.203125,0.84375
1629376377906,-0.484375,0.203125,0.84375
1629376377937,-0.484375,0.1875,0.84375
1629376377968,-0.46875,0.203125,0.84375
1629376378000,-0.484375,0.203125,0.84375
1629376378031,-0.484375,0.203125,0.84375
1629376378062,-0.46875,0.203125,0.84375
1629376378093,-0.484375,0.203125,0.84375
1629376378125,-0.484375,0.203125,0.84375
1629376378156,-0.484375,0.203125,0.828125
1629376378187,-0.484375,0.203125,0.828125
1629376378218,-0.484375,0.203125,0.84375
1629376378250,-0.484375,0.203125,0.84375
1629376378281,-0.484375,0.203125,0.84375
1629376378312,-0.484375,0.203125,0.84375
1629376378343,-0.46875,0.203125,0.84375
1629376378375,-0.484375,0.203125,0.828125
1629376378406,-0.484375,0.203125,0.828125
1629376378437,-0.484375,0.1875,0.84375
1629376378468,-0.484375,0.203125,0.828125
1629376378500,-0.484375,0.203125,0.84375
1629376378531,-0.484375,0.203125,0.84375
1629376378562,-0.484375,0.203125,0.84375
1629376378593,-0.484375,0.203125,0.84375
1629376378625,-0.484375,0.1875,0.84375
1629376378656,-0.484375,0.203125,0.828125
1629376378687,-0.484375,0.203125,0.84375
1629376378718,-0.46875,0.203125,0.828125
1629376378750,-0.484375,0.203125,0.828125
1629376378781,-0.484375,0.203125,0.84375
1629376378812,-0.484375,0.203125,0.84375
1629376378843,-0.46875,0.203125,0.84375
1629376378875,-0.484375,0.1875,0.84375
1629376378906,-0.484375,0.1875,0.828125
1629376378937,-0.484375,0.203125,0.828125
1629376378968,-0.484375,0.203125,0.84375
1629376379000,-0.484375,0.203125,0.84375
1629376379031,-0.484375,0.203125,0.84375
1629376379062,-0.484375,0.203125,0.84375
1629376379093,-0.484375,0.203125,0.84375
1629376379125,-0.484375,0.203125,0.84375
1629376379156,-0.484375,0.203125,0.84375
1629376379187,-0.484375,0.203125,0.84375
1629376379218,-0.484375,0.1875,0.84375
1629376379250,-0.484375,0.203125,0.828125
1629376379281,-0.484375,0.1875,0.84375
1629376379312,-0.484375,0.1875,0.84375
1629376379343,-0.484375,0.203125,0.828125
1629376379375,-0.46875,0.203125,0.84375
1629376379406,-0.484375,0.203125,0.84375
1629376379437,-0.484375,0.203125,0.84375
1629376379468,-0.46875,0.203125,0.84375
1629376379500,-0.484375,0.203125,0.84375
1629376379531,-0.484375,0.203125,0.84375
1629376379562,-0.46875,0.203125,0.828125
1629376379593,-0.484375,0.203125,0.84375
1629376379625,-0.484375,0.203125,0.84375
1629376379656,-0.484375,0.203125,0.84375
1629376379687,-0.46875,0.203125,0.84375
1629376379718,-0.46875,0.203125,0.84375
1629376379750,-0.46875,0.203125,0.84375
1629376379781,-0.484375,0.203125,0.84375
1629376379812,-0.46875,0.203125,0.84375
1629376379843,-0.46875,0.203125,0.84375
1629376379875,-0.484375,0.203125,0.828125
1629376379906,-0.46875,0.203125,0.84375
1629376379937,-0.46875,0.203125,0.84375
1629376379968,-0.484375,0.203125,0.84375
1629376380000,-0.484375,0.203125,0.84375
1629376380031,-0.484375,0.203125,0.828125
1629376380062,-0.46875,0.203125,0.84375
1629376380093,-0.46875,0.203125,0.84375
1629376380125,-0.46875,0.203125,0.84375
1629376380156,-0.484375,0.203125,0.84375
1629376380187,-0.484375,0.203125,0.84375
1629376380218,-0.484375,0.203125,0.84375
1629376380250,-0.484375,0.203125,0.84375
1629376380281,-0.46875,0.203125,0.84375
1629376380312,-0.46875,0.203125,0.84375
1629376380343,-0.484375,0.203125,0.828125
1629376380375,-0.484375,0.203125,0.828125
1629376380406,-0.484375,0.203125,0.84375
1629376380437,-0.484375,0.203125,0.828125
1629376380468,-0.484375,0.203125,0.84375
1629376380500,-0.46875,0.203125,0.84375
1629376380531,-0.484375,0.203125,0.828125
1629376380562,-0.46875,0.203125,0.84375
1629376380593,-0.484375,0.203125,0.84375
1629376380625,-0.484375,0.203125,0.84375
1629376380656,-0.46875,0.203125,0.84375
1629376380687,-0.46875,0.203125,0.828125
1629376380718,-0.46875,0.203125,0.84375
1629376380750,-0.484375,0.203125,0.828125
1629376380781,-0.484375,0.203125,0.84375
1629376380812,-0.484375,0.203125,0.84375
1629376380843,-0.484375,0.203125,0.84375
1629376380875,-0.484375,0.203125,0.84375
1629376380906,-0.484375,0.203125,0.828125
1629376380937,-0.484375,0.203125,0.84375
1629376380968,-0.484375,0.203125,0.84375
1629376381000,-0.484375,0.203125,0.84375
1629376381031,-0.46875,0.203125,0.84375
1629376381062,-0.46875,0.203125,0.84375
1629376381093,-0.484375,0.203125,0.84375
1629376381125,-0.484375,0.1875,0.84375
1629376381156,-0.484375,0.203125,0.84375
1629376381187,-0.484375,0.203125,0.84375
1629376381218,-0.484375,0.203125,0.828125
1629376381250,-0.484375,0.203125,0.84375
1629376381281,-0.484375,0.203125,0.84375
1629376381312,-0.46875,0.203125,0.828125
1629376381343,-0.484375,0.203125,0.828125
1629376381375,-0.484375,0.203125,0.84375
1629376381406,-0.484375,0.203125,0.84375
1629376381437,-0.484375,0.203125,0.84375
1629376381468,-0.484375,0.203125,0.84375
1629376381500,-0.484375,0.203125,0.84375
1629376381531,-0.46875,0.203125,0.84375
1629376381562,-0.484375,0.203125,0.84375
1629376381593,-0.46875,0.203125,0.84375
1629376381625,-0.484375,0.203125,0.84375
1629376381656,-0.484375,0.203125,0.828125
1629376381687,-0.484375,0.203125,0.84375
1629376381718,-0.484375,0.203125,0.84375
1629376381750,-0.484375,0.203125,0.828125
1629376381781,-0.484375,0.203125,0.828125
1629376381812,-0.484375,0.203125,0.828125
1629376381843,-0.484375,0.203125,0.828125
1629376381875,-0.46875,0.203125,0.84375
1629376381906,-0.484375,0.203125,0.84375
1629376381937,-0.46875,0.203125,0.84375
1629376381968,-0.46875,0.203125,0.84375
1629376382000,-0.484375,0.203125,0.828125
1629376382031,-0.484375,0.203125,0.84375
1629376382062,-0.484375,0.203125,0.84375
1629376382093,-0.484375,0.203125,0.84375
1629376382125,-0.484375,0.203125,0.828125
1629376382156,-0.46875,0.203125,0.84375
1629376382187,-0.46875,0.203125,0.84375
1629376382218,-0.484375,0.203125,0.84375
1629376382250,-0.484375,0.203125,0.84375
1629376382281,-0.484375,0.203125,0.84375
1629376382312,-0.484375,0.203125,0.84375
1629376382343,-0.46875,0.203125,0.84375
1629376382375,-0.484375,0.203125,0.84375
1629376382406,-0.46875,0.203125,0.84375
1629376382437,-0.484375,0.203125,0.84375
1629376382468,-0.46875,0.203125,0.84375
1629376382500,-0.484375,0.203125,0.84375
1629376382531,-0.484375,0.203125,0.84375
1629376382562,-0.46875,0.203125,0.84375
1629376382593,-0.46875,0.203125,0.84375
1629376382625,-0.484375,0.203125,0.84375
1629376382656,-0.484375,0.203125,0.84375
1629376382687,-0.484375,0.203125,0.84375
1629376382718,-0.484375,0.203125,0.828125
1629376382750,-0.484375,0.203125,0.84375
1629376382781,-0.484375,0.203125,0.84375
1629376382812,-0.484375,0.1875,0.828125
1629376382843,-0.484375,0.1875,0.84375
1629376382875,-0.484375,0.203125,0.84375
1629376382906,-0.46875,0.203125,0.828125
1629376382937,-0.484375,0.203125,0.84375
1629376382968,-0.484375,0.203125,0.828125
1629376383000,-0.46875,0.203125,0.828125
1629376383031,-0.484375,0.1875,0.84375
1629376383062,-0.484375,0.203125,0.84375
1629376383093,-0.484375,0.203125,0.84375
1629376383125,-0.484375,0.203125,0.84375
1629376383156,-0.484375,0.203125,0.84375
1629376383187,-0.484375,0.203125,0.84375
1629376383218,-0.484375,0.203125,0.84375
1629376383250,-0.484375,0.203125,0.84375
1629376383281,-0.484375,0.1875,0.84375
1629376383312,-0.484375,0.1875,0.84375
1629376383343,-0.484375,0.203125,0.828125
1629376383375,-0.484375,0.203125,0.84375
1629376383406,-0.484375,0.203125,0.84375
1629376383437,-0.46875,0.203125,0.84375
1629376383468,-0.484375,0.203125,0.84375
1629376383500,-0.484375,0.203125,0.828125
1629376383531,-0.484375,0.203125,0.828125
1629376383562,-0.484375,0.203125,0.828125
1629376383593,-0.484375,0.203125,0.84375
1629376383625,-0.484375,0.203125,0.84375
1629376383656,-0.484375,0.203125,0.84375
1629376383687,-0.484375,0.203125,0.84375
1629376383718,-0.484375,0.203125,0.84375
1629376383750,-0.484375,0.203125,0.84375
1629376383781,-0.46875,0.203125,0.84375
1629376383812,-0.484375,0.203125,0.84375
1629376383843,-0.484375,0.203125,0.84375
1629376383875,-0.484375,0.203125,0.828125
1629376383906,-0.484375,0.203125,0.84375
1629376383937,-0.484375,0.203125,0.828125
1629376383968,-0.484375,0.203125,0.828125
1629376384000,-0.484375,0.203125,0.84375
1629376384031,-0.484375,0.203125,0.84375
1629376384062,-0.484375,0.203125,0.828125
1629376384093,-0.484375,0.203125,0.84375
1629376384125,-0.484375,0.203125,0.84375
1629376384156,-0.484375,0.203125,0.828125
1629376384187,-0.484375,0.203125,0.828125
1629376384218,-0.484375,0.203125,0.84375
1629376384250,-0.484375,0.203125,0.84375
1629376384281,-0.484375,0.203125,0.84375
1629376384312,-0.484375,0.203125,0.828125
1629376384343,-0.484375,0.203125,0.828125
1629376384375,-0.484375,0.203125,0.84375
1629376384406,-0.484375,0.203125,0.84375
1629376384437,-0.484375,0.203125,0.84375
1629376384468,-0.484375,0.203125,0.84375
1629376384500,-0.46875,0.203125,0.828125
1629376384531,-0.484375,0.203125,0.84375
1629376384562,-0.484375,0.203125,0.84375
1629376384593,-0.484375,0.203125,0.828125
1629376384625,-0.484375,0.203125,0.828125
1629376384656,-0.484375,0.203125,0.84375
1629376384687,-0.484375,0.203125,0.84375
1629376384718,-0.484375,0.203125,0.84375
1629376384750,-0.484375,0.203125,0.84375
1629376384781,-0.484375,0.203125,0.828125
1629376384812,-0.484375,0.203125,0.828125
1629376384843,-0.484375,0.203125,0.828125
1629376384875,-0.484375,0.203125,0.84375
1629376384906,-0.484375,0.203125,0.84375
1629376384937,-0.484375,0.203125,0.828125
1629376384968,-0.484375,0.203125,0.84375
1629376385000,-0.484375,0.203125,0.84375
1629376385031,-0.46875,0.203125,0.84375
1629376385062,-0.484375,0.203125,0.84375
1629376385093,-0.484375,0.203125,0.84375
1629376385125,-0.484375,0.203125,0.828125
1629376385156,-0.484375,0.203125,0.828125
1629376385187,-0.46875,0.203125,0.84375
1629376385218,-0.484375,0.203125,0.84375
1629376385250,-0.484375,0.203125,0.84375
1629376385281,-0.46875,0.203125,0.84375
1629376385312,-0.46875,0.203125,0.84375
1629376385343,-0.484375,0.203125,0.84375
1629376385375,-0.484375,0.203125,0.828125
1629376385406,-0.484375,0.203125,0.828125
1629376385437,-0.46875,0.203125,0.84375
1629376385468,-0.46875,0.203125,0.84375
1629376385500,-0.484375,0.203125,0.84375
1629376385531,-0.46875,0.203125,0.84375
1629376385562,-0.484375,0.203125,0.84375
1629376385593,-0.484375,0.203125,0.828125
1629376385625,-0.484375,0.203125,0.84375
1629376385656,-0.484375,0.203125,0.84375
1629376385687,-0.46875,0.203125,0.84375
1629376385718,-0.484375,0.203125,0.84375
1629376385750,-0.46875,0.203125,0.84375
1629376385781,-0.484375,0.203125,0.828125
1629376385812,-0.484375,0.203125,0.84375
1629376385843,-0.484375,0.203125,0.828125
1629376385875,-0.484375,0.203125,0.828125
1629376385906,-0.484375,0.203125,0.84375
1629376385937,-0.484375,0.203125,0.84375
1629376385968,-0.484375,0.203125,0.84375
1629376386000,-0.484375,0.203125,0.84375
1629376386031,-0.484375,0.203125,0.84375
1629376386062,-0.484375,0.203125,0.84375
1629376386093,-0.484375,0.203125,0.84375
1629376386125,-0.484375,0.203125,0.84375
1629376386156,-0.484375,0.203125,0.84375
1629376386187,-0.484375,0.203125,0.84375
1629376386218,-0.46875,0.203125,0.84375
1629376386250,-0.484375,0.203125,0.828125
1629376386281,-0.46875,0.203125,0.84375
1629376386312,-0.46875,0.203125,0.84375
1629376386343,-0.484375,0.203125,0.828125
1629376386375,-0.484375,0.203125,0.84375
1629376386406,-0.46875,0.203125,0.84375
1629376386437,-0.46875,0.203125,0.828125
1629376386468,-0.484375,0.203125,0.84375
1629376386500,-0.484375,0.203125,0.828125
1629376386531,-0.484375,0.203125,0.84375
1629376386562,-0.484375,0.203125,0.84375
1629376386593,-0.484375,0.203125,0.84375
1629376386625,-0.46875,0.203125,0.828125
1629376386656,-0.484375,0.203125,0.84375
1629376386687,-0.484375,0.203125,0.84375
1629376386718,-0.484375,0.203125,0.84375
1629376386750,-0.484375,0.203125,0.84375
1629376386781,-0.484375,0.203125,0.828125
1629376386812,-0.484375,0.203125,0.84375
1629376386843,-0.484375,0.203125,0.84375
1629376386875,-0.484375,0.203125,0.84375
1629376386906,-0.484375,0.203125,0.84375
1629376386937,-0.46875,0.203125,0.828125
1629376386968,-0.46875,0.203125,0.84375
1629376387000,-0.46875,0.203125,0.84375
1629376387031,-0.484375,0.203125,0.84375
1629376387062,-0.484375,0.203125,0.84375
1629376387093,-0.46875,0.203125,0.84375
1629376387125,-0.46875,0.203125,0.84375
1629376387156,-0.484375,0.203125,0.84375
1629376387187,-0.46875,0.203125,0.828125
1629376387218,-0.46875,0.203125,0.84375
1629376387250,-0.484375,0.203125,0.84375
1629376387281,-0.484375,0.203125,0.84375
1629376387312,-0.46875,0.203125,0.84375
1629376387343,-0.46875,0.203125,0.84375
1629376387375,-0.46875,0.203125,0.84375
1629376387406,-0.46875,0.203125,0.84375
1629376387437,-0.46875,0.203125,0.84375
1629376387468,-0.46875,0.203125,0.84375
1629376387500,-0.46875,0.203125,0.84375
1629376387531,-0.484375,0.203125,0.84375
1629376387562,-0.484375,0.203125,0.84375
1629376387593,-0.46875,0.203125,0.828125
1629376387625,-0.46875,0.203125,0.84375
1629376387656,-0.46875,0.203125,0.84375
1629376387687,-0.46875,0.203125,0.84375
1629376387718,-0.484375,0.203125,0.84375
1629376387750,-0.46875,0.203125,0.84375
1629376387781,-0.46875,0.203125,0.84375
1629376387812,-0.46875,0.203125,0.84375
1629376387843,-0.46875,0.203125,0.828125
1629376387875,-0.46875,0.203125,0.84375
1629376387906,-0.46875,0.203125,0.84375
1629376387937,-0.46875,0.203125,0.84375
1629376387968,-0.46875,0.203125,0.84375
1629376388000,-0.46875,0.203125,0.84375
1629376388031,-0.46875,0.203125,0.84375
1629376388062,-0.46875,0.203125,0.84375
1629376388093,-0.46875,0.203125,0.84375
1629376388125,-0.46875,0.203125,0.84375
1629376388156,-0.46875,0.203125,0.84375
1629376388187,-0.46875,0.203125,0.84375
1629376388218,-0.46875,0.203125,0.84375
1629376388250,-0.46875,0.203125,0.84375
1629376388281,-0.484375,0.203125,0.84375
1629376388312,-0.46875,0.203125,0.84375
1629376388343,-0.484375,0.203125,0.828125
1629376388375,-0.46875,0.203125,0.84375
1629376388406,-0.46875,0.203125,0.84375
1629376388437,-0.46875,0.203125,0.84375
1629376388468,-0.46875,0.203125,0.84375
1629376388500,-0.46875,0.203125,0.84375
1629376388531,-0.46875,0.203125,0.84375
1629376388562,-0.46875,0.203125,0.84375
1629376388593,-0.46875,0.203125,0.84375
1629376388625,-0.46875,0.203125,0.84375
1629376388656,-0.46875,0.203125,0.84375
1629376388687,-0.46875,0.203125,0.84375
1629376388718,-0.46875,0.203125,0.84375
1629376388750,-0.46875,0.203125,0.84375
1629376388781,-0.484375,0.203125,0.84375
1629376388812,-0.46875,0.203125,0.84375
1629376388843,-0.46875,0.203125,0.84375
1629376388875,-0.46875,0.203125,0.84375
1629376388906,-0.46875,0.203125,0.84375
1629376388937,-0.46875,0.203125,0.84375
1629376388968,-0.46875,0.203125,0.84375
1629376389000,-0.46875,0.203125,0.84375
1629376389031,-0.484375,0.203125,0.84375
1629376389062,-0.46875,0.203125,0.84375
1629376389093,-0.46875,0.203125,0.84375
1629376389125,-0.46875,0.203125,0.84375
1629376389156,-0.46875,0.203125,0.84375
1629376389187,-0.46875,0.203125,0.84375
1629376389218,-0.46875,0.203125,0.84375
1629376389250,-0.46875,0.203125,0.84375
1629376389281,-0.484375,0.203125,0.84375
1629376389312,-0.46875,0.203125,0.84375
1629376389343,-0.46875,0.203125,0.84375
1629376389375,-0.46875,0.203125,0.84375
1629376389406,-0.46875,0.203125,0.84375
1629376389437,-0.484375,0.203125,0.84375
1629376389468,-0.46875,0.203125,0.84375
1629376389500,-0.46875,0.203125,0.84375
1629376389531,-0.46875,0.203125,0.84375
1629376389562,-0.46875,0.203125,0.84375
1629376389593,-0.46875,0.203125,0.84375
1629376389625,-0.46875,0.203125,0.84375
1629376389656,-0.46875,0.203125,0.84375
1629376389687,-0.46875,0.203125,0.84375
1629376389718,-0.46875,0.203125,0.84375
1629376389750,-0.46875,0.203125,0.84375
1629376389781,-0.46875,0.203125,0.84375
1629376389812,-0.46875,0.203125,0.84375
1629376389843,-0.46875,0.203125,0.84375
1629376389875,-0.46875,0.203125,0.84375
1629376389906,-0.46875,0.203125,0.84375
1629376389937,-0.46875,0.203125,0.84375
1629376389968,-0.46875,0.203125,0.84375
1629376390000,-0.46875,0.203125,0.84375
1629376390031,-0.46875,0.203125,0.84375
1629376390062,-0.46875,0.203125,0.84375
1629376390093,-0.46875,0.203125,0.84375
1629376390125,-0.46875,0.203125,0.84375
1629376390156,-0.46875,0.203125,0.84375
1629376390187,-0.46875,0.203125,0.84375
1629376390218,-0.46875,0.203125,0.84375
1629376390250,-0.46875,0.203125,0.84375
1629376390281,-0.46875,0.203125,0.84375
1629376390312,-0.46875,0.203125,0.84375
1629376390343,-0.46875,0.203125,0.84375
1629376390375,-0.46875,0.203125,0.84375
1629376390406,-0.46875,0.203125,0.84375
1629376390437,-0.46875,0.203125,0.84375
1629376390468,-0.46875,0.203125,0.84375
1629376390500,-0.46875,0.203125,0.84375
1629376390531,-0.46875,0.203125,0.84375
1629376390562,-0.46875,0.203125,0.84375
1629376390593,-0.484375,0.203125,0.84375
1629376390625,-0.46875,0.203125,0.84375
1629376390656,-0.46875,0.203125,0.84375
1629376390687,-0.46875,0.203125,0.84375
1629376390718,-0.46875,0.203125,0.84375
1629376390750,-0.46875,0.203125,0.84375
1629376390781,-0.46875,0.203125,0.84375
1629376390812,-0.46875,0.203125,0.84375
1629376390843,-0.484375,0.203125,0.84375
1629376390875,-0.46875,0.203125,0.84375
1629376390906,-0.46875,0.203125,0.84375
1629376390937,-0.484375,0.203125,0.84375
1629376390968,-0.46875,0.203125,0.84375
1629376391000,-0.46875,0.203125,0.84375
1629376391031,-0.46875,0.203125,0.84375
1629376391062,-0.46875,0.203125,0.84375
1629376391093,-0.484375,0.203125,0.84375
1629376391125,-0.46875,0.203125,0.84375
1629376391156,-0.46875,0.203125,0.84375
1629376391187,-0.46875,0.203125,0.84375
1629376391218,-0.46875,0.203125,0.84375
1629376391250,-0.484375,0.203125,0.84375
1629376391281,-0.46875,0.203125,0.84375
1629376391312,-0.46875,0.203125,0.84375
1629376391343,-0.46875,0.203125,0.84375
1629376391375,-0.46875,0.203125,0.84375
1629376391406,-0.46875,0.203125,0.84375
1629376391437,-0.46875,0.203125,0.84375
1629376391468,-0.46875,0.203125,0.84375
1629376391500,-0.46875,0.203125,0.84375
1629376391531,-0.484375,0.203125,0.828125
1629376391562,-0.484375,0.203125,0.828125
1629376391593,-0.484375,0.203125,0.84375
1629376391625,-0.46875,0.203125,0.84375
1629376391656,-0.46875,0.203125,0.84375
1629376391687,-0.46875,0.203125,0.84375
1629376391718,-0.46875,0.203125,0.84375
1629376391750,-0.46875,0.203125,0.84375
1629376391781,-0.46875,0.203125,0.84375
1629376391812,-0.46875,0.203125,0.84375
1629376391843,-0.484375,0.203125,0.84375
1629376391875,-0.484375,0.203125,0.84375
1629376391906,-0.484375,0.203125,0.84375
1629376391937,-0.46875,0.203125,0.84375
1629376391968,-0.484375,0.203125,0.84375
1629376392000,-0.484375,0.203125,0.84375
1629376392031,-0.484375,0.203125,0.828125
1629376392062,-0.484375,0.203125,0.84375
1629376392093,-0.484375,0.203125,0.84375
1629376392125,-0.46875,0.203125,0.84375
1629376392156,-0.46875,0.203125,0.84375
1629376392187,-0.46875,0.203125,0.84375
1629376392218,-0.484375,0.203125,0.84375
1629376392250,-0.46875,0.203125,0.84375
1629376392281,-0.484375,0.203125,0.84375
1629376392312,-0.46875,0.203125,0.84375
1629376392343,-0.46875,0.203125,0.84375
1629376392375,-0.484375,0.203125,0.84375
1629376392406,-0.484375,0.203125,0.84375
1629376392437,-0.46875,0.203125,0.84375
1629376392468,-0.46875,0.203125,0.84375
1629376392500,-0.46875,0.203125,0.84375
1629376392531,-0.484375,0.203125,0.828125
1629376392562,-0.484375,0.203125,0.828125
1629376392593,-0.484375,0.203125,0.84375
1629376392625,-0.484375,0.203125,0.84375
1629376392656,-0.484375,0.203125,0.84375
1629376392687,-0.484375,0.203125,0.84375
1629376392718,-0.484375,0.203125,0.84375
1629376392750,-0.46875,0.1875,0.828125
1629376392781,-0.484375,0.1875,0.84375
1629376392812,-0.484375,0.203125,0.828125
1629376392843,-0.484375,0.203125,0.84375
1629376392875,-0.484375,0.203125,0.84375
1629376392906,-0.484375,0.203125,0.84375
1629376392937,-0.484375,0.203125,0.84375
1629376392968,-0.484375,0.1875,0.84375
1629376393000,-0.484375,0.203125,0.84375
1629376393031,-0.484375,0.203125,0.84375
1629376393062,-0.484375,0.203125,0.84375
1629376393093,-0.46875,0.1875,0.84375
1629376393125,-0.484375,0.203125,0.84375
1629376393156,-0.484375,0.1875,0.84375
1629376393187,-0.484375,0.1875,0.828125
1629376393218,-0.484375,0.203125,0.84375
1629376393250,-0.484375,0.203125,0.84375
1629376393281,-0.484375,0.203125,0.84375
1629376393312,-0.484375,0.203125,0.828125
1629376393343,-0.484375,0.203125,0.84375
1629376393375,-0.46875,0.203125,0.84375
1629376393406,-0.484375,0.203125,0.84375
1629376393437,-0.484375,0.203125,0.828125
1629376393468,-0.484375,0.203125,0.84375
1629376393500,-0.484375,0.203125,0.84375
1629376393531,-0.484375,0.203125,0.84375
1629376393562,-0.484375,0.203125,0.84375
1629376393593,-0.484375,0.203125,0.84375
1629376393625,-0.484375,0.203125,0.84375
1629376393656,-0.484375,0.203125,0.84375
1629376393687,-0.484375,0.203125,0.84375
1629376393718,-0.484375,0.203125,0.84375
1629376393750,-0.484375,0.203125,0.84375
1629376393781,-0.484375,0.203125,0.828125
1629376393812,-0.484375,0.203125,0.84375
1629376393843,-0.484375,0.203125,0.84375
1629376393875,-0.484375,0.203125,0.828125
1629376393906,-0.484375,0.203125,0.84375
1629376393937,-0.484375,0.203125,0.84375
1629376393968,-0.484375,0.203125,0.84375
1629376394000,-0.484375,0.203125,0.828125
1629376394031,-0.484375,0.203125,0.84375
1629376394062,-0.484375,0.203125,0.828125
1629376394093,-0.484375,0.203125,0.84375
1629376394125,-0.46875,0.203125,0.84375
1629376394156,-0.484375,0.203125,0.84375
1629376394187,-0.484375,0.203125,0.84375
1629376394218,-0.484375,0.203125,0.84375
1629376394250,-0.484375,0.203125,0.84375
1629376394281,-0.484375,0.203125,0.828125
1629376394312,-0.484375,0.203125,0.84375
1629376394343,-0.46875,0.203125,0.828125
1629376394375,-0.484375,0.203125,0.84375
1629376394406,-0.484375,0.203125,0.84375
1629376394437,-0.46875,0.203125,0.84375
1629376394468,-0.46875,0.203125,0.84375
1629376394500,-0.46875,0.203125,0.84375
1629376394531,-0.46875,0.203125,0.828125
1629376394562,-0.484375,0.203125,0.84375
1629376394593,-0.46875,0.203125,0.84375
1629376394625,-0.46875,0.203125,0.84375
1629376394656,-0.484375,0.203125,0.828125
1629376394687,-0.484375,0.203125,0.828125
1629376394718,-0.46875,0.203125,0.84375
1629376394750,-0.484375,0.203125,0.84375
1629376394781,-0.484375,0.203125,0.84375
1629376394812,-0.484375,0.203125,0.84375
1629376394843,-0.484375,0.1875,0.84375
1629376394875,-0.484375,0.203125,0.84375
1629376394906,-0.484375,0.203125,0.828125
1629376394937,-0.484375,0.203125,0.84375
1629376394968,-0.484375,0.203125,0.84375
1629376395000,-0.46875,0.203125,0.84375
1629376395031,-0.46875,0.203125,0.84375
1629376395062,-0.484375,0.203125,0.84375
1629376395093,-0.484375,0.203125,0.84375
1629376395125,-0.484375,0.203125,0.84375
1629376395156,-0.484375,0.203125,0.84375
1629376395187,-0.484375,0.203125,0.84375
1629376395218,-0.484375,0.1875,0.828125
1629376395250,-0.484375,0.203125,0.84375
1629376395281,-0.46875,0.203125,0.84375
1629376395312,-0.46875,0.1875,0.84375
1629376395343,-0.484375,0.203125,0.828125
1629376395375,-0.484375,0.203125,0.84375
1629376395406,-0.46875,0.203125,0.84375
1629376395437,-0.484375,0.203125,0.84375
1629376395468,-0.484375,0.203125,0.84375
1629376395500,-0.484375,0.1875,0.828125
1629376395531,-0.484375,0.1875,0.84375
1629376395562,-0.484375,0.1875,0.84375
1629376395593,-0.484375,0.203125,0.84375
1629376395625,-0.484375,0.203125,0.84375
1629376395656,-0.484375,0.1875,0.84375
1629376395687,-0.484375,0.203125,0.84375
1629376395718,-0.484375,0.203125,0.84375
1629376395750,-0.484375,0.1875,0.84375
1629376395781,-0.484375,0.203125,0.84375
1629376395812,-0.484375,0.203125,0.84375
1629376395843,-0.484375,0.203125,0.84375
1629376395875,-0.484375,0.203125,0.84375
1629376395906,-0.484375,0.1875,0.84375
1629376395937,-0.46875,0.1875,0.828125
1629376395968,-0.484375,0.203125,0.84375
1629376396000,-0.484375,0.1875,0.84375
1629376396031,-0.484375,0.203125,0.84375
1629376396062,-0.484375,0.203125,0.84375
1629376396093,-0.484375,0.203125,0.84375
1629376396125,-0.484375,0.203125,0.828125
1629376396156,-0.46875,0.203125,0.84375
1629376396187,-0.484375,0.203125,0.84375
1629376396218,-0.484375,0.1875,0.84375
1629376396250,-0.484375,0.1875,0.84375
1629376396281,-0.484375,0.1875,0.84375
1629376396312,-0.484375,0.203125,0.84375
1629376396343,-0.484375,0.203125,0.84375
1629376396375,-0.484375,0.203125,0.84375
1629376396406,-0.484375,0.203125,0.828125
1629376396437,-0.46875,0.203125,0.84375
1629376396468,-0.484375,0.203125,0.84375
1629376396500,-0.484375,0.203125,0.84375
1629376396531,-0.484375,0.1875,0.84375
1629376396562,-0.484375,0.203125,0.84375
1629376396593,-0.484375,0.203125,0.84375
1629376396625,-0.46875,0.1875,0.84375
1629376396656,-0.484375,0.203125,0.84375
1629376396687,-0.484375,0.203125,0.84375
1629376396718,-0.484375,0.203125,0.84375
1629376396750,-0.484375,0.203125,0.84375
1629376396781,-0.484375,0.203125,0.84375
1629376396812,-0.46875,0.203125,0.84375
1629376396843,-0.484375,0.203125,0.84375
1629376396875,-0.484375,0.203125,0.84375
1629376396906,-0.484375,0.203125,0.84375
1629376396937,-0.484375,0.203125,0.84375
1629376396968,-0.484375,0.203125,0.84375
1629376397000,-0.484375,0.203125,0.828125
1629376397031,-0.484375,0.203125,0.84375
1629376397062,-0.46875,0.203125,0.84375
1629376397093,-0.484375,0.203125,0.84375
1629376397125,-0.46875,0.203125,0.84375
1629376397156,-0.46875,0.203125,0.84375
1629376397187,-0.46875,0.203125,0.84375
1629376397218,-0.484375,0.203125,0.828125
1629376397250,-0.484375,0.203125,0.84375
1629376397281,-0.484375,0.203125,0.84375
1629376397312,-0.484375,0.203125,0.84375
1629376397343,-0.484375,0.203125,0.84375
1629376397375,-0.484375,0.203125,0.84375
1629376397406,-0.46875,0.203125,0.828125
1629376397437,-0.484375,0.203125,0.84375
1629376397468,-0.484375,0.203125,0.84375
1629376397500,-0.46875,0.203125,0.84375
1629376397531,-0.484375,0.203125,0.84375
1629376397562,-0.46875,0.203125,0.84375
1629376397593,-0.484375,0.203125,0.828125
1629376397625,-0.484375,0.203125,0.828125
1629376397656,-0.484375,0.203125,0.84375
1629376397687,-0.484375,0.203125,0.828125
1629376397718,-0.484375,0.203125,0.84375
1629376397750,-0.484375,0.203125,0.84375
1629376397781,-0.484375,0.203125,0.84375
1629376397812,-0.484375,0.203125,0.828125
1629376397843,-0.484375,0.203125,0.84375
1629376397875,-0.484375,0.203125,0.828125
1629376397906,-0.46875,0.203125,0.84375
1629376397937,-0.484375,0.203125,0.84375
1629376397968,-0.484375,0.203125,0.828125
1629376398000,-0.46875,0.203125,0.84375
1629376398031,-0.46875,0.203125,0.84375
1629376398062,-0.484375,0.203125,0.84375
1629376398093,-0.484375,0.203125,0.84375
1629376398125,-0.46875,0.203125,0.84375
1629376398156,-0.484375,0.203125,0.828125
1629376398187,-0.46875,0.203125,0.84375
1629376398218,-0.46875,0.203125,0.84375
1629376398250,-0.46875,0.203125,0.84375
1629376398281,-0.46875,0.203125,0.84375
1629376398312,-0.484375,0.203125,0.84375
1629376398343,-0.484375,0.203125,0.84375
1629376398375,-0.484375,0.203125,0.84375
1629376398406,-0.46875,0.203125,0.84375
1629376398437,-0.484375,0.203125,0.84375
1629376398468,-0.484375,0.203125,0.84375
1629376398500,-0.46875,0.203125,0.84375
1629376398531,-0.46875,0.203125,0.84375
1629376398562,-0.46875,0.203125,0.84375
1629376398593,-0.484375,0.203125,0.84375
1629376398625,-0.46875,0.203125,0.84375
1629376398656,-0.46875,0.203125,0.84375
1629376398687,-0.46875,0.203125,0.84375
1629376398718,-0.46875,0.203125,0.84375
1629376398750,-0.46875,0.203125,0.84375
1629376398781,-0.46875,0.203125,0.84375
1629376398812,-0.46875,0.203125,0.84375
1629376398843,-0.484375,0.203125,0.84375
1629376398875,-0.46875,0.203125,0.84375
1629376398906,-0.46875,0.203125,0.828125
1629376398937,-0.46875,0.203125,0.84375
1629376398968,-0.484375,0.203125,0.84375
1629376399000,-0.46875,0.203125,0.84375
1629376399031,-0.484375,0.203125,0.84375
1629376399062,-0.46875,0.203125,0.84375
1629376399093,-0.46875,0.203125,0.828125
1629376399125,-0.46875,0.203125,0.84375
1629376399156,-0.46875,0.203125,0.84375
1629376399187,-0.46875,0.203125,0.84375
1629376399218,-0.484375,0.203125,0.828125
1629376399250,-0.46875,0.203125,0.828125
1629376399281,-0.46875,0.203125,0.84375
1629376399312,-0.46875,0.203125,0.84375
1629376399343,-0.484375,0.203125,0.84375
1629376399375,-0.484375,0.203125,0.84375
1629376399406,-0.484375,0.203125,0.84375
1629376399437,-0.46875,0.203125,0.84375
1629376399468,-0.484375,0.203125,0.84375
1629376399500,-0.46875,0.203125,0.84375
1629376399531,-0.46875,0.203125,0.84375
1629376399562,-0.46875,0.203125,0.84375
1629376399593,-0.46875,0.203125,0.828125
1629376399625,-0.484375,0.203125,0.84375
1629376399656,-0.484375,0.203125,0.84375
1629376399687,-0.46875,0.203125,0.84375
1629376399718,-0.46875,0.203125,0.84375
1629376399750,-0.46875,0.203125,0.84375
1629376399781,-0.46875,0.203125,0.84375
1629376399812,-0.46875,0.203125,0.84375
1629376399843,-0.484375,0.203125,0.84375
1629376399875,-0.484375,0.203125,0.84375
1629376399906,-0.46875,0.203125,0.84375
1629376399937,-0.484375,0.203125,0.828125
1629376399968,-0.484375,0.203125,0.84375
1629376400000,-0.484375,0.203125,0.84375
1629376400031,-0.46875,0.203125,0.84375
1629376400062,-0.46875,0.203125,0.84375
1629376400093,-0.484375,0.203125,0.84375
1629376400125,-0.46875,0.203125,0.84375
1629376400156,-0.484375,0.203125,0.84375
1629376400187,-0.484375,0.203125,0.84375
1629376400218,-0.46875,0.203125,0.84375
1629376400250,-0.46875,0.203125,0.828125
1629376400281,-0.484375,0.203125,0.84375
1629376400312,-0.484375,0.203125,0.84375
1629376400343,-0.46875,0.203125,0.84375
1629376400375,-0.484375,0.203125,0.84375
1629376400406,-0.46875,0.203125,0.84375
1629376400437,-0.46875,0.203125,0.84375
1629376400468,-0.46875,0.203125,0.84375
1629376400500,-0.46875,0.203125,0.84375
1629376400531,-0.484375,0.203125,0.828125
1629376400562,-0.484375,0.203125,0.84375
1629376400593,-0.484375,0.203125,0.84375
1629376400625,-0.46875,0.203125,0.84375
1629376400656,-0.46875,0.203125,0.84375
1629376400687,-0.46875,0.203125,0.84375
1629376400718,-0.46875,0.203125,0.84375
1629376400750,-0.484375,0.203125,0.84375
1629376400781,-0.484375,0.203125,0.84375
1629376400812,-0.46875,0.203125,0.84375
1629376400843,-0.46875,0.203125,0.828125
1629376400875,-0.484375,0.203125,0.828125
1629376400906,-0.484375,0.203125,0.828125
1629376400937,-0.46875,0.203125,0.84375
1629376400968,-0.46875,0.203125,0.84375
1629376401000,-0.46875,0.203125,0.84375
1629376401031,-0.46875,0.203125,0.84375
1629376401062,-0.46875,0.203125,0.828125
1629376401093,-0.46875,0.203125,0.84375
1629376401125,-0.46875,0.203125,0.84375
1629376401156,-0.46875,0.203125,0.84375
1629376401187,-0.46875,0.203125,0.84375
1629376401218,-0.46875,0.203125,0.84375
1629376401250,-0.484375,0.203125,0.84375
1629376401281,-0.46875,0.203125,0.84375
1629376401312,-0.46875,0.203125,0.84375
1629376401343,-0.484375,0.203125,0.84375
1629376401375,-0.46875,0.203125,0.84375
1629376401406,-0.484375,0.203125,0.84375
1629376401437,-0.46875,0.203125,0.84375
1629376401468,-0.46875,0.203125,0.84375
1629376401500,-0.484375,0.203125,0.84375
1629376401531,-0.484375,0.203125,0.84375
1629376401562,-0.46875,0.203125,0.84375
1629376401593,-0.46875,0.203125,0.84375
1629376401625,-0.46875,0.203125,0.84375
1629376401656,-0.46875,0.203125,0.84375
1629376401687,-0.46875,0.203125,0.84375
1629376401718,-0.484375,0.203125,0.828125
1629376401750,-0.484375,0.203125,0.828125
1629376401781,-0.484375,0.203125,0.828125
1629376401812,-0.484375,0.203125,0.828125
1629376401843,-0.484375,0.203125,0.84375
1629376401875,-0.46875,0.203125,0.84375
1629376401906,-0.46875,0.203125,0.84375
1629376401937,-0.46875,0.203125,0.84375
1629376401968,-0.484375,0.203125,0.84375
1629376402000,-0.46875,0.203125,0.84375
1629376402031,-0.484375,0.203125,0.84375
1629376402062,-0.46875,0.203125,0.84375
1629376402093,-0.484375,0.203125,0.84375
1629376402125,-0.484375,0.203125,0.84375
1629376402156,-0.46875,0.203125,0.84375
1629376402187,-0.484375,0.203125,0.84375
1629376402218,-0.484375,0.203125,0.84375
1629376402250,-0.484375,0.203125,0.84375
1629376402281,-0.46875,0.203125,0.828125
1629376402312,-0.484375,0.203125,0.84375
1629376402343,-0.484375,0.203125,0.828125
1629376402375,-0.484375,0.203125,0.84375
1629376402406,-0.484375,0.203125,0.84375
1629376402437,-0.484375,0.203125,0.84375
1629376402468,-0.46875,0.203125,0.84375
1629376402500,-0.46875,0.203125,0.84375
1629376402531,-0.484375,0.203125,0.84375
1629376402562,-0.46875,0.203125,0.84375
1629376402593,-0.46875,0.203125,0.84375
1629376402625,-0.484375,0.203125,0.84375
1629376402656,-0.484375,0.203125,0.828125
1629376402687,-0.46875,0.203125,0.84375
1629376402718,-0.46875,0.203125,0.84375
1629376402750,-0.46875,0.203125,0.84375
1629376402781,-0.46875,0.203125,0.84375
1629376402812,-0.46875,0.203125,0.84375
1629376402843,-0.484375,0.203125,0.84375
1629376402875,-0.484375,0.203125,0.84375
1629376402906,-0.484375,0.203125,0.84375
1629376402937,-0.46875,0.203125,0.84375
1629376402968,-0.46875,0.203125,0.84375
1629376403000,-0.46875,0.203125,0.84375
1629376403031,-0.484375,0.203125,0.84375
1629376403062,-0.46875,0.203125,0.84375
1629376403093,-0.46875,0.203125,0.84375
1629376403125,-0.484375,0.203125,0.828125
1629376403156,-0.46875,0.203125,0.84375
1629376403187,-0.484375,0.203125,0.84375
1629376403218,-0.46875,0.203125,0.84375
1629376403250,-0.46875,0.203125,0.84375
1629376403281,-0.46875,0.203125,0.828125
1629376403312,-0.46875,0.203125,0.84375
1629376403343,-0.46875,0.203125,0.828125
1629376403375,-0.484375,0.203125,0.84375
1629376403406,-0.46875,0.203125,0.84375
1629376403437,-0.46875,0.203125,0.84375
1629376403468,-0.484375,0.203125,0.84375
1629376403500,-0.46875,0.203125,0.828125
1629376403531,-0.484375,0.203125,0.828125
1629376403562,-0.484375,0.203125,0.84375
1629376403593,-0.46875,0.203125,0.84375
1629376403625,-0.46875,0.203125,0.84375
1629376403656,-0.484375,0.203125,0.84375
1629376403687,-0.484375,0.203125,0.84375
1629376403718,-0.46875,0.203125,0.84375
1629376403750,-0.46875,0.203125,0.84375
1629376403781,-0.46875,0.203125,0.84375
1629376403812,-0.46875,0.203125,0.84375
1629376403843,-0.46875,0.203125,0.84375
1629376403875,-0.484375,0.203125,0.84375
1629376403906,-0.46875,0.203125,0.84375
1629376403937,-0.46875,0.203125,0.84375
1629376403968,-0.484375,0.203125,0.828125
1629376404000,-0.484375,0.203125,0.84375
1629376404031,-0.484375,0.203125,0.84375
1629376404062,-0.484375,0.203125,0.84375
1629376404093,-0.46875,0.203125,0.84375
1629376404125,-0.46875,0.203125,0.84375
1629376404156,-0.46875,0.203125,0.84375
1629376404187,-0.484375,0.203125,0.84375
1629376404218,-0.484375,0.203125,0.84375
1629376404250,-0.46875,0.203125,0.84375
1629376404281,-0.484375,0.203125,0.84375
1629376404312,-0.46875,0.203125,0.84375
1629376404343,-0.46875,0.203125,0.84375
1629376404375,-0.484375,0.203125,0.84375
1629376404406,-0.46875,0.203125,0.84375
1629376404437,-0.46875,0.203125,0.84375
1629376404468,-0.484375,0.203125,0.84375
1629376404500,-0.46875,0.203125,0.84375
1629376404531,-0.46875,0.203125,0.84375
1629376404562,-0.484375,0.203125,0.828125
1629376404593,-0.46875,0.203125,0.84375
1629376404625,-0.46875,0.203125,0.828125
1629376404656,-0.46875,0.203125,0.84375
1629376404687,-0.46875,0.203125,0.84375
1629376404718,-0.46875,0.203125,0.84375
1629376404750,-0.484375,0.203125,0.828125
1629376404781,-0.484375,0.203125,0.84375
1629376404812,-0.484375,0.1875,0.84375
1629376404843,-0.46875,0.203125,0.84375
1629376404875,-0.484375,0.203125,0.84375
1629376404906,-0.484375,0.203125,0.828125
1629376404937,-0.484375,0.203125,0.84375
1629376404968,-0.484375,0.203125,0.84375
1629376405000,-0.484375,0.203125,0.84375
1629376405031,-0.484375,0.203125,0.828125
1629376405062,-0.46875,0.203125,0.84375
1629376405093,-0.46875,0.203125,0.84375
1629376405125,-0.46875,0.203125,0.84375
1629376405156,-0.46875,0.203125,0.84375
1629376405187,-0.484375,0.1875,0.84375
1629376405218,-0.484375,0.203125,0.84375
1629376405250,-0.484375,0.203125,0.84375
1629376405281,-0.484375,0.203125,0.84375
1629376405312,-0.46875,0.203125,0.84375
1629376405343,-0.484375,0.203125,0.84375
1629376405375,-0.484375,0.203125,0.84375
1629376405406,-0.484375,0.203125,0.84375
1629376405437,-0.484375,0.203125,0.84375
1629376405468,-0.484375,0.203125,0.84375
1629376405500,-0.46875,0.203125,0.84375
1629376405531,-0.484375,0.203125,0.84375
1629376405562,-0.484375,0.203125,0.84375
1629376405593,-0.46875,0.203125,0.84375
1629376405625,-0.484375,0.203125,0.84375
1629376405656,-0.46875,0.203125,0.84375
1629376405687,-0.484375,0.203125,0.84375
1629376405718,-0.484375,0.203125,0.84375
1629376405750,-0.46875,0.203125,0.84375
1629376405781,-0.46875,0.1875,0.84375
1629376405812,-0.46875,0.1875,0.84375
1629376405843,-0.46875,0.203125,0.84375
1629376405875,-0.46875,0.203125,0.84375
1629376405906,-0.46875,0.203125,0.84375
1629376405937,-0.46875,0.203125,0.84375
1629376405968,-0.484375,0.203125,0.828125
1629376406000,-0.484375,0.203125,0.828125
1629376406031,-0.484375,0.203125,0.84375
1629376406062,-0.484375,0.203125,0.84375
1629376406093,-0.484375,0.203125,0.828125
1629376406125,-0.484375,0.203125,0.84375
1629376406156,-0.484375,0.203125,0.84375
1629376406187,-0.484375,0.203125,0.84375
1629376406218,-0.484375,0.203125,0.84375
1629376406250,-0.484375,0.203125,0.84375
1629376406281,-0.484375,0.203125,0.84375
1629376406312,-0.46875,0.203125,0.84375
1629376406343,-0.484375,0.1875,0.84375
1629376406375,-0.46875,0.203125,0.84375
1629376406406,-0.484375,0.203125,0.84375
1629376406437,-0.484375,0.1875,0.84375
1629376406468,-0.484375,0.203125,0.84375
1629376406500,-0.46875,0.203125,0.84375
1629376406531,-0.484375,0.203125,0.84375
1629376406562,-0.484375,0.203125,0.828125
1629376406593,-0.484375,0.203125,0.84375
1629376406625,-0.484375,0.203125,0.84375
1629376406656,-0.484375,0.203125,0.84375
1629376406687,-0.484375,0.203125,0.84375
1629376406718,-0.484375,0.203125,0.84375
1629376406750,-0.484375,0.1875,0.84375
1629376406781,-0.484375,0.203125,0.828125
1629376406812,-0.484375,0.203125,0.84375
1629376406843,-0.484375,0.203125,0.828125
1629376406875,-0.484375,0.203125,0.84375
1629376406906,-0.484375,0.203125,0.84375
1629376406937,-0.484375,0.203125,0.828125
1629376406968,-0.484375,0.203125,0.84375
1629376407000,-0.46875,0.203125,0.84375
1629376407031,-0.46875,0.203125,0.84375
1629376407062,-0.484375,0.203125,0.84375
1629376407093,-0.484375,0.203125,0.84375
1629376407125,-0.484375,0.203125,0.828125
1629376407156,-0.484375,0.203125,0.84375
1629376407187,-0.484375,0.203125,0.84375
1629376407218,-0.484375,0.203125,0.84375
1629376407250,-0.484375,0.203125,0.84375
1629376407281,-0.484375,0.203125,0.84375
1629376407312,-0.484375,0.203125,0.828125
1629376407343,-0.484375,0.203125,0.828125
1629376407375,-0.484375,0.203125,0.84375
1629376407406,-0.484375,0.203125,0.84375
1629376407437,-0.46875,0.203125,0.84375
1629376407468,-0.484375,0.203125,0.84375
1629376407500,-0.484375,0.203125,0.84375
1629376407531,-0.484375,0.203125,0.84375
1629376407562,-0.484375,0.203125,0.84375
1629376407593,-0.484375,0.203125,0.84375
1629376407625,-0.484375,0.203125,0.828125
1629376407656,-0.484375,0.203125,0.828125
1629376407687,-0.484375,0.203125,0.828125
1629376407718,-0.484375,0.203125,0.84375
1629376407750,-0.46875,0.203125,0.828125
1629376407781,-0.484375,0.203125,0.828125
1629376407812,-0.484375,0.203125,0.84375
1629376407843,-0.484375,0.203125,0.84375
1629376407875,-0.484375,0.203125,0.84375
1629376407906,-0.484375,0.203125,0.828125
1629376407937,-0.46875,0.203125,0.828125
1629376407968,-0.484375,0.203125,0.828125
1629376408000,-0.484375,0.203125,0.828125
1629376408031,-0.484375,0.203125,0.84375
1629376408062,-0.484375,0.203125,0.84375
1629376408093,-0.484375,0.203125,0.84375
1629376408125,-0.484375,0.203125,0.84375
1629376408156,-0.484375,0.203125,0.84375
1629376408187,-0.484375,0.203125,0.84375
1629376408218,-0.484375,0.203125,0.84375
1629376408250,-0.484375,0.203125,0.84375
1629376408281,-0.46875,0.203125,0.84375
1629376408312,-0.484375,0.203125,0.84375
1629376408343,-0.484375,0.203125,0.84375
1629376408375,-0.484375,0.203125,0.828125
1629376408406,-0.484375,0.203125,0.828125
1629376408437,-0.46875,0.203125,0.84375
1629376408468,-0.484375,0.203125,0.84375
1629376408500,-0.484375,0.203125,0.84375
1629376408531,-0.484375,0.203125,0.84375
1629376408562,-0.484375,0.203125,0.84375
1629376408593,-0.484375,0.203125,0.84375
1629376408625,-0.484375,0.203125,0.84375
1629376408656,-0.484375,0.203125,0.828125
1629376408687,-0.484375,0.203125,0.828125
1629376408718,-0.484375,0.203125,0.828125
1629376408750,-0.46875,0.203125,0.84375
1629376408781,-0.46875,0.203125,0.84375
1629376408812,-0.46875,0.203125,0.84375
1629376408843,-0.46875,0.203125,0.84375
1629376408875,-0.46875,0.203125,0.84375
1629376408906,-0.46875,0.203125,0.84375
1629376408937,-0.46875,0.203125,0.84375
1629376408968,-0.46875,0.203125,0.84375
1629376409000,-0.46875,0.203125,0.84375
1629376409031,-0.484375,0.203125,0.828125
1629376409062,-0.484375,0.203125,0.828125
1629376409093,-0.46875,0.203125,0.84375
1629376409125,-0.484375,0.203125,0.84375
1629376409156,-0.46875,0.203125,0.84375
1629376409187,-0.46875,0.203125,0.84375
1629376409218,-0.46875,0.203125,0.84375
1629376409250,-0.46875,0.203125,0.828125
1629376409281,-0.46875,0.203125,0.84375
1629376409312,-0.46875,0.203125,0.84375
1629376409343,-0.46875,0.203125,0.84375
1629376409375,-0.46875,0.203125,0.84375
1629376409406,-0.46875,0.203125,0.828125
1629376409437,-0.46875,0.203125,0.84375
1629376409468,-0.46875,0.203125,0.84375
1629376409500,-0.46875,0.203125,0.828125
1629376409531,-0.484375,0.203125,0.84375
1629376409562,-0.484375,0.203125,0.84375
1629376409593,-0.484375,0.203125,0.84375
1629376409625,-0.46875,0.203125,0.84375
1629376409656,-0.46875,0.203125,0.84375
1629376409687,-0.46875,0.203125,0.84375
1629376409718,-0.484375,0.203125,0.84375
1629376409750,-0.46875,0.203125,0.84375
1629376409781,-0.46875,0.203125,0.84375
1629376409812,-0.46875,0.203125,0.84375
1629376409843,-0.46875,0.203125,0.84375
1629376409875,-0.46875,0.203125,0.84375
1629376409906,-0.46875,0.203125,0.84375
1629376409937,-0.46875,0.203125,0.84375
1629376409968,-0.46875,0.203125,0.84375
1629376410000,-0.484375,0.203125,0.84375
1629376410031,-0.46875,0.203125,0.84375
1629376410062,-0.46875,0.203125,0.84375
1629376410093,-0.46875,0.203125,0.84375
1629376410125,-0.46875,0.203125,0.84375
1629376410156,-0.46875,0.203125,0.84375
1629376410187,-0.46875,0.203125,0.84375
1629376410218,-0.46875,0.203125,0.84375
1629376410250,-0.46875,0.203125,0.84375
1629376410281,-0.46875,0.203125,0.84375
1629376410312,-0.46875,0.203125,0.84375
1629376410343,-0.46875,0.203125,0.84375
1629376410375,-0.46875,0.203125,0.84375
1629376410406,-0.46875,0.203125,0.84375
1629376410437,-0.46875,0.203125,0.84375
1629376410468,-0.46875,0.203125,0.84375
1629376410500,-0.46875,0.203125,0.84375
1629376410531,-0.46875,0.203125,0.84375
1629376410562,-0.46875,0.203125,0.828125
1629376410593,-0.46875,0.203125,0.84375
1629376410625,-0.46875,0.203125,0.84375
1629376410656,-0.46875,0.203125,0.84375
1629376410687,-0.484375,0.203125,0.828125
1629376410718,-0.484375,0.203125,0.84375
1629376410750,-0.46875,0.203125,0.84375
1629376410781,-0.46875,0.203125,0.84375
1629376410812,-0.46875,0.203125,0.828125
1629376410843,-0.46875,0.203125,0.84375
1629376410875,-0.46875,0.203125,0.84375
1629376410906,-0.46875,0.203125,0.84375
1629376410937,-0.46875,0.203125,0.84375
1629376410968,-0.484375,0.203125,0.84375
1629376411000,-0.46875,0.203125,0.828125
1629376411031,-0.46875,0.203125,0.84375
1629376411062,-0.484375,0.203125,0.84375
1629376411093,-0.484375,0.203125,0.84375
1629376411125,-0.46875,0.203125,0.84375
1629376411156,-0.46875,0.203125,0.84375
1629376411187,-0.46875,0.203125,0.84375
1629376411218,-0.46875,0.203125,0.84375
1629376411250,-0.484375,0.203125,0.828125
1629376411281,-0.484375,0.203125,0.84375
1629376411312,-0.46875,0.203125,0.84375
1629376411343,-0.46875,0.203125,0.84375
1629376411375,-0.46875,0.203125,0.84375
1629376411406,-0.46875,0.203125,0.84375
1629376411437,-0.46875,0.203125,0.84375
1629376411468,-0.484375,0.203125,0.828125
1629376411500,-0.484375,0.203125,0.84375
1629376411531,-0.46875,0.203125,0.84375
1629376411562,-0.46875,0.203125,0.84375
1629376411593,-0.46875,0.203125,0.84375
1629376411625,-0.46875,0.203125,0.84375
1629376411656,-0.46875,0.203125,0.84375
1629376411687,-0.46875,0.203125,0.84375
1629376411718,-0.46875,0.203125,0.84375
1629376411750,-0.46875,0.203125,0.828125
1629376411781,-0.46875,0.203125,0.828125
1629376411812,-0.46875,0.203125,0.84375
1629376411843,-0.46875,0.203125,0.84375
1629376411875,-0.484375,0.203125,0.84375
1629376411906,-0.484375,0.203125,0.84375
1629376411937,-0.46875,0.203125,0.828125
1629376411968,-0.484375,0.203125,0.828125
1629376412000,-0.46875,0.203125,0.84375
1629376412031,-0.484375,0.203125,0.84375
1629376412062,-0.46875,0.203125,0.84375
1629376412093,-0.484375,0.203125,0.84375
1629376412125,-0.46875,0.203125,0.828125
1629376412156,-0.46875,0.203125,0.84375
1629376412187,-0.46875,0.203125,0.84375
1629376412218,-0.46875,0.203125,0.84375
1629376412250,-0.46875,0.203125,0.84375
1629376412281,-0.46875,0.203125,0.84375
1629376412312,-0.484375,0.203125,0.84375
1629376412343,-0.46875,0.203125,0.84375
1629376412375,-0.46875,0.203125,0.84375
1629376412406,-0.46875,0.203125,0.84375
1629376412437,-0.484375,0.203125,0.84375
1629376412468,-0.484375,0.203125,0.84375
1629376412500,-0.46875,0.203125,0.84375
1629376412531,-0.484375,0.203125,0.84375
1629376412562,-0.484375,0.203125,0.84375
1629376412593,-0.46875,0.203125,0.84375
1629376412625,-0.484375,0.203125,0.84375
1629376412656,-0.46875,0.203125,0.84375
1629376412687,-0.46875,0.203125,0.84375
1629376412718,-0.46875,0.203125,0.828125
1629376412750,-0.484375,0.203125,0.84375
1629376412781,-0.46875,0.203125,0.84375
1629376412812,-0.46875,0.203125,0.84375
1629376412843,-0.46875,0.203125,0.84375
1629376412875,-0.46875,0.203125,0.84375
1629376412906,-0.46875,0.203125,0.84375
1629376412937,-0.484375,0.203125,0.84375
1629376412968,-0.46875,0.203125,0.84375
1629376413000,-0.46875,0.203125,0.84375
1629376413031,-0.46875,0.203125,0.84375
1629376413062,-0.484375,0.203125,0.84375
1629376413093,-0.46875,0.203125,0.84375
1629376413125,-0.46875,0.203125,0.84375
1629376413156,-0.46875,0.203125,0.84375
1629376413187,-0.46875,0.203125,0.84375
1629376413218,-0.46875,0.203125,0.84375
1629376413250,-0.46875,0.203125,0.84375
1629376413281,-0.46875,0.203125,0.84375
1629376413312,-0.46875,0.203125,0.84375
1629376413343,-0.46875,0.203125,0.84375
1629376413375,-0.46875,0.203125,0.84375
1629376413406,-0.484375,0.203125,0.84375
1629376413437,-0.46875,0.203125,0.84375
1629376413468,-0.46875,0.203125,0.84375
1629376413500,-0.484375,0.203125,0.84375
1629376413531,-0.46875,0.203125,0.84375
1629376413562,-0.46875,0.203125,0.84375
1629376413593,-0.46875,0.203125,0.84375
1629376413625,-0.46875,0.203125,0.84375
1629376413656,-0.46875,0.203125,0.84375
1629376413687,-0.46875,0.203125,0.828125
1629376413718,-0.484375,0.203125,0.84375
1629376413750,-0.46875,0.203125,0.84375
1629376413781,-0.46875,0.203125,0.828125
1629376413812,-0.46875,0.203125,0.84375
1629376413843,-0.46875,0.203125,0.84375
1629376413875,-0.46875,0.203125,0.84375
1629376413906,-0.46875,0.203125,0.84375
1629376413937,-0.46875,0.203125,0.828125
1629376413968,-0.46875,0.203125,0.84375
1629376414000,-0.46875,0.203125,0.84375
1629376414031,-0.46875,0.203125,0.84375
1629376414062,-0.484375,0.203125,0.84375
1629376414093,-0.46875,0.203125,0.84375
1629376414125,-0.484375,0.203125,0.84375
1629376414156,-0.46875,0.203125,0.84375
1629376414187,-0.46875,0.203125,0.84375
1629376414218,-0.484375,0.203125,0.84375
1629376414250,-0.46875,0.203125,0.828125
1629376414281,-0.484375,0.203125,0.828125
1629376414312,-0.484375,0.203125,0.84375
1629376414343,-0.46875,0.203125,0.828125
1629376414375,-0.46875,0.203125,0.84375
1629376414406,-0.46875,0.203125,0.84375
1629376414437,-0.46875,0.203125,0.84375
1629376414468,-0.484375,0.203125,0.84375
1629376414500,-0.46875,0.203125,0.84375
1629376414531,-0.46875,0.203125,0.84375
1629376414562,-0.46875,0.203125,0.84375
1629376414593,-0.46875,0.203125,0.84375
1629376414625,-0.46875,0.203125,0.84375
1629376414656,-0.46875,0.203125,0.84375
1629376414687,-0.46875,0.203125,0.84375
1629376414718,-0.46875,0.203125,0.84375
1629376414750,-0.484375,0.203125,0.84375
1629376414781,-0.46875,0.203125,0.84375
1629376414812,-0.46875,0.203125,0.84375
1629376414843,-0.46875,0.203125,0.84375
1629376414875,-0.46875,0.203125,0.828125
1629376414906,-0.484375,0.203125,0.84375
1629376414937,-0.46875,0.203125,0.84375
1629376414968,-0.484375,0.203125,0.84375
1629376415000,-0.484375,0.203125,0.84375
1629376415031,-0.46875,0.203125,0.84375
1629376415062,-0.484375,0.203125,0.84375
1629376415093,-0.484375,0.1875,0.84375
1629376415125,-0.46875,0.203125,0.84375
1629376415156,-0.46875,0.203125,0.84375
1629376415187,-0.46875,0.203125,0.84375
1629376415218,-0.46875,0.1875,0.84375
1629376415250,-0.484375,0.203125,0.84375
1629376415281,-0.46875,0.203125,0.84375
1629376415312,-0.46875,0.203125,0.84375
1629376415343,-0.484375,0.203125,0.84375
1629376415375,-0.484375,0.203125,0.84375
1629376415406,-0.46875,0.203125,0.84375
1629376415437,-0.46875,0.1875,0.84375
1629376415468,-0.46875,0.203125,0.84375
1629376415500,-0.484375,0.1875,0.84375
1629376415531,-0.484375,0.1875,0.828125
1629376415562,-0.46875,0.203125,0.84375
1629376415593,-0.46875,0.203125,0.84375
1629376415625,-0.484375,0.203125,0.84375
1629376415656,-0.484375,0.203125,0.84375
1629376415687,-0.46875,0.203125,0.828125
1629376415718,-0.484375,0.1875,0.84375
1629376415750,-0.46875,0.203125,0.84375
1629376415781,-0.484375,0.203125,0.84375
1629376415812,-0.484375,0.1875,0.84375
1629376415843,-0.46875,0.203125,0.84375
1629376415875,-0.484375,0.203125,0.84375
1629376415906,-0.484375,0.203125,0.84375
1629376415937,-0.46875,0.1875,0.84375
1629376415968,-0.484375,0.203125,0.84375
1629376416000,-0.484375,0.203125,0.84375
1629376416031,-0.484375,0.203125,0.84375
1629376416062,-0.46875,0.203125,0.84375
1629376416093,-0.484375,0.203125,0.84375
1629376416125,-0.484375,0.1875,0.84375
1629376416156,-0.484375,0.203125,0.84375
1629376416187,-0.484375,0.203125,0.84375
1629376416218,-0.46875,0.203125,0.84375
1629376416250,-0.484375,0.203125,0.84375
1629376416281,-0.484375,0.203125,0.84375
1629376416312,-0.46875,0.203125,0.84375
1629376416343,-0.484375,0.203125,0.84375
1629376416375,-0.46875,0.203125,0.84375
1629376416406,-0.484375,0.203125,0.84375
1629376416437,-0.484375,0.203125,0.84375
1629376416468,-0.484375,0.203125,0.84375
1629376416500,-0.46875,0.203125,0.84375
1629376416531,-0.484375,0.203125,0.84375
1629376416562,-0.46875,0.203125,0.84375
1629376416593,-0.484375,0.1875,0.84375
1629376416625,-0.484375,0.203125,0.828125
1629376416656,-0.484375,0.203125,0.84375
1629376416687,-0.46875,0.203125,0.828125
1629376416718,-0.46875,0.203125,0.84375
1629376416750,-0.46875,0.203125,0.84375
1629376416781,-0.484375,0.203125,0.84375
1629376416812,-0.484375,0.203125,0.828125
1629376416843,-0.484375,0.203125,0.84375
1629376416875,-0.484375,0.203125,0.828125
1629376416906,-0.484375,0.203125,0.828125
1629376416937,-0.484375,0.203125,0.84375
1629376416968,-0.46875,0.203125,0.84375
1629376417000,-0.484375,0.203125,0.84375
1629376417031,-0.46875,0.203125,0.828125
1629376417062,-0.484375,0.203125,0.84375
1629376417093,-0.484375,0.203125,0.84375
1629376417125,-0.46875,0.203125,0.84375
1629376417156,-0.484375,0.203125,0.828125
1629376417187,-0.484375,0.203125,0.828125
1629376417218,-0.484375,0.203125,0.828125
1629376417250,-0.484375,0.203125,0.84375
1629376417281,-0.46875,0.203125,0.84375
1629376417312,-0.484375,0.203125,0.84375
1629376417343,-0.46875,0.203125,0.84375
1629376417375,-0.484375,0.203125,0.828125
1629376417406,-0.46875,0.203125,0.84375
1629376417437,-0.46875,0.203125,0.84375
1629376417468,-0.46875,0.203125,0.84375
1629376417500,-0.46875,0.203125,0.84375
1629376417531,-0.484375,0.203125,0.84375
1629376417562,-0.46875,0.203125,0.84375
1629376417593,-0.46875,0.203125,0.84375
1629376417625,-0.484375,0.203125,0.84375
1629376417656,-0.46875,0.203125,0.84375
1629376417687,-0.46875,0.203125,0.84375
1629376417718,-0.484375,0.203125,0.84375
1629376417750,-0.484375,0.203125,0.84375
1629376417781,-0.46875,0.203125,0.84375
1629376417812,-0.46875,0.203125,0.84375
1629376417843,-0.46875,0.203125,0.84375
1629376417875,-0.484375,0.203125,0.84375
1629376417906,-0.46875,0.203125,0.84375
1629376417937,-0.46875,0.203125,0.84375
1629376417968,-0.46875,0.203125,0.84375
1629376418000,-0.46875,0.203125,0.828125
1629376418031,-0.484375,0.203125,0.84375
1629376418062,-0.46875,0.203125,0.84375
1629376418093,-0.46875,0.203125,0.84375
1629376418125,-0.484375,0.203125,0.84375
1629376418156,-0.484375,0.203125,0.84375
1629376418187,-0.484375,0.203125,0.84375
1629376418218,-0.46875,0.203125,0.84375
1629376418250,-0.484375,0.203125,0.84375
1629376418281,-0.484375,0.203125,0.828125
1629376418312,-0.484375,0.203125,0.828125
1629376418343,-0.46875,0.203125,0.84375
1629376418375,-0.46875,0.203125,0.84375
1629376418406,-0.484375,0.203125,0.84375
1629376418437,-0.484375,0.203125,0.828125
1629376418468,-0.484375,0.203125,0.84375
1629376418500,-0.484375,0.203125,0.828125
1629376418531,-0.484375,0.203125,0.84375
1629376418562,-0.484375,0.203125,0.84375
1629376418593,-0.46875,0.203125,0.84375
1629376418625,-0.46875,0.203125,0.84375
1629376418656,-0.484375,0.203125,0.84375
1629376418687,-0.484375,0.203125,0.84375
1629376418718,-0.46875,0.203125,0.84375
1629376418750,-0.46875,0.203125,0.84375
1629376418781,-0.46875,0.203125,0.84375
1629376418812,-0.484375,0.203125,0.84375
1629376418843,-0.46875,0.203125,0.84375
1629376418875,-0.46875,0.203125,0.84375
1629376418906,-0.46875,0.203125,0.84375
1629376418937,-0.46875,0.203125,0.84375
1629376418968,-0.484375,0.203125,0.828125
1629376419000,-0.484375,0.203125,0.84375
1629376419031,-0.46875,0.203125,0.84375
1629376419062,-0.46875,0.203125,0.84375
1629376419093,-0.46875,0.203125,0.84375
1629376419125,-0.484375,0.203125,0.828125
1629376419156,-0.46875,0.203125,0.84375
1629376419187,-0.46875,0.203125,0.84375
1629376419218,-0.46875,0.203125,0.828125
1629376419250,-0.46875,0.203125,0.84375
1629376419281,-0.46875,0.203125,0.84375
1629376419312,-0.484375,0.203125,0.84375
1629376419343,-0.484375,0.203125,0.84375
1629376419375,-0.484375,0.203125,0.84375
1629376419406,-0.46875,0.203125,0.828125
1629376419437,-0.484375,0.203125,0.828125
1629376419468,-0.46875,0.203125,0.84375
1629376419500,-0.46875,0.203125,0.84375
1629376419531,-0.484375,0.203125,0.828125
1629376419562,-0.484375,0.203125,0.84375
1629376419593,-0.484375,0.203125,0.828125
1629376419625,-0.484375,0.203125,0.84375
1629376419656,-0.484375,0.203125,0.84375
1629376419687,-0.484375,0.203125,0.84375
1629376419718,-0.484375,0.203125,0.828125
1629376419750,-0.484375,0.203125,0.84375
1629376419781,-0.484375,0.203125,0.84375
1629376419812,-0.484375,0.203125,0.84375
1629376419843,-0.46875,0.203125,0.84375
1629376419875,-0.484375,0.203125,0.84375
1629376419906,-0.484375,0.203125,0.84375
1629376419937,-0.484375,0.203125,0.84375
1629376419968,-0.484375,0.203125,0.84375
1629376420000,-0.46875,0.203125,0.84375
1629376420031,-0.484375,0.203125,0.828125
1629376420062,-0.484375,0.203125,0.828125
1629376420093,-0.484375,0.203125,0.84375
1629376420125,-0.484375,0.203125,0.84375
1629376420156,-0.46875,0.203125,0.84375
1629376420187,-0.484375,0.203125,0.84375
1629376420218,-0.46875,0.203125,0.84375
1629376420250,-0.484375,0.203125,0.828125
1629376420281,-0.484375,0.203125,0.84375
1629376420312,-0.484375,0.203125,0.84375
1629376420343,-0.484375,0.203125,0.84375
1629376420375,-0.484375,0.203125,0.84375
1629376420406,-0.484375,0.203125,0.828125
1629376420437,-0.484375,0.203125,0.84375
1629376420468,-0.484375,0.203125,0.84375
1629376420500,-0.484375,0.203125,0.84375
1629376420531,-0.484375,0.203125,0.828125
1629376420562,-0.46875,0.203125,0.828125
1629376420593,-0.484375,0.203125,0.828125
1629376420625,-0.484375,0.203125,0.84375
1629376420656,-0.484375,0.203125,0.84375
1629376420687,-0.484375,0.203125,0.828125
1629376420718,-0.484375,0.203125,0.84375
1629376420750,-0.46875,0.203125,0.84375
1629376420781,-0.46875,0.203125,0.84375
1629376420812,-0.484375,0.203125,0.84375
1629376420843,-0.484375,0.203125,0.84375
1629376420875,-0.484375,0.203125,0.84375
1629376420906,-0.484375,0.203125,0.828125
1629376420937,-0.484375,0.203125,0.828125
1629376420968,-0.484375,0.1875,0.828125
1629376421000,-0.484375,0.203125,0.84375
1629376421031,-0.484375,0.203125,0.84375
1629376421062,-0.46875,0.203125,0.84375
1629376421093,-0.484375,0.203125,0.84375
1629376421125,-0.484375,0.203125,0.828125
1629376421156,-0.46875,0.203125,0.828125
1629376421187,-0.46875,0.203125,0.84375
1629376421218,-0.484375,0.203125,0.84375
1629376421250,-0.46875,0.203125,0.828125
1629376421281,-0.484375,0.203125,0.828125
1629376421312,-0.484375,0.203125,0.84375
1629376421343,-0.46875,0.203125,0.84375
1629376421375,-0.484375,0.203125,0.84375
1629376421406,-0.484375,0.203125,0.84375
1629376421437,-0.46875,0.203125,0.84375
1629376421468,-0.484375,0.203125,0.84375
1629376421500,-0.484375,0.203125,0.84375
1629376421531,-0.46875,0.203125,0.84375
1629376421562,-0.484375,0.203125,0.84375
1629376421593,-0.484375,0.203125,0.84375
1629376421625,-0.484375,0.203125,0.84375
1629376421656,-0.484375,0.203125,0.84375
1629376421687,-0.484375,0.203125,0.84375
1629376421718,-0.484375,0.203125,0.84375
1629376421750,-0.484375,0.203125,0.84375
1629376421781,-0.46875,0.203125,0.84375
1629376421812,-0.46875,0.203125,0.84375
1629376421843,-0.484375,0.203125,0.828125
1629376421875,-0.484375,0.203125,0.84375
1629376421906,-0.46875,0.203125,0.828125
1629376421937,-0.484375,0.203125,0.84375
1629376421968,-0.484375,0.203125,0.84375
1629376422000,-0.484375,0.203125,0.84375
1629376422031,-0.46875,0.203125,0.84375
1629376422062,-0.484375,0.203125,0.84375
1629376422093,-0.484375,0.203125,0.828125
1629376422125,-0.46875,0.203125,0.84375
1629376422156,-0.484375,0.203125,0.84375
1629376422187,-0.46875,0.203125,0.84375
1629376422218,-0.484375,0.1875,0.84375
1629376422250,-0.46875,0.203125,0.84375
1629376422281,-0.46875,0.203125,0.84375
1629376422312,-0.484375,0.203125,0.84375
1629376422343,-0.484375,0.203125,0.84375
1629376422375,-0.484375,0.203125,0.84375
1629376422406,-0.484375,0.203125,0.828125
1629376422437,-0.484375,0.203125,0.84375
1629376422468,-0.484375,0.203125,0.84375
1629376422500,-0.484375,0.203125,0.84375
1629376422531,-0.484375,0.203125,0.84375
1629376422562,-0.46875,0.203125,0.84375
1629376422593,-0.484375,0.203125,0.84375
1629376422625,-0.484375,0.203125,0.84375
1629376422656,-0.484375,0.203125,0.84375
1629376422687,-0.484375,0.203125,0.84375
1629376422718,-0.484375,0.203125,0.84375
1629376422750,-0.484375,0.203125,0.84375
1629376422781,-0.484375,0.203125,0.84375
1629376422812,-0.46875,0.203125,0.84375
1629376422843,-0.46875,0.203125,0.84375
1629376422875,-0.46875,0.203125,0.828125
1629376422906,-0.484375,0.203125,0.84375
1629376422937,-0.484375,0.203125,0.84375
1629376422968,-0.46875,0.203125,0.84375
1629376423000,-0.46875,0.203125,0.828125
1629376423031,-0.484375,0.203125,0.84375
1629376423062,-0.46875,0.203125,0.84375
1629376423093,-0.46875,0.203125,0.828125
1629376423125,-0.46875,0.203125,0.828125
1629376423156,-0.484375,0.203125,0.84375
1629376423187,-0.484375,0.203125,0.84375
1629376423218,-0.46875,0.203125,0.84375
1629376423250,-0.484375,0.203125,0.84375
