timestamp,ax,ay,az
1630588169000,-0.875,0.484375,-0.03125
1630588169031,-0.875,0.484375,-0.03125
1630588169062,-0.890625,0.484375,-0.03125
1630588169093,-0.890625,0.46875,-0.03125
1630588169125,-0.875,0.484375,-0.03125
1630588169156,-0.875,0.484375,-0.03125
1630588169187,-0.875,0.484375,-0.03125
1630588169218,-0.875,0.484375,-0.03125
1630588169250,-0.890625,0.46875,-0.03125
1630588169281,-0.890625,0.46875,-0.03125
1630588169312,-0.890625,0.46875,-0.03125
1630588169343,-0.875,0.484375,-0.03125
1630588169375,-0.875,0.484375,-0.03125
1630588169406,-0.875,0.484375,-0.03125
1630588169437,-0.875,0.484375,-0.03125
1630588169468,-0.875,0.484375,-0.03125
1630588169500,-0.890625,0.46875,-0.03125
1630588169531,-0.890625,0.46875,-0.03125
1630588169562,-0.890625,0.46875,-0.03125
1630588169593,-0.875,0.46875,-0.03125
1630588169625,-0.875,0.484375,-0.03125
1630588169656,-0.875,0.46875,-0.03125
1630588169687,-0.875,0.46875,-0.046875
1630588169718,-0.875,0.484375,-0.03125
1630588169750,-0.875,0.484375,-0.03125
1630588169781,-0.875,0.46875,-0.03125
1630588169812,-0.890625,0.484375,-0.03125
1630588169843,-0.890625,0.484375,-0.03125
1630588169875,-0.890625,0.46875,-0.03125
1630588169906,-0.875,0.46875,-0.03125
1630588169937,-0.875,0.46875,-0.03125
1630588169968,-0.875,0.46875,-0.03125
1630588170000,-0.890625,0.46875,-0.03125
1630588170031,-0.890625,0.46875,-0.03125
1630588170062,-0.890625,0.484375,-0.03125
1630588170093,-0.890625,0.46875,-0.03125
1630588170125,-0.890625,0.46875,-0.03125
1630588170156,-0.890625,0.46875,-0.03125
1630588170187,-0.890625,0.484375,-0.03125
1630588170218,-0.875,0.484375,-0.03125
1630588170250,-0.890625,0.484375,-0.03125
1630588170281,-0.90625,0.5,-0.03125
1630588170312,-0.90625,0.546875,0.078125
1630588170343,-0.921875,0.5625,0.109375
1630588170375,-1.046875,0.640625,0.078125
1630588170406,-1.046875,0.703125,0.15625
1630588170437,-0.859375,0.734375,0.21875
1630588170468,-0.796875,0.59375,0.125
1630588170500,-0.765625,0.59375,0.171875
1630588170531,-0.796875,0.515625,0.109375
1630588170562,-0.78125,0.484375,0.09375
1630588170593,-0.78125,0.4375,0.109375
1630588170625,-0.796875,0.421875,0.078125
1630588170656,-0.75,0.375,0.0625
1630588170687,-0.953125,0.359375,-0.015625
1630588170718,-0.828125,0.34375,-0.015625
1630588170750,-0.609375,0.296875,-0.0625
1630588170781,-0.65625,0.3125,-0.03125
1630588170812,-0.6875,0.3125,-0.015625
1630588170843,-0.71875,0.328125,-0.0625
1630588170875,-0.765625,0.359375,-0.09375
1630588170906,-0.921875,0.453125,-0.0625
1630588170937,-1.0625,0.546875,0.09375
1630588170968,-1.0625,0.546875,0.125
1630588171000,-0.921875,0.59375,-0.03125
1630588171031,-0.734375,0.6875,0.078125
1630588171062,-0.703125,0.734375,0.203125
1630588171093,-0.703125,0.828125,0.25
1630588171125,-0.65625,0.828125,0.1875
1630588171156,-0.609375,0.859375,0.078125
1630588171187,-0.609375,0.875,0.078125
1630588171218,-0.4375,0.859375,0.140625
1630588171250,-0.421875,0.84375,-0.03125
1630588171281,-0.390625,0.84375,-0.078125
1630588171312,-0.484375,0.890625,-0.109375
1630588171343,-0.5,1.03125,-0.046875
1630588171375,-0.53125,1.046875,-0.03125
1630588171406,-0.515625,1.0,-0.109375
1630588171437,-0.59375,0.984375,-0.171875
1630588171468,-0.4375,0.90625,-0.109375
1630588171500,-0.515625,0.90625,-0.21875
1630588171531,-0.546875,0.890625,-0.28125
1630588171562,-0.8125,0.921875,-0.171875
1630588171593,-0.515625,0.90625,-0.40625
1630588171625,-0.234375,0.8125,-0.40625
1630588171656,0.390625,0.828125,-0.109375
1630588171687,0.109375,0.984375,0.015625
1630588171718,-0.25,1.09375,-0.28125
1630588171750,-0.265625,1.140625,0.0
1630588171781,-0.484375,1.109375,-0.09375
1630588171812,-0.578125,1.0,-0.1875
1630588171843,-0.265625,0.96875,0.0
1630588171875,-0.421875,0.9375,-0.21875
1630588171906,-0.28125,0.90625,-0.203125
1630588171937,-0.171875,0.921875,-0.15625
1630588171968,-0.15625,0.921875,-0.046875
1630588172000,-0.15625,0.96875,-0.25
1630588172031,-0.1875,0.96875,-0.265625
1630588172062,-0.015625,1.015625,-0.25
1630588172093,-0.046875,1.0625,-0.21875
1630588172125,-0.3125,1.125,-0.1875
1630588172156,-0.40625,1.078125,-0.296875
1630588172187,-0.71875,1.140625,-0.234375
1630588172218,-0.953125,1.125,0.078125
1630588172250,-0.875,1.109375,0.171875
1630588172281,-0.734375,1.0,0.078125
1630588172312,-0.546875,0.875,0.125
1630588172343,-0.53125,0.953125,0.296875
1630588172375,-0.546875,0.828125,0.3125
1630588172406,-0.59375,0.71875,0.203125
1630588172437,-0.859375,0.53125,-0.109375
1630588172468,-0.484375,0.328125,0.0625
1630588172500,-0.609375,0.328125,0.0625
1630588172531,-0.640625,0.34375,0.359375
1630588172562,-0.546875,0.265625,0.515625
1630588172593,-0.59375,0.28125,0.578125
1630588172625,-0.453125,0.1875,0.5625
1630588172656,-0.5625,0.140625,0.6875
1630588172687,-0.78125,0.078125,0.59375
1630588172718,-0.71875,0.0625,0.5625
1630588172750,-0.640625,0.046875,0.75
1630588172781,-0.453125,0.015625,0.703125
1630588172812,-0.453125,0.03125,0.640625
1630588172843,-1.015625,0.109375,0.421875
1630588172875,-1.09375,0.109375,0.46875
1630588172906,-0.734375,0.109375,0.671875
1630588172937,-0.734375,0.09375,0.671875
1630588172968,-0.921875,0.109375,0.609375
1630588173000,-0.9375,0.03125,0.453125
1630588173031,-0.859375,0.015625,0.515625
1630588173062,-0.8125,0.03125,0.484375
1630588173093,-0.71875,0.125,0.3125
1630588173125,-0.671875,0.046875,0.546875
1630588173156,-1.296875,0.171875,0.5
1630588173187,-1.234375,0.09375,0.28125
1630588173218,-0.96875,-0.109375,0.125
1630588173250,-1.03125,-0.203125,0.0
1630588173281,-0.984375,-0.15625,-0.046875
1630588173312,-0.6875,-0.015625,0.3125
1630588173343,-0.59375,0.109375,0.421875
1630588173375,-0.703125,0.203125,0.359375
1630588173406,-0.578125,0.328125,0.515625
1630588173437,-0.484375,0.34375,0.546875
1630588173468,-0.671875,0.328125,0.765625
1630588173500,-1.5625,0.34375,1.21875
1630588173531,-1.0625,0.296875,1.046875
1630588173562,-0.1875,0.421875,0.875
1630588173593,-0.328125,0.296875,0.640625
1630588173625,-0.578125,0.25,0.5
1630588173656,-1.09375,0.28125,0.46875
1630588173687,-1.125,0.234375,0.421875
1630588173718,-0.796875,0.296875,0.46875
1630588173750,-0.796875,0.3125,0.453125
1630588173781,-0.875,0.34375,0.46875
1630588173812,-0.84375,0.359375,0.484375
1630588173843,-0.828125,0.359375,0.46875
1630588173875,-0.859375,0.296875,0.453125
1630588173906,-0.796875,0.28125,0.484375
1630588173937,-0.71875,0.28125,0.578125
1630588173968,-0.75,0.296875,0.5625
1630588174000,-0.75,0.3125,0.578125
1630588174031,-0.796875,0.296875,0.546875
1630588174062,-0.8125,0.28125,0.53125
1630588174093,-0.828125,0.28125,0.5
1630588174125,-0.8125,0.265625,0.5
1630588174156,-0.8125,0.265625,0.484375
1630588174187,-0.796875,0.28125,0.515625
1630588174218,-0.796875,0.296875,0.53125
1630588174250,-0.796875,0.28125,0.53125
1630588174281,-0.78125,0.296875,0.53125
1630588174312,-0.796875,0.296875,0.53125
1630588174343,-0.796875,0.28125,0.515625
1630588174375,-0.796875,0.28125,0.53125
1630588174406,-0.796875,0.28125,0.53125
1630588174437,-0.796875,0.296875,0.515625
1630588174468,-0.796875,0.28125,0.515625
1630588174500,-0.796875,0.296875,0.515625
1630588174531,-0.796875,0.296875,0.515625
1630588174562,-0.796875,0.296875,0.515625
1630588174593,-0.796875,0.296875,0.515625
1630588174625,-0.796875,0.296875,0.515625
1630588174656,-0.796875,0.296875,0.515625
1630588174687,-0.796875,0.28125,0.515625
1630588174718,-0.796875,0.296875,0.515625
1630588174750,-0.796875,0.296875,0.515625
1630588174781,-0.796875,0.296875,0.515625
1630588174812,-0.796875,0.296875,0.515625
1630588174843,-0.796875,0.296875,0.515625
1630588174875,-0.796875,0.296875,0.515625
1630588174906,-0.796875,0.296875,0.515625
1630588174937,-0.796875,0.28125,0.515625
1630588174968,-0.796875,0.28125,0.515625
1630588175000,-0.796875,0.28125,0.515625
1630588175031,-0.796875,0.28125,0.515625
1630588175062,-0.796875,0.28125,0.515625
1630588175093,-0.796875,0.28125,0.53125
1630588175125,-0.796875,0.28125,0.53125
1630588175156,-0.796875,0.28125,0.53125
1630588175187,-0.796875,0.28125,0.53125
1630588175218,-0.796875,0.28125,0.515625
1630588175250,-0.796875,0.28125,0.515625
1630588175281,-0.796875,0.296875,0.515625
1630588175312,-0.796875,0.28125,0.53125
1630588175343,-0.796875,0.296875,0.53125
1630588175375,-0.796875,0.28125,0.53125
1630588175406,-0.796875,0.296875,0.53125
1630588175437,-0.796875,0.28125,0.53125
1630588175468,-0.796875,0.296875,0.53125
1630588175500,-0.796875,0.296875,0.515625
1630588175531,-0.796875,0.28125,0.515625
1630588175562,-0.796875,0.28125,0.515625
1630588175593,-0.796875,0.28125,0.515625
1630588175625,-0.796875,0.28125,0.53125
1630588175656,-0.796875,0.28125,0.53125
1630588175687,-0.796875,0.28125,0.53125
1630588175718,-0.796875,0.28125,0.53125
1630588175750,-0.796875,0.28125,0.53125
1630588175781,-0.796875,0.28125,0.515625
1630588175812,-0.796875,0.28125,0.53125
1630588175843,-0.796875,0.28125,0.53125
1630588175875,-0.796875,0.28125,0.515625
1630588175906,-0.796875,0.28125,0.53125
1630588175937,-0.796875,0.296875,0.53125
1630588175968,-0.796875,0.28125,0.515625
1630588176000,-0.796875,0.28125,0.515625
1630588176031,-0.796875,0.28125,0.515625
1630588176062,-0.796875,0.296875,0.53125
1630588176093,-0.796875,0.28125,0.515625
1630588176125,-0.796875,0.28125,0.53125
1630588176156,-0.796875,0.296875,0.515625
1630588176187,-0.796875,0.28125,0.515625
1630588176218,-0.796875,0.28125,0.515625
1630588176250,-0.796875,0.28125,0.53125
1630588176281,-0.796875,0.28125,0.515625
1630588176312,-0.796875,0.28125,0.515625
1630588176343,-0.796875,0.28125,0.53125
1630588176375,-0.796875,0.28125,0.53125
1630588176406,-0.796875,0.28125,0.515625
1630588176437,-0.796875,0.28125,0.53125
1630588176468,-0.796875,0.28125,0.53125
1630588176500,-0.796875,0.28125,0.53125
1630588176531,-0.796875,0.28125,0.515625
1630588176562,-0.796875,0.28125,0.515625
1630588176593,-0.796875,0.28125,0.515625
1630588176625,-0.796875,0.28125,0.53125
1630588176656,-0.796875,0.28125,0.53125
1630588176687,-0.796875,0.28125,0.515625
1630588176718,-0.796875,0.296875,0.515625
1630588176750,-0.796875,0.28125,0.53125
1630588176781,-0.796875,0.28125,0.515625
1630588176812,-0.796875,0.28125,0.53125
1630588176843,-0.796875,0.28125,0.515625
1630588176875,-0.796875,0.28125,0.53125
1630588176906,-0.796875,0.296875,0.53125
1630588176937,-0.796875,0.296875,0.515625
1630588176968,-0.796875,0.28125,0.515625
1630588177000,-0.796875,0.296875,0.515625
1630588177031,-0.796875,0.296875,0.515625
1630588177062,-0.796875,0.296875,0.515625
1630588177093,-0.796875,0.296875,0.515625
1630588177125,-0.796875,0.296875,0.515625
1630588177156,-0.796875,0.296875,0.515625
1630588177187,-0.796875,0.28125,0.515625
1630588177218,-0.796875,0.296875,0.515625
1630588177250,-0.796875,0.296875,0.515625
1630588177281,-0.796875,0.296875,0.515625
1630588177312,-0.796875,0.28125,0.53125
1630588177343,-0.796875,0.296875,0.53125
1630588177375,-0.796875,0.28125,0.53125
1630588177406,-0.796875,0.28125,0.515625
1630588177437,-0.796875,0.296875,0.515625
1630588177468,-0.796875,0.296875,0.515625
1630588177500,-0.796875,0.296875,0.515625
1630588177531,-0.796875,0.296875,0.515625
1630588177562,-0.796875,0.296875,0.515625
1630588177593,-0.796875,0.296875,0.515625
1630588177625,-0.796875,0.296875,0.515625
1630588177656,-0.796875,0.28125,0.515625
1630588177687,-0.796875,0.28125,0.515625
1630588177718,-0.796875,0.28125,0.515625
1630588177750,-0.796875,0.296875,0.515625
1630588177781,-0.796875,0.28125,0.515625
1630588177812,-0.796875,0.28125,0.515625
1630588177843,-0.796875,0.28125,0.515625
1630588177875,-0.796875,0.28125,0.53125
1630588177906,-0.796875,0.28125,0.515625
1630588177937,-0.796875,0.28125,0.53125
1630588177968,-0.796875,0.28125,0.53125
1630588178000,-0.796875,0.28125,0.53125
1630588178031,-0.796875,0.28125,0.515625
1630588178062,-0.796875,0.28125,0.515625
1630588178093,-0.78125,0.28125,0.53125
1630588178125,-0.796875,0.296875,0.53125
1630588178156,-0.796875,0.28125,0.515625
1630588178187,-0.796875,0.28125,0.53125
1630588178218,-0.796875,0.28125,0.53125
1630588178250,-0.796875,0.28125,0.515625
1630588178281,-0.796875,0.28125,0.515625
1630588178312,-0.796875,0.28125,0.515625
1630588178343,-0.796875,0.28125,0.53125
1630588178375,-0.796875,0.28125,0.53125
1630588178406,-0.796875,0.28125,0.515625
1630588178437,-0.796875,0.28125,0.515625
1630588178468,-0.796875,0.28125,0.53125
1630588178500,-0.796875,0.28125,0.515625
1630588178531,-0.796875,0.28125,0.515625
1630588178562,-0.796875,0.28125,0.53125
1630588178593,-0.796875,0.28125,0.53125
1630588178625,-0.796875,0.28125,0.53125
1630588178656,-0.796875,0.28125,0.53125
1630588178687,-0.796875,0.28125,0.53125
1630588178718,-0.796875,0.28125,0.515625
1630588178750,-0.796875,0.28125,0.53125
1630588178781,-0.796875,0.28125,0.515625
1630588178812,-0.796875,0.28125,0.515625
1630588178843,-0.796875,0.28125,0.53125
1630588178875,-0.796875,0.28125,0.53125
1630588178906,-0.796875,0.28125,0.53125
1630588178937,-0.796875,0.28125,0.515625
1630588178968,-0.796875,0.28125,0.515625
1630588179000,-0.796875,0.28125,0.515625
1630588179031,-0.796875,0.28125,0.53125
1630588179062,-0.796875,0.28125,0.515625
1630588179093,-0.796875,0.28125,0.53125
1630588179125,-0.796875,0.296875,0.515625
1630588179156,-0.796875,0.28125,0.515625
1630588179187,-0.796875,0.28125,0.53125
1630588179218,-0.796875,0.28125,0.53125
1630588179250,-0.796875,0.28125,0.53125
1630588179281,-0.796875,0.28125,0.515625
1630588179312,-0.796875,0.28125,0.515625
1630588179343,-0.796875,0.28125,0.515625
1630588179375,-0.796875,0.28125,0.53125
1630588179406,-0.796875,0.28125,0.53125
1630588179437,-0.796875,0.28125,0.53125
1630588179468,-0.796875,0.28125,0.515625
1630588179500,-0.796875,0.28125,0.515625
1630588179531,-0.796875,0.28125,0.515625
1630588179562,-0.796875,0.28125,0.53125
1630588179593,-0.796875,0.28125,0.515625
1630588179625,-0.796875,0.28125,0.515625
1630588179656,-0.796875,0.296875,0.515625
1630588179687,-0.796875,0.296875,0.515625
1630588179718,-0.796875,0.296875,0.515625
1630588179750,-0.796875,0.296875,0.515625
1630588179781,-0.796875,0.296875,0.515625
1630588179812,-0.796875,0.28125,0.515625
1630588179843,-0.796875,0.28125,0.515625
1630588179875,-0.796875,0.296875,0.515625
1630588179906,-0.796875,0.296875,0.515625
1630588179937,-0.796875,0.296875,0.515625
1630588179968,-0.796875,0.28125,0.515625
1630588180000,-0.796875,0.296875,0.515625
1630588180031,-0.796875,0.296875,0.515625
1630588180062,-0.796875,0.296875,0.515625
1630588180093,-0.796875,0.296875,0.515625
1630588180125,-0.796875,0.296875,0.515625
1630588180156,-0.796875,0.28125,0.515625
1630588180187,-0.796875,0.28125,0.515625
1630588180218,-0.796875,0.28125,0.53125
1630588180250,-0.796875,0.28125,0.515625
1630588180281,-0.796875,0.28125,0.515625
1630588180312,-0.796875,0.28125,0.515625
1630588180343,-0.796875,0.28125,0.515625
1630588180375,-0.796875,0.296875,0.515625
1630588180406,-0.796875,0.28125,0.515625
1630588180437,-0.796875,0.28125,0.515625
1630588180468,-0.796875,0.28125,0.515625
1630588180500,-0.796875,0.28125,0.53125
1630588180531,-0.796875,0.28125,0.53125
1630588180562,-0.796875,0.28125,0.515625
1630588180593,-0.796875,0.28125,0.53125
1630588180625,-0.796875,0.28125,0.515625
1630588180656,-0.796875,0.28125,0.515625
1630588180687,-0.796875,0.28125,0.53125
1630588180718,-0.796875,0.28125,0.515625
1630588180750,-0.796875,0.28125,0.515625
1630588180781,-0.796875,0.28125,0.515625
1630588180812,-0.796875,0.28125,0.515625
1630588180843,-0.796875,0.28125,0.515625
1630588180875,-0.796875,0.28125,0.515625
1630588180906,-0.796875,0.28125,0.515625
1630588180937,-0.796875,0.28125,0.515625
1630588180968,-0.796875,0.28125,0.515625
1630588181000,-0.796875,0.28125,0.515625
1630588181031,-0.796875,0.28125,0.53125
1630588181062,-0.796875,0.28125,0.515625
1630588181093,-0.796875,0.28125,0.515625
1630588181125,-0.796875,0.28125,0.53125
1630588181156,-0.796875,0.28125,0.515625
1630588181187,-0.796875,0.28125,0.515625
1630588181218,-0.796875,0.28125,0.515625
1630588181250,-0.796875,0.28125,0.515625
1630588181281,-0.796875,0.28125,0.515625
1630588181312,-0.796875,0.28125,0.515625
1630588181343,-0.796875,0.28125,0.53125
1630588181375,-0.796875,0.28125,0.515625
1630588181406,-0.796875,0.28125,0.515625
1630588181437,-0.796875,0.28125,0.515625
1630588181468,-0.796875,0.28125,0.515625
1630588181500,-0.796875,0.28125,0.515625
1630588181531,-0.796875,0.28125,0.515625
1630588181562,-0.796875,0.28125,0.515625
1630588181593,-0.796875,0.28125,0.515625
1630588181625,-0.796875,0.28125,0.53125
1630588181656,-0.796875,0.28125,0.53125
1630588181687,-0.796875,0.28125,0.515625
1630588181718,-0.796875,0.28125,0.515625
1630588181750,-0.796875,0.28125,0.515625
1630588181781,-0.796875,0.28125,0.515625
1630588181812,-0.796875,0.28125,0.515625
1630588181843,-0.796875,0.28125,0.515625
1630588181875,-0.796875,0.28125,0.53125
1630588181906,-0.796875,0.28125,0.515625
1630588181937,-0.796875,0.28125,0.515625
1630588181968,-0.796875,0.28125,0.515625
1630588182000,-0.796875,0.28125,0.515625
1630588182031,-0.796875,0.28125,0.515625
1630588182062,-0.796875,0.28125,0.515625
1630588182093,-0.796875,0.28125,0.53125
1630588182125,-0.796875,0.28125,0.515625
1630588182156,-0.796875,0.28125,0.515625
1630588182187,-0.796875,0.28125,0.515625
1630588182218,-0.796875,0.28125,0.515625
1630588182250,-0.796875,0.28125,0.515625
1630588182281,-0.796875,0.28125,0.515625
1630588182312,-0.796875,0.28125,0.515625
1630588182343,-0.796875,0.28125,0.515625
1630588182375,-0.796875,0.28125,0.515625
1630588182406,-0.796875,0.28125,0.515625
1630588182437,-0.796875,0.28125,0.515625
1630588182468,-0.796875,0.28125,0.515625
1630588182500,-0.796875,0.28125,0.515625
1630588182531,-0.796875,0.28125,0.515625
1630588182562,-0.796875,0.28125,0.515625
1630588182593,-0.796875,0.28125,0.515625
1630588182625,-0.796875,0.28125,0.515625
1630588182656,-0.796875,0.28125,0.515625
1630588182687,-0.796875,0.28125,0.515625
1630588182718,-0.796875,0.28125,0.515625
1630588182750,-0.796875,0.28125,0.515625
1630588182781,-0.796875,0.28125,0.515625
1630588182812,-0.796875,0.28125,0.515625
1630588182843,-0.796875,0.28125,0.515625
1630588182875,-0.796875,0.28125,0.515625
1630588182906,-0.796875,0.28125,0.515625
1630588182937,-0.796875,0.28125,0.515625
1630588182968,-0.796875,0.28125,0.515625
1630588183000,-0.796875,0.28125,0.515625
1630588183031,-0.796875,0.28125,0.515625
1630588183062,-0.796875,0.28125,0.515625
1630588183093,-0.796875,0.28125,0.53125
1630588183125,-0.796875,0.28125,0.53125
1630588183156,-0.796875,0.28125,0.515625
1630588183187,-0.796875,0.28125,0.515625
1630588183218,-0.796875,0.28125,0.515625
1630588183250,-0.796875,0.28125,0.515625
1630588183281,-0.796875,0.28125,0.53125
1630588183312,-0.796875,0.28125,0.515625
1630588183343,-0.796875,0.28125,0.515625
1630588183375,-0.796875,0.28125,0.515625
1630588183406,-0.796875,0.28125,0.515625
1630588183437,-0.796875,0.28125,0.515625
1630588183468,-0.796875,0.28125,0.515625
1630588183500,-0.796875,0.28125,0.515625
1630588183531,-0.796875,0.28125,0.515625
1630588183562,-0.796875,0.28125,0.515625
1630588183593,-0.796875,0.28125,0.515625
1630588183625,-0.796875,0.28125,0.515625
1630588183656,-0.796875,0.28125,0.515625
1630588183687,-0.796875,0.28125,0.515625
1630588183718,-0.796875,0.28125,0.515625
1630588183750,-0.796875,0.28125,0.515625
1630588183781,-0.796875,0.28125,0.515625
1630588183812,-0.796875,0.28125,0.515625
1630588183843,-0.796875,0.28125,0.515625
1630588183875,-0.796875,0.28125,0.53125
1630588183906,-0.796875,0.28125,0.53125
1630588183937,-0.796875,0.28125,0.515625
1630588183968,-0.796875,0.28125,0.515625
1630588184000,-0.796875,0.28125,0.53125
1630588184031,-0.796875,0.28125,0.53125
1630588184062,-0.796875,0.28125,0.53125
1630588184093,-0.796875,0.28125,0.53125
1630588184125,-0.796875,0.28125,0.53125
1630588184156,-0.796875,0.28125,0.515625
1630588184187,-0.796875,0.28125,0.53125
1630588184218,-0.796875,0.28125,0.515625
1630588184250,-0.796875,0.28125,0.515625
1630588184281,-0.796875,0.28125,0.515625
1630588184312,-0.796875,0.28125,0.515625
1630588184343,-0.796875,0.28125,0.515625
1630588184375,-0.796875,0.28125,0.515625
1630588184406,-0.796875,0.28125,0.53125
1630588184437,-0.796875,0.28125,0.515625
1630588184468,-0.796875,0.28125,0.53125
1630588184500,-0.78125,0.28125,0.515625
1630588184531,-0.765625,0.28125,0.515625
1630588184562,-0.859375,0.265625,0.484375
1630588184593,-0.78125,0.296875,0.53125
1630588184625,-0.84375,0.296875,0.5
1630588184656,-0.8125,0.3125,0.5
1630588184687,-0.828125,0.296875,0.5
1630588184718,-0.84375,0.3125,0.546875
1630588184750,-0.765625,0.34375,0.640625
1630588184781,-0.71875,0.296875,0.59375
1630588184812,-0.828125,0.265625,0.578125
1630588184843,-0.84375,0.265625,0.625
1630588184875,-0.796875,0.171875,0.65625
1630588184906,-0.703125,0.1875,0.75
1630588184937,-0.84375,0.15625,0.734375
1630588184968,-0.859375,0.171875,0.6875
1630588185000,-0.78125,0.171875,0.578125
1630588185031,-0.734375,0.140625,0.5625
1630588185062,-0.609375,0.125,0.59375
1630588185093,-0.640625,0.078125,0.53125
1630588185125,-0.5,0.046875,0.484375
1630588185156,-0.484375,0.078125,0.515625
1630588185187,-0.875,0.09375,0.484375
1630588185218,-0.734375,0.0625,0.75
1630588185250,-0.671875,0.09375,0.578125
1630588185281,-0.671875,0.125,0.65625
1630588185312,-0.625,0.203125,0.71875
1630588185343,-0.609375,0.234375,0.796875
1630588185375,-0.5625,0.234375,0.890625
1630588185406,-0.421875,0.1875,0.984375
1630588185437,-0.609375,0.234375,0.8125
1630588185468,-0.765625,0.25,0.671875
1630588185500,-0.75,0.25,0.671875
1630588185531,-0.625,0.203125,0.765625
1630588185562,-0.578125,0.1875,0.796875
1630588185593,-0.5625,0.171875,0.796875
1630588185625,-0.59375,0.140625,0.734375
1630588185656,-0.640625,0.109375,0.6875
1630588185687,-0.703125,0.09375,0.640625
1630588185718,-0.6875,0.109375,0.671875
1630588185750,-0.640625,0.140625,0.765625
1630588185781,-0.5625,0.140625,0.828125
1630588185812,-0.5625,0.140625,0.8125
1630588185843,-0.578125,0.171875,0.78125
1630588185875,-0.5625,0.1875,0.796875
1630588185906,-0.53125,0.203125,0.84375
1630588185937,-0.5625,0.21875,0.828125
1630588185968,-0.59375,0.1875,0.78125
1630588186000,-0.609375,0.15625,0.734375
1630588186031,-0.609375,0.15625,0.75
1630588186062,-0.609375,0.15625,0.75
1630588186093,-0.609375,0.1875,0.75
1630588186125,-0.59375,0.1875,0.765625
1630588186156,-0.578125,0.171875,0.796875
1630588186187,-0.5625,0.171875,0.796875
1630588186218,-0.578125,0.1875,0.796875
1630588186250,-0.59375,0.1875,0.78125
1630588186281,-0.59375,0.171875,0.765625
1630588186312,-0.578125,0.171875,0.765625
1630588186343,-0.578125,0.1875,0.78125
1630588186375,-0.578125,0.1875,0.78125
1630588186406,-0.578125,0.1875,0.78125
1630588186437,-0.578125,0.1875,0.78125
1630588186468,-0.59375,0.203125,0.78125
1630588186500,-0.59375,0.1875,0.78125
1630588186531,-0.59375,0.1875,0.765625
1630588186562,-0.59375,0.1875,0.765625
1630588186593,-0.59375,0.1875,0.78125
1630588186625,-0.59375,0.203125,0.78125
1630588186656,-0.59375,0.1875,0.78125
1630588186687,-0.578125,0.1875,0.78125
1630588186718,-0.578125,0.1875,0.78125
1630588186750,-0.59375,0.1875,0.78125
1630588186781,-0.59375,0.1875,0.78125
1630588186812,-0.578125,0.203125,0.78125
1630588186843,-0.578125,0.203125,0.765625
1630588186875,-0.59375,0.203125,0.765625
1630588186906,-0.59375,0.203125,0.765625
1630588186937,-0.59375,0.203125,0.765625
1630588186968,-0.578125,0.203125,0.765625
1630588187000,-0.59375,0.203125,0.765625
1630588187031,-0.59375,0.203125,0.765625
1630588187062,-0.59375,0.203125,0.765625
1630588187093,-0.59375,0.203125,0.765625
1630588187125,-0.59375,0.203125,0.78125
1630588187156,-0.59375,0.203125,0.78125
1630588187187,-0.59375,0.203125,0.765625
1630588187218,-0.578125,0.1875,0.765625
1630588187250,-0.578125,0.1875,0.765625
1630588187281,-0.59375,0.203125,0.78125
1630588187312,-0.59375,0.203125,0.765625
1630588187343,-0.578125,0.203125,0.78125
1630588187375,-0.59375,0.203125,0.765625
1630588187406,-0.59375,0.1875,0.765625
1630588187437,-0.578125,0.203125,0.78125
1630588187468,-0.59375,0.203125,0.78125
1630588187500,-0.59375,0.203125,0.78125
1630588187531,-0.578125,0.203125,0.78125
1630588187562,-0.59375,0.203125,0.765625
1630588187593,-0.59375,0.203125,0.765625
1630588187625,-0.578125,0.1875,0.765625
1630588187656,-0.578125,0.1875,0.765625
1630588187687,-0.578125,0.1875,0.78125
1630588187718,-0.578125,0.1875,0.78125
1630588187750,-0.578125,0.1875,0.765625
1630588187781,-0.578125,0.1875,0.78125
1630588187812,-0.578125,0.1875,0.78125
1630588187843,-0.578125,0.1875,0.78125
1630588187875,-0.578125,0.1875,0.78125
1630588187906,-0.578125,0.1875,0.78125
1630588187937,-0.578125,0.1875,0.765625
1630588187968,-0.578125,0.1875,0.78125
1630588188000,-0.578125,0.1875,0.78125
1630588188031,-0.578125,0.1875,0.78125
1630588188062,-0.578125,0.1875,0.78125
1630588188093,-0.578125,0.1875,0.78125
1630588188125,-0.578125,0.1875,0.78125
1630588188156,-0.578125,0.1875,0.78125
1630588188187,-0.578125,0.1875,0.78125
1630588188218,-0.578125,0.203125,0.78125
1630588188250,-0.578125,0.1875,0.78125
1630588188281,-0.59375,0.203125,0.78125
1630588188312,-0.578125,0.1875,0.78125
1630588188343,-0.578125,0.1875,0.78125
1630588188375,-0.578125,0.1875,0.78125
1630588188406,-0.578125,0.1875,0.78125
1630588188437,-0.578125,0.1875,0.78125
1630588188468,-0.578125,0.1875,0.78125
1630588188500,-0.578125,0.1875,0.78125
1630588188531,-0.578125,0.1875,0.78125
1630588188562,-0.578125,0.1875,0.78125
1630588188593,-0.578125,0.1875,0.78125
1630588188625,-0.578125,0.1875,0.78125
1630588188656,-0.5625,0.1875,0.78125
1630588188687,-0.578125,0.1875,0.78125
1630588188718,-0.578125,0.1875,0.78125
1630588188750,-0.578125,0.1875,0.78125
1630588188781,-0.578125,0.1875,0.78125
1630588188812,-0.578125,0.1875,0.78125
1630588188843,-0.578125,0.1875,0.78125
1630588188875,-0.578125,0.1875,0.78125
1630588188906,-0.578125,0.1875,0.78125
1630588188937,-0.578125,0.1875,0.78125
1630588188968,-0.578125,0.1875,0.78125
1630588189000,-0.578125,0.1875,0.78125
1630588189031,-0.578125,0.1875,0.796875
1630588189062,-0.578125,0.1875,0.78125
1630588189093,-0.578125,0.1875,0.78125
1630588189125,-0.578125,0.1875,0.78125
1630588189156,-0.578125,0.1875,0.78125
1630588189187,-0.578125,0.1875,0.78125
1630588189218,-0.578125,0.1875,0.78125
1630588189250,-0.578125,0.1875,0.78125
1630588189281,-0.578125,0.1875,0.78125
1630588189312,-0.5625,0.1875,0.78125
1630588189343,-0.5625,0.1875,0.78125
1630588189375,-0.578125,0.1875,0.78125
1630588189406,-0.578125,0.1875,0.78125
1630588189437,-0.578125,0.1875,0.78125
1630588189468,-0.578125,0.1875,0.78125
1630588189500,-0.578125,0.1875,0.78125
1630588189531,-0.578125,0.1875,0.796875
1630588189562,-0.578125,0.1875,0.78125
1630588189593,-0.578125,0.1875,0.78125
1630588189625,-0.578125,0.1875,0.78125
1630588189656,-0.578125,0.1875,0.78125
1630588189687,-0.578125,0.1875,0.78125
1630588189718,-0.578125,0.1875,0.78125
1630588189750,-0.578125,0.1875,0.78125
1630588189781,-0.578125,0.1875,0.796875
1630588189812,-0.578125,0.1875,0.78125
1630588189843,-0.578125,0.1875,0.78125
1630588189875,-0.578125,0.1875,0.78125
1630588189906,-0.578125,0.1875,0.78125
1630588189937,-0.578125,0.1875,0.78125
1630588189968,-0.578125,0.1875,0.78125
1630588190000,-0.578125,0.1875,0.78125
1630588190031,-0.578125,0.1875,0.78125
1630588190062,-0.578125,0.1875,0.78125
1630588190093,-0.578125,0.1875,0.78125
1630588190125,-0.578125,0.1875,0.78125
1630588190156,-0.578125,0.1875,0.78125
1630588190187,-0.578125,0.1875,0.78125
1630588190218,-0.578125,0.1875,0.78125
1630588190250,-0.578125,0.1875,0.78125
1630588190281,-0.578125,0.1875,0.78125
1630588190312,-0.578125,0.1875,0.78125
1630588190343,-0.578125,0.1875,0.78125
1630588190375,-0.578125,0.1875,0.78125
1630588190406,-0.578125,0.1875,0.78125
1630588190437,-0.578125,0.1875,0.78125
1630588190468,-0.578125,0.1875,0.78125
1630588190500,-0.578125,0.1875,0.78125
1630588190531,-0.578125,0.1875,0.78125
1630588190562,-0.578125,0.1875,0.78125
1630588190593,-0.578125,0.1875,0.78125
1630588190625,-0.578125,0.1875,0.78125
1630588190656,-0.578125,0.1875,0.78125
1630588190687,-0.578125,0.203125,0.78125
1630588190718,-0.578125,0.1875,0.78125
1630588190750,-0.578125,0.1875,0.78125
1630588190781,-0.578125,0.1875,0.78125
1630588190812,-0.578125,0.1875,0.78125
1630588190843,-0.578125,0.1875,0.78125
1630588190875,-0.578125,0.1875,0.78125
1630588190906,-0.578125,0.1875,0.78125
1630588190937,-0.578125,0.1875,0.78125
1630588190968,-0.578125,0.1875,0.78125
1630588191000,-0.578125,0.1875,0.78125
1630588191031,-0.578125,0.1875,0.78125
1630588191062,-0.578125,0.1875,0.78125
1630588191093,-0.578125,0.1875,0.78125
1630588191125,-0.578125,0.1875,0.78125
1630588191156,-0.578125,0.1875,0.78125
1630588191187,-0.578125,0.1875,0.78125
1630588191218,-0.578125,0.203125,0.78125
1630588191250,-0.578125,0.1875,0.78125
1630588191281,-0.578125,0.1875,0.78125
1630588191312,-0.578125,0.1875,0.78125
1630588191343,-0.578125,0.1875,0.78125
1630588191375,-0.578125,0.1875,0.78125
1630588191406,-0.578125,0.1875,0.78125
1630588191437,-0.578125,0.1875,0.78125
1630588191468,-0.578125,0.1875,0.78125
1630588191500,-0.578125,0.1875,0.78125
1630588191531,-0.578125,0.1875,0.78125
1630588191562,-0.578125,0.1875,0.78125
1630588191593,-0.578125,0.1875,0.78125
1630588191625,-0.578125,0.1875,0.78125
1630588191656,-0.578125,0.1875,0.78125
1630588191687,-0.578125,0.1875,0.78125
1630588191718,-0.578125,0.1875,0.78125
1630588191750,-0.578125,0.1875,0.78125
1630588191781,-0.578125,0.1875,0.78125
1630588191812,-0.578125,0.1875,0.796875
1630588191843,-0.578125,0.1875,0.78125
1630588191875,-0.578125,0.1875,0.78125
1630588191906,-0.578125,0.1875,0.78125
1630588191937,-0.578125,0.1875,0.78125
1630588191968,-0.578125,0.1875,0.78125
1630588192000,-0.578125,0.1875,0.78125
1630588192031,-0.578125,0.1875,0.796875
1630588192062,-0.578125,0.1875,0.78125
1630588192093,-0.5625,0.1875,0.78125
1630588192125,-0.578125,0.1875,0.78125
1630588192156,-0.578125,0.1875,0.78125
1630588192187,-0.5625,0.1875,0.75
1630588192218,-0.578125,0.1875,0.78125
1630588192250,-0.578125,0.1875,0.78125
1630588192281,-0.578125,0.1875,0.78125
1630588192312,-0.578125,0.1875,0.78125
1630588192343,-0.578125,0.1875,0.78125
1630588192375,-0.578125,0.1875,0.78125
1630588192406,-0.578125,0.1875,0.796875
1630588192437,-0.5625,0.1875,0.796875
1630588192468,-0.578125,0.1875,0.78125
1630588192500,-0.578125,0.1875,0.78125
1630588192531,-0.5625,0.1875,0.78125
1630588192562,-0.5625,0.1875,0.78125
1630588192593,-0.5625,0.1875,0.78125
1630588192625,-0.578125,0.1875,0.78125
1630588192656,-0.578125,0.1875,0.78125
1630588192687,-0.5625,0.1875,0.78125
1630588192718,-0.5625,0.1875,0.78125
1630588192750,-0.5625,0.1875,0.78125
1630588192781,-0.578125,0.1875,0.78125
1630588192812,-0.5625,0.1875,0.78125
1630588192843,-0.578125,0.1875,0.78125
1630588192875,-0.5625,0.1875,0.78125
1630588192906,-0.578125,0.1875,0.78125
1630588192937,-0.5625,0.1875,0.78125
1630588192968,-0.578125,0.1875,0.78125
1630588193000,-0.578125,0.1875,0.78125
1630588193031,-0.578125,0.1875,0.78125
1630588193062,-0.578125,0.1875,0.78125
1630588193093,-0.5625,0.1875,0.78125
1630588193125,-0.5625,0.1875,0.78125
1630588193156,-0.578125,0.1875,0.78125
1630588193187,-0.578125,0.1875,0.78125
1630588193218,-0.578125,0.1875,0.78125
1630588193250,-0.5625,0.1875,0.78125
1630588193281,-0.578125,0.1875,0.78125
1630588193312,-0.5625,0.1875,0.796875
1630588193343,-0.5625,0.1875,0.78125
1630588193375,-0.5625,0.1875,0.78125
1630588193406,-0.578125,0.1875,0.78125
1630588193437,-0.578125,0.1875,0.78125
1630588193468,-0.578125,0.1875,0.78125
1630588193500,-0.578125,0.1875,0.78125
1630588193531,-0.578125,0.1875,0.78125
1630588193562,-0.578125,0.1875,0.78125
1630588193593,-0.578125,0.1875,0.796875
1630588193625,-0.578125,0.1875,0.78125
1630588193656,-0.5625,0.1875,0.78125
1630588193687,-0.578125,0.1875,0.78125
1630588193718,-0.578125,0.1875,0.78125
1630588193750,-0.578125,0.1875,0.78125
1630588193781,-0.5625,0.1875,0.78125
1630588193812,-0.578125,0.1875,0.78125
1630588193843,-0.578125,0.1875,0.78125
1630588193875,-0.5625,0.1875,0.78125
1630588193906,-0.578125,0.1875,0.78125
1630588193937,-0.578125,0.1875,0.78125
1630588193968,-0.578125,0.1875,0.78125
1630588194000,-0.578125,0.1875,0.78125
1630588194031,-0.578125,0.1875,0.78125
1630588194062,-0.578125,0.1875,0.78125
1630588194093,-0.578125,0.1875,0.78125
1630588194125,-0.578125,0.1875,0.78125
1630588194156,-0.578125,0.1875,0.78125
1630588194187,-0.578125,0.1875,0.78125
1630588194218,-0.578125,0.1875,0.78125
1630588194250,-0.578125,0.1875,0.78125
1630588194281,-0.578125,0.1875,0.78125
1630588194312,-0.578125,0.203125,0.78125
1630588194343,-0.578125,0.1875,0.78125
1630588194375,-0.578125,0.203125,0.78125
1630588194406,-0.5625,0.203125,0.78125
1630588194437,-0.578125,0.203125,0.78125
1630588194468,-0.5625,0.1875,0.78125
1630588194500,-0.578125,0.1875,0.796875
1630588194531,-0.578125,0.1875,0.78125
1630588194562,-0.5625,0.1875,0.78125
1630588194593,-0.5625,0.1875,0.78125
1630588194625,-0.578125,0.1875,0.78125
1630588194656,-0.578125,0.1875,0.78125
1630588194687,-0.5625,0.1875,0.796875
1630588194718,-0.578125,0.1875,0.78125
1630588194750,-0.578125,0.1875,0.78125
1630588194781,-0.5625,0.1875,0.78125
1630588194812,-0.5625,0.1875,0.78125
1630588194843,-0.578125,0.1875,0.78125
1630588194875,-0.578125,0.1875,0.78125
1630588194906,-0.5625,0.1875,0.78125
1630588194937,-0.5625,0.1875,0.78125
1630588194968,-0.5625,0.1875,0.78125
1630588195000,-0.578125,0.1875,0.78125
1630588195031,-0.5625,0.1875,0.78125
1630588195062,-0.5625,0.1875,0.796875
1630588195093,-0.5625,0.1875,0.78125
1630588195125,-0.5625,0.1875,0.796875
1630588195156,-0.578125,0.1875,0.796875
1630588195187,-0.5625,0.1875,0.78125
1630588195218,-0.5625,0.1875,0.78125
1630588195250,-0.578125,0.1875,0.796875
1630588195281,-0.5625,0.1875,0.78125
1630588195312,-0.5625,0.1875,0.78125
1630588195343,-0.5625,0.1875,0.78125
1630588195375,-0.5625,0.1875,0.796875
1630588195406,-0.5625,0.1875,0.78125
1630588195437,-0.5625,0.1875,0.796875
1630588195468,-0.5625,0.1875,0.78125
1630588195500,-0.5625,0.1875,0.78125
1630588195531,-0.5625,0.1875,0.78125
1630588195562,-0.5625,0.1875,0.796875
1630588195593,-0.5625,0.1875,0.78125
1630588195625,-0.5625,0.1875,0.78125
1630588195656,-0.5625,0.1875,0.796875
1630588195687,-0.5625,0.1875,0.796875
1630588195718,-0.5625,0.1875,0.78125
1630588195750,-0.5625,0.1875,0.78125
1630588195781,-0.5625,0.1875,0.796875
1630588195812,-0.5625,0.1875,0.796875
1630588195843,-0.5625,0.1875,0.796875
1630588195875,-0.5625,0.1875,0.796875
1630588195906,-0.5625,0.1875,0.796875
1630588195937,-0.5625,0.1875,0.78125
1630588195968,-0.5625,0.1875,0.78125
1630588196000,-0.5625,0.1875,0.78125
1630588196031,-0.5625,0.1875,0.78125
1630588196062,-0.5625,0.1875,0.796875
1630588196093,-0.5625,0.1875,0.78125
1630588196125,-0.5625,0.1875,0.796875
1630588196156,-0.5625,0.1875,0.796875
1630588196187,-0.5625,0.1875,0.796875
1630588196218,-0.5625,0.1875,0.78125
1630588196250,-0.5625,0.1875,0.78125
1630588196281,-0.5625,0.1875,0.78125
1630588196312,-0.5625,0.1875,0.796875
1630588196343,-0.5625,0.1875,0.796875
1630588196375,-0.5625,0.1875,0.78125
1630588196406,-0.5625,0.1875,0.796875
1630588196437,-0.5625,0.1875,0.796875
1630588196468,-0.5625,0.1875,0.796875
1630588196500,-0.5625,0.1875,0.78125
1630588196531,-0.5625,0.1875,0.78125
1630588196562,-0.5625,0.1875,0.78125
1630588196593,-0.5625,0.1875,0.78125
1630588196625,-0.5625,0.1875,0.796875
1630588196656,-0.578125,0.1875,0.78125
1630588196687,-0.5625,0.1875,0.78125
1630588196718,-0.5625,0.1875,0.796875
1630588196750,-0.5625,0.1875,0.796875
1630588196781,-0.578125,0.1875,0.78125
1630588196812,-0.578125,0.1875,0.78125
1630588196843,-0.5625,0.1875,0.78125
1630588196875,-0.5625,0.1875,0.78125
1630588196906,-0.5625,0.1875,0.78125
1630588196937,-0.5625,0.1875,0.78125
1630588196968,-0.5625,0.1875,0.78125
1630588197000,-0.5625,0.1875,0.796875
1630588197031,-0.5625,0.1875,0.78125
1630588197062,-0.5625,0.1875,0.78125
1630588197093,-0.5625,0.1875,0.78125
1630588197125,-0.578125,0.1875,0.78125
1630588197156,-0.5625,0.1875,0.796875
1630588197187,-0.578125,0.1875,0.78125
1630588197218,-0.578125,0.1875,0.78125
1630588197250,-0.578125,0.1875,0.78125
1630588197281,-0.578125,0.1875,0.78125
1630588197312,-0.5625,0.1875,0.78125
1630588197343,-0.5625,0.1875,0.78125
1630588197375,-0.5625,0.203125,0.78125
1630588197406,-0.5625,0.1875,0.78125
1630588197437,-0.5625,0.1875,0.78125
1630588197468,-0.5625,0.1875,0.78125
1630588197500,-0.578125,0.1875,0.78125
1630588197531,-0.5625,0.1875,0.78125
1630588197562,-0.5625,0.1875,0.796875
1630588197593,-0.5625,0.1875,0.78125
1630588197625,-0.578125,0.1875,0.78125
1630588197656,-0.5625,0.1875,0.78125
1630588197687,-0.5625,0.1875,0.796875
1630588197718,-0.578125,0.1875,0.78125
1630588197750,-0.5625,0.1875,0.78125
1630588197781,-0.5625,0.1875,0.796875
1630588197812,-0.5625,0.1875,0.796875
1630588197843,-0.5625,0.1875,0.796875
1630588197875,-0.5625,0.1875,0.78125
1630588197906,-0.5625,0.1875,0.796875
1630588197937,-0.5625,0.1875,0.78125
1630588197968,-0.5625,0.1875,0.796875
1630588198000,-0.5625,0.1875,0.796875
1630588198031,-0.5625,0.1875,0.78125
1630588198062,-0.5625,0.1875,0.78125
1630588198093,-0.5625,0.1875,0.78125
1630588198125,-0.5625,0.1875,0.796875
1630588198156,-0.5625,0.1875,0.78125
1630588198187,-0.5625,0.1875,0.78125
1630588198218,-0.5625,0.1875,0.796875
1630588198250,-0.5625,0.1875,0.78125
1630588198281,-0.5625,0.1875,0.796875
1630588198312,-0.5625,0.1875,0.796875
1630588198343,-0.5625,0.1875,0.78125
1630588198375,-0.5625,0.1875,0.796875
1630588198406,-0.5625,0.1875,0.796875
1630588198437,-0.5625,0.1875,0.796875
1630588198468,-0.5625,0.1875,0.796875
1630588198500,-0.5625,0.1875,0.78125
1630588198531,-0.5625,0.1875,0.78125
1630588198562,-0.5625,0.1875,0.78125
1630588198593,-0.5625,0.1875,0.78125
1630588198625,-0.5625,0.1875,0.796875
1630588198656,-0.5625,0.1875,0.796875
1630588198687,-0.5625,0.1875,0.796875
1630588198718,-0.5625,0.1875,0.78125
1630588198750,-0.5625,0.1875,0.796875
1630588198781,-0.5625,0.1875,0.796875
1630588198812,-0.5625,0.1875,0.78125
1630588198843,-0.5625,0.1875,0.796875
1630588198875,-0.5625,0.1875,0.796875
1630588198906,-0.5625,0.1875,0.78125
1630588198937,-0.5625,0.1875,0.78125
1630588198968,-0.5625,0.1875,0.796875
1630588199000,-0.5625,0.1875,0.78125
1630588199031,-0.5625,0.1875,0.796875
1630588199062,-0.5625,0.1875,0.796875
1630588199093,-0.5625,0.1875,0.78125
1630588199125,-0.5625,0.1875,0.78125
1630588199156,-0.5625,0.1875,0.78125
1630588199187,-0.5625,0.1875,0.796875
1630588199218,-0.5625,0.1875,0.796875
1630588199250,-0.5625,0.1875,0.78125
1630588199281,-0.5625,0.1875,0.796875
1630588199312,-0.5625,0.1875,0.796875
1630588199343,-0.5625,0.1875,0.78125
1630588199375,-0.5625,0.1875,0.78125
1630588199406,-0.5625,0.1875,0.78125
1630588199437,-0.5625,0.1875,0.78125
1630588199468,-0.5625,0.1875,0.796875
1630588199500,-0.5625,0.1875,0.78125
1630588199531,-0.5625,0.1875,0.796875
1630588199562,-0.5625,0.1875,0.78125
1630588199593,-0.5625,0.1875,0.796875
1630588199625,-0.5625,0.1875,0.78125
1630588199656,-0.5625,0.1875,0.796875
1630588199687,-0.5625,0.1875,0.78125
1630588199718,-0.5625,0.1875,0.78125
1630588199750,-0.5625,0.1875,0.78125
1630588199781,-0.5625,0.1875,0.78125
1630588199812,-0.5625,0.1875,0.78125
1630588199843,-0.578125,0.1875,0.78125
1630588199875,-0.5625,0.1875,0.78125
1630588199906,-0.5625,0.1875,0.78125
1630588199937,-0.5625,0.203125,0.78125
1630588199968,-0.578125,0.1875,0.78125
1630588200000,-0.578125,0.1875,0.78125
1630588200031,-0.5625,0.1875,0.78125
1630588200062,-0.5625,0.1875,0.78125
1630588200093,-0.578125,0.203125,0.78125
1630588200125,-0.5625,0.1875,0.78125
1630588200156,-0.578125,0.1875,0.78125
1630588200187,-0.5625,0.1875,0.78125
1630588200218,-0.578125,0.203125,0.78125
1630588200250,-0.5625,0.1875,0.78125
1630588200281,-0.5625,0.1875,0.78125
1630588200312,-0.5625,0.1875,0.78125
1630588200343,-0.5625,0.1875,0.78125
1630588200375,-0.5625,0.1875,0.78125
1630588200406,-0.5625,0.1875,0.78125
1630588200437,-0.5625,0.1875,0.78125
1630588200468,-0.5625,0.1875,0.78125
1630588200500,-0.5625,0.1875,0.78125
1630588200531,-0.5625,0.1875,0.78125
1630588200562,-0.5625,0.1875,0.796875
1630588200593,-0.5625,0.1875,0.796875
1630588200625,-0.5625,0.1875,0.796875
1630588200656,-0.578125,0.1875,0.796875
1630588200687,-0.5625,0.1875,0.796875
1630588200718,-0.5625,0.1875,0.796875
1630588200750,-0.5625,0.1875,0.796875
1630588200781,-0.5625,0.1875,0.78125
1630588200812,-0.5625,0.1875,0.78125
1630588200843,-0.5625,0.1875,0.796875
1630588200875,-0.5625,0.1875,0.78125
1630588200906,-0.5625,0.1875,0.78125
1630588200937,-0.5625,0.1875,0.78125
1630588200968,-0.5625,0.1875,0.78125
1630588201000,-0.5625,0.1875,0.796875
1630588201031,-0.5625,0.1875,0.78125
1630588201062,-0.5625,0.1875,0.796875
1630588201093,-0.5625,0.1875,0.796875
1630588201125,-0.5625,0.1875,0.796875
1630588201156,-0.5625,0.1875,0.796875
1630588201187,-0.5625,0.1875,0.796875
1630588201218,-0.5625,0.1875,0.78125
1630588201250,-0.5625,0.1875,0.78125
1630588201281,-0.5625,0.1875,0.796875
1630588201312,-0.5625,0.1875,0.796875
1630588201343,-0.5625,0.1875,0.796875
1630588201375,-0.5625,0.1875,0.796875
1630588201406,-0.5625,0.1875,0.796875
1630588201437,-0.5625,0.1875,0.78125
1630588201468,-0.5625,0.1875,0.78125
1630588201500,-0.5625,0.1875,0.78125
1630588201531,-0.5625,0.1875,0.78125
1630588201562,-0.5625,0.1875,0.78125
1630588201593,-0.5625,0.1875,0.796875
1630588201625,-0.5625,0.1875,0.796875
1630588201656,-0.5625,0.1875,0.796875
1630588201687,-0.5625,0.1875,0.796875
1630588201718,-0.5625,0.1875,0.78125
1630588201750,-0.5625,0.1875,0.796875
1630588201781,-0.5625,0.1875,0.78125
1630588201812,-0.5625,0.1875,0.78125
1630588201843,-0.5625,0.1875,0.78125
1630588201875,-0.5625,0.1875,0.796875
1630588201906,-0.5625,0.1875,0.78125
1630588201937,-0.5625,0.1875,0.796875
1630588201968,-0.5625,0.1875,0.796875
1630588202000,-0.5625,0.1875,0.796875
1630588202031,-0.5625,0.1875,0.78125
1630588202062,-0.5625,0.1875,0.78125
1630588202093,-0.5625,0.1875,0.78125
1630588202125,-0.578125,0.1875,0.78125
1630588202156,-0.5625,0.1875,0.796875
1630588202187,-0.5625,0.1875,0.78125
1630588202218,-0.5625,0.1875,0.78125
1630588202250,-0.5625,0.1875,0.78125
1630588202281,-0.5625,0.1875,0.78125
1630588202312,-0.5625,0.1875,0.78125
1630588202343,-0.578125,0.1875,0.78125
1630588202375,-0.5625,0.1875,0.796875
1630588202406,-0.5625,0.1875,0.78125
1630588202437,-0.5625,0.1875,0.796875
1630588202468,-0.5625,0.1875,0.78125
1630588202500,-0.5625,0.1875,0.796875
1630588202531,-0.5625,0.203125,0.78125
1630588202562,-0.5625,0.1875,0.78125
1630588202593,-0.5625,0.203125,0.78125
1630588202625,-0.5625,0.203125,0.78125
1630588202656,-0.5625,0.203125,0.78125
1630588202687,-0.578125,0.203125,0.78125
1630588202718,-0.578125,0.1875,0.78125
1630588202750,-0.5625,0.1875,0.78125
1630588202781,-0.5625,0.203125,0.78125
1630588202812,-0.5625,0.1875,0.78125
1630588202843,-0.5625,0.1875,0.78125
1630588202875,-0.5625,0.1875,0.78125
1630588202906,-0.578125,0.1875,0.78125
1630588202937,-0.5625,0.1875,0.78125
1630588202968,-0.578125,0.1875,0.78125
1630588203000,-0.5625,0.1875,0.78125
1630588203031,-0.5625,0.1875,0.78125
1630588203062,-0.5625,0.1875,0.78125
1630588203093,-0.5625,0.1875,0.796875
1630588203125,-0.5625,0.1875,0.78125
1630588203156,-0.5625,0.1875,0.78125
1630588203187,-0.5625,0.1875,0.796875
1630588203218,-0.5625,0.1875,0.796875
1630588203250,-0.5625,0.1875,0.796875
1630588203281,-0.5625,0.1875,0.78125
1630588203312,-0.5625,0.1875,0.796875
1630588203343,-0.5625,0.1875,0.78125
1630588203375,-0.5625,0.1875,0.78125
1630588203406,-0.5625,0.1875,0.78125
1630588203437,-0.5625,0.1875,0.796875
1630588203468,-0.5625,0.1875,0.78125
1630588203500,-0.5625,0.1875,0.796875
1630588203531,-0.5625,0.1875,0.796875
1630588203562,-0.5625,0.1875,0.796875
1630588203593,-0.5625,0.1875,0.796875
1630588203625,-0.5625,0.1875,0.78125
1630588203656,-0.5625,0.1875,0.78125
1630588203687,-0.5625,0.1875,0.78125
1630588203718,-0.5625,0.1875,0.796875
1630588203750,-0.5625,0.1875,0.796875
1630588203781,-0.5625,0.1875,0.78125
1630588203812,-0.5625,0.1875,0.796875
1630588203843,-0.5625,0.1875,0.796875
1630588203875,-0.5625,0.1875,0.796875
1630588203906,-0.5625,0.1875,0.78125
1630588203937,-0.5625,0.1875,0.78125
1630588203968,-0.5625,0.1875,0.796875
1630588204000,-0.5625,0.1875,0.796875
1630588204031,-0.5625,0.1875,0.796875
1630588204062,-0.5625,0.1875,0.796875
1630588204093,-0.5625,0.1875,0.796875
1630588204125,-0.5625,0.1875,0.796875
1630588204156,-0.5625,0.1875,0.78125
1630588204187,-0.5625,0.1875,0.78125
1630588204218,-0.5625,0.1875,0.796875
1630588204250,-0.5625,0.1875,0.78125
1630588204281,-0.5625,0.1875,0.78125
1630588204312,-0.5625,0.1875,0.796875
1630588204343,-0.5625,0.1875,0.796875
1630588204375,-0.5625,0.1875,0.796875
1630588204406,-0.5625,0.1875,0.78125
1630588204437,-0.5625,0.1875,0.796875
1630588204468,-0.5625,0.1875,0.796875
1630588204500,-0.5625,0.1875,0.78125
1630588204531,-0.5625,0.1875,0.796875
1630588204562,-0.5625,0.1875,0.796875
1630588204593,-0.5625,0.1875,0.796875
1630588204625,-0.5625,0.1875,0.796875
1630588204656,-0.5625,0.1875,0.796875
1630588204687,-0.5625,0.1875,0.796875
1630588204718,-0.5625,0.1875,0.796875
1630588204750,-0.5625,0.1875,0.796875
1630588204781,-0.5625,0.1875,0.78125
1630588204812,-0.5625,0.1875,0.78125
1630588204843,-0.5625,0.1875,0.78125
1630588204875,-0.5625,0.1875,0.796875
1630588204906,-0.5625,0.1875,0.78125
1630588204937,-0.5625,0.1875,0.796875
1630588204968,-0.5625,0.1875,0.78125
1630588205000,-0.578125,0.1875,0.78125
1630588205031,-0.5625,0.1875,0.796875
1630588205062,-0.5625,0.1875,0.78125
1630588205093,-0.5625,0.1875,0.78125
1630588205125,-0.5625,0.1875,0.78125
1630588205156,-0.578125,0.1875,0.78125
1630588205187,-0.5625,0.1875,0.78125
1630588205218,-0.5625,0.1875,0.796875
1630588205250,-0.5625,0.1875,0.78125
1630588205281,-0.5625,0.1875,0.78125
1630588205312,-0.578125,0.203125,0.78125
1630588205343,-0.578125,0.1875,0.78125
1630588205375,-0.5625,0.1875,0.78125
1630588205406,-0.5625,0.1875,0.78125
1630588205437,-0.578125,0.203125,0.78125
1630588205468,-0.5625,0.1875,0.78125
1630588205500,-0.5625,0.1875,0.78125
1630588205531,-0.578125,0.1875,0.796875
1630588205562,-0.5625,0.1875,0.78125
1630588205593,-0.5625,0.1875,0.78125
1630588205625,-0.5625,0.1875,0.78125
1630588205656,-0.5625,0.1875,0.78125
1630588205687,-0.578125,0.1875,0.796875
1630588205718,-0.5625,0.1875,0.796875
1630588205750,-0.5625,0.1875,0.78125
1630588205781,-0.5625,0.1875,0.78125
1630588205812,-0.5625,0.1875,0.78125
1630588205843,-0.5625,0.1875,0.796875
1630588205875,-0.5625,0.1875,0.78125
1630588205906,-0.5625,0.1875,0.78125
1630588205937,-0.5625,0.1875,0.78125
1630588205968,-0.5625,0.1875,0.796875
1630588206000,-0.5625,0.1875,0.796875
1630588206031,-0.5625,0.1875,0.78125
1630588206062,-0.5625,0.1875,0.796875
1630588206093,-0.5625,0.1875,0.796875
1630588206125,-0.5625,0.1875,0.796875
1630588206156,-0.5625,0.1875,0.78125
1630588206187,-0.5625,0.1875,0.796875
1630588206218,-0.5625,0.1875,0.796875
1630588206250,-0.5625,0.1875,0.78125
1630588206281,-0.5625,0.1875,0.796875
1630588206312,-0.5625,0.1875,0.796875
1630588206343,-0.5625,0.1875,0.78125
1630588206375,-0.5625,0.1875,0.796875
1630588206406,-0.5625,0.1875,0.78125
1630588206437,-0.5625,0.1875,0.796875
1630588206468,-0.5625,0.1875,0.796875
1630588206500,-0.5625,0.1875,0.796875
1630588206531,-0.5625,0.1875,0.796875
1630588206562,-0.5625,0.1875,0.796875
1630588206593,-0.578125,0.1875,0.796875
1630588206625,-0.5625,0.1875,0.796875
1630588206656,-0.5625,0.1875,0.78125
1630588206687,-0.5625,0.1875,0.78125
1630588206718,-0.5625,0.1875,0.796875
1630588206750,-0.5625,0.1875,0.796875
1630588206781,-0.5625,0.1875,0.796875
1630588206812,-0.5625,0.1875,0.796875
1630588206843,-0.5625,0.1875,0.78125
1630588206875,-0.5625,0.1875,0.78125
1630588206906,-0.5625,0.1875,0.796875
1630588206937,-0.5625,0.1875,0.78125
1630588206968,-0.5625,0.1875,0.796875
1630588207000,-0.5625,0.1875,0.796875
1630588207031,-0.5625,0.1875,0.796875
1630588207062,-0.5625,0.1875,0.796875
1630588207093,-0.5625,0.1875,0.796875
1630588207125,-0.5625,0.1875,0.796875
1630588207156,-0.5625,0.1875,0.796875
1630588207187,-0.5625,0.1875,0.78125
1630588207218,-0.5625,0.1875,0.78125
1630588207250,-0.5625,0.1875,0.78125
1630588207281,-0.5625,0.1875,0.78125
1630588207312,-0.5625,0.1875,0.796875
1630588207343,-0.5625,0.1875,0.796875
1630588207375,-0.5625,0.1875,0.796875
1630588207406,-0.5625,0.1875,0.78125
1630588207437,-0.5625,0.1875,0.796875
1630588207468,-0.5625,0.1875,0.78125
1630588207500,-0.5625,0.1875,0.78125
1630588207531,-0.5625,0.1875,0.78125
1630588207562,-0.5625,0.1875,0.78125
1630588207593,-0.5625,0.1875,0.796875
1630588207625,-0.5625,0.203125,0.78125
1630588207656,-0.578125,0.1875,0.796875
1630588207687,-0.5625,0.1875,0.78125
1630588207718,-0.5625,0.1875,0.796875
1630588207750,-0.5625,0.1875,0.78125
1630588207781,-0.5625,0.1875,0.78125
1630588207812,-0.5625,0.1875,0.78125
1630588207843,-0.5625,0.1875,0.78125
1630588207875,-0.5625,0.1875,0.78125
1630588207906,-0.5625,0.1875,0.78125
1630588207937,-0.5625,0.1875,0.78125
1630588207968,-0.578125,0.1875,0.78125
1630588208000,-0.5625,0.1875,0.78125
1630588208031,-0.5625,0.1875,0.796875
1630588208062,-0.5625,0.1875,0.78125
1630588208093,-0.5625,0.1875,0.78125
1630588208125,-0.5625,0.1875,0.796875
1630588208156,-0.5625,0.1875,0.796875
1630588208187,-0.5625,0.1875,0.78125
1630588208218,-0.578125,0.1875,0.78125
1630588208250,-0.5625,0.1875,0.796875
1630588208281,-0.5625,0.1875,0.78125
1630588208312,-0.5625,0.1875,0.78125
1630588208343,-0.5625,0.1875,0.78125
1630588208375,-0.5625,0.1875,0.796875
1630588208406,-0.5625,0.1875,0.796875
1630588208437,-0.5625,0.1875,0.78125
1630588208468,-0.5625,0.1875,0.78125
1630588208500,-0.5625,0.1875,0.796875
1630588208531,-0.5625,0.1875,0.796875
1630588208562,-0.5625,0.1875,0.78125
1630588208593,-0.5625,0.1875,0.796875
1630588208625,-0.5625,0.1875,0.78125
1630588208656,-0.5625,0.1875,0.796875
1630588208687,-0.5625,0.1875,0.796875
1630588208718,-0.5625,0.1875,0.796875
1630588208750,-0.5625,0.1875,0.796875
1630588208781,-0.5625,0.1875,0.796875
1630588208812,-0.5625,0.1875,0.78125
1630588208843,-0.5625,0.1875,0.796875
1630588208875,-0.5625,0.1875,0.78125
1630588208906,-0.5625,0.1875,0.796875
1630588208937,-0.5625,0.1875,0.796875
1630588208968,-0.5625,0.1875,0.78125
1630588209000,-0.5625,0.1875,0.796875
1630588209031,-0.5625,0.1875,0.796875
1630588209062,-0.5625,0.1875,0.796875
1630588209093,-0.5625,0.1875,0.78125
1630588209125,-0.5625,0.1875,0.78125
1630588209156,-0.5625,0.1875,0.796875
1630588209187,-0.5625,0.1875,0.796875
1630588209218,-0.5625,0.1875,0.796875
1630588209250,-0.5625,0.1875,0.796875
1630588209281,-0.5625,0.1875,0.796875
1630588209312,-0.5625,0.1875,0.796875
1630588209343,-0.5625,0.1875,0.796875
1630588209375,-0.5625,0.1875,0.796875
1630588209406,-0.5625,0.1875,0.796875
1630588209437,-0.5625,0.1875,0.796875
1630588209468,-0.5625,0.1875,0.796875
1630588209500,-0.5625,0.1875,0.796875
1630588209531,-0.5625,0.1875,0.796875
1630588209562,-0.5625,0.1875,0.796875
1630588209593,-0.5625,0.1875,0.796875
1630588209625,-0.5625,0.1875,0.796875
1630588209656,-0.5625,0.1875,0.796875
1630588209687,-0.5625,0.1875,0.78125
1630588209718,-0.5625,0.1875,0.796875
1630588209750,-0.5625,0.1875,0.796875
1630588209781,-0.5625,0.1875,0.78125
1630588209812,-0.5625,0.1875,0.796875
1630588209843,-0.5625,0.1875,0.796875
1630588209875,-0.5625,0.1875,0.78125
1630588209906,-0.5625,0.1875,0.78125
1630588209937,-0.5625,0.1875,0.78125
1630588209968,-0.5625,0.1875,0.78125
1630588210000,-0.5625,0.1875,0.796875
1630588210031,-0.5625,0.1875,0.78125
1630588210062,-0.5625,0.1875,0.796875
1630588210093,-0.5625,0.1875,0.796875
1630588210125,-0.5625,0.1875,0.796875
1630588210156,-0.5625,0.1875,0.796875
1630588210187,-0.5625,0.1875,0.78125
1630588210218,-0.5625,0.1875,0.78125
1630588210250,-0.5625,0.1875,0.78125
1630588210281,-0.5625,0.1875,0.796875
1630588210312,-0.5625,0.1875,0.78125
1630588210343,-0.5625,0.1875,0.78125
1630588210375,-0.5625,0.1875,0.78125
1630588210406,-0.5625,0.1875,0.78125
1630588210437,-0.5625,0.1875,0.78125
1630588210468,-0.5625,0.1875,0.78125
1630588210500,-0.5625,0.1875,0.78125
1630588210531,-0.5625,0.1875,0.796875
1630588210562,-0.5625,0.203125,0.78125
1630588210593,-0.5625,0.1875,0.78125
1630588210625,-0.5625,0.1875,0.78125
1630588210656,-0.5625,0.203125,0.78125
1630588210687,-0.578125,0.203125,0.78125
1630588210718,-0.5625,0.1875,0.78125
1630588210750,-0.5625,0.1875,0.796875
1630588210781,-0.5625,0.1875,0.796875
1630588210812,-0.5625,0.1875,0.796875
1630588210843,-0.5625,0.1875,0.78125
1630588210875,-0.5625,0.1875,0.796875
1630588210906,-0.5625,0.1875,0.796875
1630588210937,-0.5625,0.1875,0.78125
1630588210968,-0.5625,0.1875,0.78125
1630588211000,-0.5625,0.1875,0.796875
1630588211031,-0.5625,0.1875,0.78125
1630588211062,-0.5625,0.1875,0.796875
1630588211093,-0.5625,0.1875,0.78125
1630588211125,-0.5625,0.1875,0.796875
1630588211156,-0.5625,0.1875,0.78125
1630588211187,-0.5625,0.1875,0.78125
1630588211218,-0.5625,0.1875,0.78125
1630588211250,-0.5625,0.1875,0.78125
1630588211281,-0.5625,0.1875,0.796875
1630588211312,-0.5625,0.1875,0.78125
1630588211343,-0.5625,0.1875,0.796875
1630588211375,-0.5625,0.1875,0.796875
1630588211406,-0.5625,0.1875,0.796875
1630588211437,-0.5625,0.1875,0.78125
1630588211468,-0.5625,0.1875,0.78125
1630588211500,-0.5625,0.1875,0.78125
1630588211531,-0.5625,0.1875,0.78125
1630588211562,-0.5625,0.1875,0.796875
1630588211593,-0.5625,0.1875,0.796875
1630588211625,-0.5625,0.1875,0.796875
1630588211656,-0.5625,0.1875,0.796875
1630588211687,-0.5625,0.1875,0.796875
1630588211718,-0.5625,0.1875,0.796875
1630588211750,-0.5625,0.1875,0.78125
1630588211781,-0.5625,0.1875,0.796875
1630588211812,-0.5625,0.1875,0.796875
1630588211843,-0.5625,0.1875,0.796875
1630588211875,-0.5625,0.1875,0.78125
1630588211906,-0.5625,0.1875,0.78125
1630588211937,-0.5625,0.1875,0.796875
1630588211968,-0.5625,0.1875,0.78125
1630588212000,-0.5625,0.1875,0.796875
1630588212031,-0.5625,0.1875,0.796875
1630588212062,-0.5625,0.1875,0.796875
1630588212093,-0.5625,0.1875,0.796875
1630588212125,-0.5625,0.1875,0.796875
1630588212156,-0.5625,0.1875,0.796875
1630588212187,-0.5625,0.1875,0.796875
1630588212218,-0.5625,0.1875,0.78125
1630588212250,-0.5625,0.1875,0.796875
1630588212281,-0.5625,0.1875,0.796875
1630588212312,-0.5625,0.1875,0.796875
1630588212343,-0.5625,0.1875,0.796875
1630588212375,-0.5625,0.1875,0.796875
1630588212406,-0.5625,0.1875,0.796875
1630588212437,-0.5625,0.1875,0.796875
1630588212468,-0.5625,0.1875,0.796875
1630588212500,-0.5625,0.1875,0.796875
1630588212531,-0.5625,0.1875,0.796875
1630588212562,-0.5625,0.1875,0.796875
1630588212593,-0.5625,0.1875,0.78125
1630588212625,-0.5625,0.1875,0.796875
1630588212656,-0.5625,0.1875,0.796875
1630588212687,-0.5625,0.1875,0.796875
1630588212718,-0.5625,0.1875,0.78125
1630588212750,-0.5625,0.1875,0.78125
1630588212781,-0.5625,0.1875,0.78125
1630588212812,-0.5625,0.1875,0.78125
1630588212843,-0.5625,0.1875,0.78125
1630588212875,-0.5625,0.1875,0.796875
1630588212906,-0.5625,0.1875,0.78125
1630588212937,-0.5625,0.1875,0.78125
1630588212968,-0.5625,0.1875,0.78125
1630588213000,-0.5625,0.203125,0.78125
1630588213031,-0.578125,0.203125,0.78125
1630588213062,-0.578125,0.203125,0.78125
1630588213093,-0.578125,0.203125,0.78125
1630588213125,-0.578125,0.203125,0.78125
1630588213156,-0.578125,0.203125,0.78125
1630588213187,-0.5625,0.203125,0.78125
1630588213218,-0.5625,0.203125,0.78125
1630588213250,-0.578125,0.203125,0.796875
1630588213281,-0.5625,0.203125,0.796875
1630588213312,-0.5625,0.203125,0.796875
1630588213343,-0.5625,0.203125,0.796875
1630588213375,-0.578125,0.203125,0.78125
1630588213406,-0.59375,0.1875,0.765625
1630588213437,-0.59375,0.203125,0.78125
1630588213468,-0.5625,0.203125,0.796875
1630588213500,-0.546875,0.203125,0.8125
1630588213531,-0.5625,0.1875,0.796875
1630588213562,-0.578125,0.171875,0.765625
1630588213593,-0.578125,0.15625,0.75
1630588213625,-0.609375,0.15625,0.734375
1630588213656,-0.609375,0.171875,0.75
1630588213687,-0.5625,0.203125,0.8125
1630588213718,-0.546875,0.203125,0.8125
1630588213750,-0.5625,0.203125,0.78125
1630588213781,-0.546875,0.203125,0.796875
1630588213812,-0.5625,0.203125,0.796875
1630588213843,-0.546875,0.203125,0.78125
1630588213875,-0.5625,0.203125,0.78125
1630588213906,-0.578125,0.203125,0.78125
1630588213937,-0.59375,0.203125,0.78125
1630588213968,-0.609375,0.203125,0.78125
1630588214000,-0.59375,0.203125,0.796875
1630588214031,-0.59375,0.203125,0.765625
1630588214062,-0.59375,0.203125,0.75
1630588214093,-0.5625,0.203125,0.78125
1630588214125,-0.5625,0.203125,0.796875
1630588214156,-0.546875,0.234375,0.796875
1630588214187,-0.578125,0.234375,0.75
1630588214218,-0.578125,0.234375,0.75
1630588214250,-0.59375,0.21875,0.78125
1630588214281,-0.609375,0.21875,0.78125
1630588214312,-0.609375,0.203125,0.75
1630588214343,-0.609375,0.1875,0.765625
1630588214375,-0.59375,0.1875,0.78125
1630588214406,-0.578125,0.171875,0.78125
1630588214437,-0.609375,0.171875,0.71875
1630588214468,-0.59375,0.1875,0.703125
1630588214500,-0.5625,0.234375,0.71875
1630588214531,-0.578125,0.234375,0.765625
1630588214562,-0.546875,0.203125,0.859375
1630588214593,-0.515625,0.203125,0.796875
1630588214625,-0.5,0.203125,0.84375
1630588214656,-0.484375,0.21875,0.859375
1630588214687,-0.5,0.234375,0.828125
1630588214718,-0.53125,0.234375,0.8125
1630588214750,-0.5625,0.203125,0.78125
1630588214781,-0.5625,0.1875,0.78125
1630588214812,-0.53125,0.1875,0.8125
1630588214843,-0.515625,0.203125,0.828125
1630588214875,-0.515625,0.21875,0.828125
1630588214906,-0.53125,0.234375,0.8125
1630588214937,-0.546875,0.21875,0.796875
1630588214968,-0.5625,0.203125,0.78125
1630588215000,-0.546875,0.1875,0.78125
1630588215031,-0.53125,0.1875,0.78125
1630588215062,-0.515625,0.203125,0.8125
1630588215093,-0.515625,0.21875,0.828125
1630588215125,-0.53125,0.21875,0.8125
1630588215156,-0.53125,0.21875,0.796875
1630588215187,-0.53125,0.21875,0.796875
1630588215218,-0.53125,0.21875,0.8125
1630588215250,-0.53125,0.21875,0.8125
1630588215281,-0.53125,0.21875,0.796875
1630588215312,-0.53125,0.21875,0.796875
1630588215343,-0.515625,0.234375,0.8125
1630588215375,-0.515625,0.234375,0.828125
1630588215406,-0.515625,0.234375,0.8125
1630588215437,-0.515625,0.21875,0.8125
1630588215468,-0.515625,0.21875,0.8125
1630588215500,-0.515625,0.234375,0.8125
1630588215531,-0.515625,0.234375,0.8125
1630588215562,-0.515625,0.234375,0.8125
1630588215593,-0.515625,0.21875,0.8125
1630588215625,-0.53125,0.21875,0.8125
1630588215656,-0.53125,0.21875,0.796875
1630588215687,-0.515625,0.234375,0.8125
1630588215718,-0.53125,0.234375,0.8125
1630588215750,-0.515625,0.21875,0.796875
1630588215781,-0.515625,0.21875,0.8125
1630588215812,-0.53125,0.21875,0.796875
1630588215843,-0.515625,0.21875,0.8125
1630588215875,-0.515625,0.234375,0.8125
1630588215906,-0.515625,0.21875,0.8125
1630588215937,-0.515625,0.21875,0.8125
1630588215968,-0.515625,0.21875,0.8125
1630588216000,-0.515625,0.21875,0.8125
1630588216031,-0.515625,0.234375,0.8125
1630588216062,-0.515625,0.234375,0.8125
1630588216093,-0.515625,0.234375,0.8125
1630588216125,-0.515625,0.21875,0.8125
1630588216156,-0.515625,0.234375,0.8125
1630588216187,-0.515625,0.21875,0.8125
1630588216218,-0.515625,0.21875,0.8125
1630588216250,-0.515625,0.21875,0.8125
1630588216281,-0.515625,0.21875,0.8125
1630588216312,-0.515625,0.21875,0.8125
1630588216343,-0.515625,0.21875,0.8125
1630588216375,-0.515625,0.21875,0.8125
1630588216406,-0.515625,0.21875,0.8125
1630588216437,-0.515625,0.21875,0.8125
1630588216468,-0.515625,0.234375,0.8125
1630588216500,-0.515625,0.21875,0.8125
1630588216531,-0.515625,0.234375,0.8125
1630588216562,-0.515625,0.21875,0.8125
1630588216593,-0.515625,0.21875,0.8125
1630588216625,-0.515625,0.21875,0.8125
1630588216656,-0.515625,0.21875,0.8125
1630588216687,-0.515625,0.234375,0.8125
1630588216718,-0.515625,0.21875,0.8125
1630588216750,-0.515625,0.21875,0.8125
1630588216781,-0.515625,0.21875,0.8125
1630588216812,-0.515625,0.21875,0.8125
1630588216843,-0.515625,0.21875,0.8125
1630588216875,-0.515625,0.21875,0.8125
1630588216906,-0.515625,0.21875,0.8125
1630588216937,-0.515625,0.21875,0.8125
1630588216968,-0.515625,0.21875,0.8125
1630588217000,-0.515625,0.234375,0.8125
1630588217031,-0.515625,0.234375,0.8125
1630588217062,-0.515625,0.234375,0.8125
1630588217093,-0.515625,0.234375,0.8125
1630588217125,-0.515625,0.234375,0.8125
1630588217156,-0.515625,0.21875,0.8125
1630588217187,-0.515625,0.21875,0.8125
1630588217218,-0.515625,0.21875,0.8125
1630588217250,-0.515625,0.21875,0.8125
1630588217281,-0.515625,0.21875,0.8125
1630588217312,-0.515625,0.21875,0.8125
1630588217343,-0.515625,0.21875,0.8125
1630588217375,-0.515625,0.21875,0.8125
1630588217406,-0.515625,0.21875,0.8125
1630588217437,-0.515625,0.234375,0.8125
1630588217468,-0.515625,0.234375,0.8125
1630588217500,-0.515625,0.21875,0.8125
1630588217531,-0.515625,0.21875,0.8125
1630588217562,-0.515625,0.21875,0.8125
1630588217593,-0.515625,0.21875,0.8125
1630588217625,-0.515625,0.234375,0.8125
1630588217656,-0.515625,0.21875,0.8125
1630588217687,-0.515625,0.21875,0.8125
1630588217718,-0.515625,0.234375,0.8125
1630588217750,-0.515625,0.234375,0.8125
1630588217781,-0.515625,0.234375,0.8125
1630588217812,-0.515625,0.234375,0.8125
1630588217843,-0.515625,0.234375,0.8125
1630588217875,-0.515625,0.234375,0.8125
1630588217906,-0.515625,0.234375,0.8125
1630588217937,-0.515625,0.21875,0.8125
1630588217968,-0.515625,0.234375,0.8125
1630588218000,-0.515625,0.234375,0.8125
1630588218031,-0.515625,0.234375,0.8125
1630588218062,-0.515625,0.234375,0.8125
1630588218093,-0.515625,0.234375,0.8125
1630588218125,-0.515625,0.234375,0.8125
1630588218156,-0.515625,0.234375,0.8125
1630588218187,-0.515625,0.234375,0.8125
1630588218218,-0.515625,0.234375,0.8125
1630588218250,-0.515625,0.234375,0.8125
1630588218281,-0.515625,0.234375,0.8125
1630588218312,-0.515625,0.234375,0.8125
1630588218343,-0.515625,0.234375,0.8125
1630588218375,-0.515625,0.234375,0.8125
1630588218406,-0.515625,0.234375,0.8125
1630588218437,-0.515625,0.21875,0.8125
1630588218468,-0.515625,0.234375,0.8125
1630588218500,-0.515625,0.21875,0.8125
1630588218531,-0.515625,0.21875,0.8125
1630588218562,-0.515625,0.21875,0.8125
1630588218593,-0.515625,0.21875,0.8125
1630588218625,-0.515625,0.21875,0.8125
1630588218656,-0.515625,0.21875,0.8125
1630588218687,-0.515625,0.234375,0.8125
1630588218718,-0.515625,0.234375,0.8125
1630588218750,-0.5,0.234375,0.8125
1630588218781,-0.515625,0.234375,0.8125
1630588218812,-0.515625,0.234375,0.8125
1630588218843,-0.515625,0.234375,0.8125
1630588218875,-0.515625,0.234375,0.8125
1630588218906,-0.515625,0.234375,0.8125
1630588218937,-0.515625,0.234375,0.8125
1630588218968,-0.515625,0.234375,0.8125
1630588219000,-0.515625,0.234375,0.8125
1630588219031,-0.515625,0.21875,0.8125
1630588219062,-0.515625,0.234375,0.8125
1630588219093,-0.515625,0.234375,0.8125
1630588219125,-0.515625,0.21875,0.8125
1630588219156,-0.515625,0.234375,0.8125
1630588219187,-0.515625,0.234375,0.8125
1630588219218,-0.515625,0.234375,0.8125
1630588219250,-0.515625,0.21875,0.8125
1630588219281,-0.515625,0.21875,0.8125
1630588219312,-0.515625,0.234375,0.8125
1630588219343,-0.515625,0.234375,0.8125
1630588219375,-0.515625,0.21875,0.8125
1630588219406,-0.515625,0.234375,0.8125
1630588219437,-0.515625,0.234375,0.8125
1630588219468,-0.515625,0.21875,0.8125
1630588219500,-0.515625,0.21875,0.8125
1630588219531,-0.515625,0.234375,0.8125
1630588219562,-0.515625,0.234375,0.8125
1630588219593,-0.515625,0.234375,0.8125
1630588219625,-0.515625,0.21875,0.8125
1630588219656,-0.515625,0.234375,0.8125
1630588219687,-0.515625,0.234375,0.8125
1630588219718,-0.515625,0.234375,0.8125
1630588219750,-0.515625,0.234375,0.8125
1630588219781,-0.515625,0.21875,0.8125
1630588219812,-0.515625,0.234375,0.8125
1630588219843,-0.515625,0.21875,0.8125
1630588219875,-0.515625,0.234375,0.8125
1630588219906,-0.515625,0.234375,0.8125
1630588219937,-0.515625,0.234375,0.8125
1630588219968,-0.515625,0.21875,0.8125
1630588220000,-0.515625,0.234375,0.8125
1630588220031,-0.515625,0.234375,0.8125
1630588220062,-0.515625,0.234375,0.8125
1630588220093,-0.515625,0.234375,0.8125
1630588220125,-0.515625,0.234375,0.8125
1630588220156,-0.515625,0.234375,0.8125
1630588220187,-0.515625,0.21875,0.8125
1630588220218,-0.515625,0.21875,0.8125
1630588220250,-0.515625,0.21875,0.8125
1630588220281,-0.515625,0.21875,0.8125
1630588220312,-0.515625,0.234375,0.8125
1630588220343,-0.515625,0.234375,0.8125
1630588220375,-0.515625,0.234375,0.8125
1630588220406,-0.515625,0.234375,0.8125
1630588220437,-0.515625,0.234375,0.8125
1630588220468,-0.515625,0.234375,0.8125
1630588220500,-0.515625,0.234375,0.796875
1630588220531,-0.515625,0.234375,0.8125
1630588220562,-0.515625,0.234375,0.8125
1630588220593,-0.515625,0.234375,0.8125
1630588220625,-0.515625,0.234375,0.8125
1630588220656,-0.515625,0.234375,0.8125
1630588220687,-0.515625,0.234375,0.8125
1630588220718,-0.515625,0.234375,0.8125
1630588220750,-0.515625,0.234375,0.8125
1630588220781,-0.515625,0.234375,0.8125
1630588220812,-0.515625,0.234375,0.8125
1630588220843,-0.515625,0.234375,0.8125
1630588220875,-0.515625,0.234375,0.8125
1630588220906,-0.515625,0.234375,0.8125
1630588220937,-0.515625,0.234375,0.8125
1630588220968,-0.515625,0.234375,0.8125
1630588221000,-0.515625,0.234375,0.8125
1630588221031,-0.515625,0.234375,0.8125
1630588221062,-0.515625,0.234375,0.8125
1630588221093,-0.515625,0.234375,0.8125
1630588221125,-0.515625,0.234375,0.8125
1630588221156,-0.515625,0.234375,0.8125
1630588221187,-0.515625,0.234375,0.8125
1630588221218,-0.515625,0.234375,0.8125
1630588221250,-0.515625,0.234375,0.8125
1630588221281,-0.515625,0.234375,0.8125
1630588221312,-0.515625,0.234375,0.8125
1630588221343,-0.515625,0.234375,0.8125
1630588221375,-0.515625,0.234375,0.8125
1630588221406,-0.515625,0.234375,0.8125
1630588221437,-0.515625,0.234375,0.8125
1630588221468,-0.515625,0.234375,0.8125
1630588221500,-0.515625,0.234375,0.8125
1630588221531,-0.515625,0.21875,0.8125
1630588221562,-0.515625,0.21875,0.8125
1630588221593,-0.515625,0.21875,0.8125
1630588221625,-0.515625,0.234375,0.8125
1630588221656,-0.515625,0.234375,0.8125
1630588221687,-0.515625,0.234375,0.8125
1630588221718,-0.515625,0.234375,0.8125
1630588221750,-0.515625,0.21875,0.8125
1630588221781,-0.515625,0.234375,0.8125
1630588221812,-0.515625,0.234375,0.8125
1630588221843,-0.515625,0.234375,0.8125
1630588221875,-0.515625,0.21875,0.8125
1630588221906,-0.515625,0.21875,0.8125
1630588221937,-0.515625,0.234375,0.8125
1630588221968,-0.515625,0.234375,0.8125
1630588222000,-0.515625,0.234375,0.8125
1630588222031,-0.515625,0.234375,0.8125
1630588222062,-0.515625,0.21875,0.8125
1630588222093,-0.515625,0.234375,0.8125
1630588222125,-0.515625,0.234375,0.8125
1630588222156,-0.515625,0.234375,0.8125
1630588222187,-0.515625,0.234375,0.8125
1630588222218,-0.515625,0.21875,0.8125
1630588222250,-0.515625,0.234375,0.8125
1630588222281,-0.515625,0.21875,0.8125
1630588222312,-0.515625,0.21875,0.8125
1630588222343,-0.515625,0.21875,0.8125
1630588222375,-0.515625,0.21875,0.8125
1630588222406,-0.515625,0.21875,0.8125
1630588222437,-0.515625,0.234375,0.8125
1630588222468,-0.515625,0.234375,0.8125
1630588222500,-0.515625,0.234375,0.8125
1630588222531,-0.515625,0.234375,0.8125
1630588222562,-0.515625,0.234375,0.8125
1630588222593,-0.515625,0.234375,0.8125
1630588222625,-0.515625,0.234375,0.8125
1630588222656,-0.515625,0.21875,0.8125
1630588222687,-0.515625,0.234375,0.8125
1630588222718,-0.515625,0.234375,0.8125
1630588222750,-0.515625,0.234375,0.8125
1630588222781,-0.515625,0.21875,0.8125
1630588222812,-0.5,0.234375,0.8125
1630588222843,-0.515625,0.234375,0.8125
1630588222875,-0.515625,0.234375,0.8125
1630588222906,-0.515625,0.21875,0.8125
1630588222937,-0.515625,0.21875,0.8125
1630588222968,-0.515625,0.234375,0.8125
1630588223000,-0.515625,0.234375,0.8125
1630588223031,-0.515625,0.234375,0.8125
1630588223062,-0.515625,0.234375,0.8125
1630588223093,-0.515625,0.234375,0.8125
1630588223125,-0.515625,0.234375,0.8125
1630588223156,-0.515625,0.21875,0.8125
1630588223187,-0.515625,0.234375,0.8125
1630588223218,-0.515625,0.234375,0.8125
1630588223250,-0.515625,0.234375,0.8125
1630588223281,-0.515625,0.234375,0.8125
1630588223312,-0.515625,0.234375,0.8125
1630588223343,-0.515625,0.234375,0.8125
1630588223375,-0.515625,0.234375,0.8125
1630588223406,-0.515625,0.234375,0.8125
1630588223437,-0.515625,0.234375,0.8125
1630588223468,-0.515625,0.234375,0.8125
1630588223500,-0.515625,0.234375,0.8125
1630588223531,-0.515625,0.234375,0.8125
1630588223562,-0.515625,0.234375,0.8125
1630588223593,-0.515625,0.234375,0.8125
1630588223625,-0.515625,0.234375,0.8125
1630588223656,-0.515625,0.234375,0.8125
1630588223687,-0.515625,0.234375,0.8125
1630588223718,-0.515625,0.234375,0.8125
1630588223750,-0.515625,0.234375,0.8125
1630588223781,-0.515625,0.234375,0.8125
1630588223812,-0.515625,0.234375,0.8125
1630588223843,-0.515625,0.234375,0.8125
1630588223875,-0.5,0.234375,0.828125
1630588223906,-0.515625,0.234375,0.8125
1630588223937,-0.53125,0.234375,0.796875
1630588223968,-0.515625,0.234375,0.8125
1630588224000,-0.515625,0.234375,0.8125
1630588224031,-0.515625,0.21875,0.8125
1630588224062,-0.515625,0.234375,0.8125
1630588224093,-0.515625,0.234375,0.8125
1630588224125,-0.515625,0.234375,0.8125
1630588224156,-0.515625,0.234375,0.8125
1630588224187,-0.515625,0.234375,0.8125
1630588224218,-0.515625,0.234375,0.8125
1630588224250,-0.5,0.234375,0.8125
1630588224281,-0.5,0.234375,0.828125
1630588224312,-0.53125,0.234375,0.796875
1630588224343,-0.53125,0.234375,0.796875
1630588224375,-0.515625,0.234375,0.8125
1630588224406,-0.515625,0.21875,0.8125
1630588224437,-0.515625,0.234375,0.8125
1630588224468,-0.515625,0.234375,0.8125
1630588224500,-0.515625,0.234375,0.8125
1630588224531,-0.515625,0.234375,0.8125
1630588224562,-0.515625,0.234375,0.8125
1630588224593,-0.515625,0.234375,0.8125
1630588224625,-0.515625,0.234375,0.8125
1630588224656,-0.515625,0.234375,0.8125
1630588224687,-0.515625,0.234375,0.8125
1630588224718,-0.515625,0.234375,0.8125
1630588224750,-0.5,0.234375,0.8125
1630588224781,-0.515625,0.234375,0.8125
1630588224812,-0.5,0.234375,0.8125
1630588224843,-0.515625,0.234375,0.8125
1630588224875,-0.515625,0.21875,0.8125
1630588224906,-0.515625,0.234375,0.8125
1630588224937,-0.515625,0.234375,0.8125
1630588224968,-0.515625,0.234375,0.8125
1630588225000,-0.515625,0.234375,0.8125
1630588225031,-0.515625,0.21875,0.8125
1630588225062,-0.515625,0.21875,0.8125
1630588225093,-0.515625,0.234375,0.8125
1630588225125,-0.515625,0.234375,0.8125
1630588225156,-0.515625,0.234375,0.8125
1630588225187,-0.515625,0.21875,0.8125
1630588225218,-0.515625,0.234375,0.8125
1630588225250,-0.5,0.234375,0.8125
1630588225281,-0.515625,0.234375,0.8125
1630588225312,-0.515625,0.234375,0.8125
1630588225343,-0.515625,0.21875,0.8125
1630588225375,-0.515625,0.21875,0.8125
1630588225406,-0.515625,0.234375,0.8125
1630588225437,-0.515625,0.234375,0.8125
1630588225468,-0.515625,0.234375,0.8125
1630588225500,-0.515625,0.234375,0.8125
1630588225531,-0.515625,0.234375,0.828125
1630588225562,-0.515625,0.234375,0.8125
1630588225593,-0.515625,0.234375,0.8125
1630588225625,-0.515625,0.234375,0.8125
1630588225656,-0.515625,0.21875,0.8125
1630588225687,-0.515625,0.234375,0.8125
1630588225718,-0.515625,0.234375,0.8125
1630588225750,-0.515625,0.234375,0.8125
1630588225781,-0.515625,0.234375,0.8125
1630588225812,-0.515625,0.234375,0.8125
1630588225843,-0.515625,0.234375,0.8125
1630588225875,-0.515625,0.234375,0.8125
1630588225906,-0.515625,0.21875,0.8125
1630588225937,-0.515625,0.234375,0.8125
1630588225968,-0.515625,0.234375,0.8125
1630588226000,-0.515625,0.234375,0.8125
1630588226031,-0.515625,0.234375,0.8125
1630588226062,-0.515625,0.234375,0.8125
1630588226093,-0.515625,0.234375,0.8125
1630588226125,-0.515625,0.234375,0.8125
1630588226156,-0.5,0.234375,0.8125
1630588226187,-0.515625,0.234375,0.8125
1630588226218,-0.515625,0.234375,0.8125
1630588226250,-0.515625,0.234375,0.8125
1630588226281,-0.515625,0.234375,0.8125
1630588226312,-0.515625,0.234375,0.8125
1630588226343,-0.515625,0.234375,0.8125
1630588226375,-0.515625,0.234375,0.8125
1630588226406,-0.515625,0.234375,0.8125
1630588226437,-0.515625,0.234375,0.8125
1630588226468,-0.515625,0.234375,0.8125
1630588226500,-0.515625,0.234375,0.8125
1630588226531,-0.515625,0.234375,0.8125
1630588226562,-0.515625,0.234375,0.8125
1630588226593,-0.515625,0.234375,0.8125
1630588226625,-0.515625,0.234375,0.8125
1630588226656,-0.515625,0.234375,0.8125
1630588226687,-0.515625,0.234375,0.8125
1630588226718,-0.515625,0.234375,0.8125
1630588226750,-0.515625,0.234375,0.8125
1630588226781,-0.515625,0.234375,0.8125
1630588226812,-0.515625,0.234375,0.8125
1630588226843,-0.515625,0.234375,0.8125
1630588226875,-0.515625,0.234375,0.8125
1630588226906,-0.515625,0.234375,0.8125
1630588226937,-0.515625,0.234375,0.8125
1630588226968,-0.515625,0.234375,0.8125
1630588227000,-0.515625,0.234375,0.8125
1630588227031,-0.515625,0.234375,0.8125
1630588227062,-0.515625,0.234375,0.8125
1630588227093,-0.515625,0.234375,0.8125
1630588227125,-0.515625,0.234375,0.8125
1630588227156,-0.515625,0.234375,0.8125
1630588227187,-0.515625,0.234375,0.8125
1630588227218,-0.515625,0.234375,0.8125
1630588227250,-0.515625,0.234375,0.8125
1630588227281,-0.515625,0.234375,0.8125
1630588227312,-0.515625,0.234375,0.8125
1630588227343,-0.515625,0.234375,0.8125
1630588227375,-0.515625,0.234375,0.8125
1630588227406,-0.515625,0.234375,0.8125
1630588227437,-0.515625,0.234375,0.8125
1630588227468,-0.515625,0.234375,0.8125
1630588227500,-0.515625,0.234375,0.8125
1630588227531,-0.515625,0.234375,0.8125
1630588227562,-0.515625,0.234375,0.8125
1630588227593,-0.515625,0.234375,0.8125
1630588227625,-0.515625,0.234375,0.8125
1630588227656,-0.515625,0.234375,0.8125
1630588227687,-0.515625,0.21875,0.8125
1630588227718,-0.515625,0.234375,0.8125
1630588227750,-0.515625,0.234375,0.8125
1630588227781,-0.515625,0.234375,0.8125
1630588227812,-0.515625,0.234375,0.8125
1630588227843,-0.515625,0.234375,0.8125
1630588227875,-0.515625,0.234375,0.8125
1630588227906,-0.515625,0.234375,0.8125
1630588227937,-0.515625,0.234375,0.8125
1630588227968,-0.5,0.234375,0.8125
1630588228000,-0.515625,0.234375,0.8125
1630588228031,-0.515625,0.234375,0.8125
1630588228062,-0.515625,0.234375,0.8125
1630588228093,-0.515625,0.234375,0.8125
1630588228125,-0.515625,0.234375,0.8125
1630588228156,-0.515625,0.234375,0.8125
1630588228187,-0.515625,0.234375,0.8125
1630588228218,-0.515625,0.234375,0.8125
1630588228250,-0.515625,0.234375,0.8125
1630588228281,-0.515625,0.234375,0.8125
1630588228312,-0.515625,0.21875,0.8125
1630588228343,-0.515625,0.234375,0.8125
1630588228375,-0.515625,0.234375,0.8125
1630588228406,-0.515625,0.234375,0.8125
1630588228437,-0.515625,0.234375,0.8125
1630588228468,-0.515625,0.234375,0.8125
1630588228500,-0.515625,0.21875,0.8125
1630588228531,-0.515625,0.234375,0.8125
1630588228562,-0.515625,0.234375,0.8125
1630588228593,-0.515625,0.21875,0.8125
1630588228625,-0.515625,0.234375,0.8125
1630588228656,-0.515625,0.21875,0.8125
1630588228687,-0.515625,0.234375,0.8125
1630588228718,-0.515625,0.21875,0.8125
1630588228750,-0.515625,0.234375,0.8125
1630588228781,-0.515625,0.21875,0.8125
1630588228812,-0.515625,0.234375,0.8125
1630588228843,-0.515625,0.234375,0.8125
1630588228875,-0.515625,0.234375,0.8125
1630588228906,-0.515625,0.234375,0.8125
1630588228937,-0.515625,0.234375,0.8125
1630588228968,-0.515625,0.234375,0.8125
1630588229000,-0.515625,0.234375,0.8125
1630588229031,-0.515625,0.234375,0.8125
1630588229062,-0.515625,0.234375,0.8125
1630588229093,-0.515625,0.234375,0.8125
1630588229125,-0.515625,0.234375,0.8125
1630588229156,-0.515625,0.234375,0.8125
1630588229187,-0.515625,0.234375,0.8125
1630588229218,-0.515625,0.21875,0.8125
1630588229250,-0.515625,0.234375,0.8125
1630588229281,-0.515625,0.234375,0.8125
1630588229312,-0.515625,0.234375,0.8125
1630588229343,-0.515625,0.234375,0.8125
1630588229375,-0.515625,0.234375,0.8125
1630588229406,-0.515625,0.234375,0.8125
1630588229437,-0.515625,0.234375,0.8125
1630588229468,-0.515625,0.234375,0.8125
1630588229500,-0.515625,0.234375,0.8125
1630588229531,-0.515625,0.234375,0.8125
1630588229562,-0.515625,0.234375,0.8125
1630588229593,-0.515625,0.234375,0.8125
1630588229625,-0.515625,0.234375,0.8125
1630588229656,-0.515625,0.234375,0.8125
1630588229687,-0.515625,0.234375,0.8125
1630588229718,-0.515625,0.234375,0.8125
1630588229750,-0.515625,0.234375,0.8125
1630588229781,-0.515625,0.234375,0.8125
1630588229812,-0.515625,0.234375,0.8125
1630588229843,-0.515625,0.234375,0.8125
1630588229875,-0.515625,0.234375,0.8125
1630588229906,-0.515625,0.234375,0.8125
1630588229937,-0.515625,0.234375,0.8125
1630588229968,-0.515625,0.234375,0.8125
1630588230000,-0.515625,0.234375,0.8125
1630588230031,-0.515625,0.234375,0.8125
1630588230062,-0.515625,0.234375,0.8125
1630588230093,-0.515625,0.234375,0.8125
1630588230125,-0.515625,0.234375,0.8125
1630588230156,-0.515625,0.234375,0.8125
1630588230187,-0.515625,0.234375,0.8125
1630588230218,-0.515625,0.234375,0.8125
1630588230250,-0.515625,0.234375,0.8125
1630588230281,-0.515625,0.234375,0.8125
1630588230312,-0.515625,0.234375,0.8125
1630588230343,-0.515625,0.234375,0.8125
1630588230375,-0.515625,0.234375,0.8125
1630588230406,-0.515625,0.234375,0.8125
1630588230437,-0.515625,0.234375,0.8125
1630588230468,-0.515625,0.234375,0.8125
1630588230500,-0.515625,0.234375,0.8125
1630588230531,-0.515625,0.234375,0.8125
1630588230562,-0.515625,0.234375,0.8125
1630588230593,-0.515625,0.234375,0.8125
1630588230625,-0.515625,0.234375,0.8125
1630588230656,-0.515625,0.234375,0.8125
1630588230687,-0.515625,0.234375,0.8125
1630588230718,-0.515625,0.234375,0.8125
1630588230750,-0.515625,0.234375,0.8125
1630588230781,-0.515625,0.234375,0.8125
1630588230812,-0.515625,0.234375,0.8125
1630588230843,-0.515625,0.234375,0.8125
1630588230875,-0.515625,0.234375,0.8125
1630588230906,-0.515625,0.234375,0.8125
1630588230937,-0.515625,0.234375,0.8125
1630588230968,-0.515625,0.234375,0.8125
1630588231000,-0.515625,0.234375,0.8125
1630588231031,-0.515625,0.234375,0.8125
1630588231062,-0.515625,0.234375,0.8125
1630588231093,-0.515625,0.234375,0.8125
1630588231125,-0.515625,0.234375,0.8125
1630588231156,-0.515625,0.234375,0.8125
1630588231187,-0.515625,0.234375,0.8125
1630588231218,-0.515625,0.234375,0.8125
1630588231250,-0.515625,0.21875,0.8125
1630588231281,-0.515625,0.234375,0.8125
1630588231312,-0.515625,0.234375,0.8125
1630588231343,-0.515625,0.234375,0.8125
1630588231375,-0.515625,0.234375,0.8125
1630588231406,-0.5,0.234375,0.8125
1630588231437,-0.515625,0.234375,0.8125
1630588231468,-0.515625,0.234375,0.8125
1630588231500,-0.515625,0.234375,0.8125
1630588231531,-0.515625,0.234375,0.8125
1630588231562,-0.515625,0.234375,0.8125
1630588231593,-0.515625,0.234375,0.8125
1630588231625,-0.5,0.234375,0.8125
1630588231656,-0.515625,0.234375,0.8125
1630588231687,-0.515625,0.234375,0.8125
1630588231718,-0.515625,0.21875,0.8125
1630588231750,-0.515625,0.234375,0.8125
1630588231781,-0.515625,0.234375,0.8125
1630588231812,-0.515625,0.234375,0.8125
1630588231843,-0.515625,0.234375,0.8125
1630588231875,-0.515625,0.234375,0.8125
1630588231906,-0.515625,0.234375,0.8125
1630588231937,-0.5,0.234375,0.8125
1630588231968,-0.5,0.234375,0.8125
1630588232000,-0.515625,0.234375,0.8125
1630588232031,-0.515625,0.21875,0.8125
1630588232062,-0.515625,0.234375,0.8125
1630588232093,-0.515625,0.234375,0.8125
1630588232125,-0.515625,0.234375,0.8125
1630588232156,-0.515625,0.234375,0.8125
1630588232187,-0.515625,0.234375,0.8125
1630588232218,-0.515625,0.234375,0.8125
1630588232250,-0.515625,0.234375,0.8125
1630588232281,-0.515625,0.234375,0.8125
1630588232312,-0.515625,0.234375,0.8125
1630588232343,-0.515625,0.234375,0.8125
1630588232375,-0.515625,0.234375,0.8125
1630588232406,-0.515625,0.21875,0.8125
1630588232437,-0.515625,0.234375,0.8125
1630588232468,-0.515625,0.234375,0.8125
1630588232500,-0.515625,0.234375,0.8125
1630588232531,-0.515625,0.234375,0.8125
1630588232562,-0.515625,0.234375,0.8125
1630588232593,-0.5,0.234375,0.8125
1630588232625,-0.515625,0.234375,0.8125
1630588232656,-0.515625,0.234375,0.8125
1630588232687,-0.515625,0.234375,0.8125
1630588232718,-0.515625,0.234375,0.8125
1630588232750,-0.515625,0.234375,0.8125
1630588232781,-0.515625,0.234375,0.8125
1630588232812,-0.515625,0.234375,0.8125
1630588232843,-0.515625,0.234375,0.8125
1630588232875,-0.515625,0.234375,0.8125
1630588232906,-0.515625,0.234375,0.8125
1630588232937,-0.515625,0.234375,0.8125
1630588232968,-0.515625,0.234375,0.8125
1630588233000,-0.515625,0.234375,0.8125
1630588233031,-0.515625,0.234375,0.8125
1630588233062,-0.515625,0.234375,0.8125
1630588233093,-0.515625,0.234375,0.8125
1630588233125,-0.515625,0.234375,0.8125
1630588233156,-0.515625,0.234375,0.8125
1630588233187,-0.515625,0.234375,0.8125
1630588233218,-0.515625,0.234375,0.8125
1630588233250,-0.515625,0.234375,0.8125
1630588233281,-0.515625,0.234375,0.8125
1630588233312,-0.515625,0.234375,0.8125
1630588233343,-0.515625,0.21875,0.8125
1630588233375,-0.515625,0.21875,0.8125
1630588233406,-0.515625,0.234375,0.8125
1630588233437,-0.515625,0.234375,0.8125
1630588233468,-0.515625,0.234375,0.8125
1630588233500,-0.515625,0.234375,0.8125
1630588233531,-0.515625,0.234375,0.8125
1630588233562,-0.515625,0.21875,0.8125
1630588233593,-0.515625,0.234375,0.8125
1630588233625,-0.515625,0.234375,0.8125
1630588233656,-0.515625,0.234375,0.8125
1630588233687,-0.515625,0.234375,0.8125
1630588233718,-0.515625,0.234375,0.8125
1630588233750,-0.515625,0.234375,0.8125
1630588233781,-0.515625,0.234375,0.8125
1630588233812,-0.515625,0.234375,0.8125
1630588233843,-0.515625,0.234375,0.8125
1630588233875,-0.515625,0.234375,0.8125
1630588233906,-0.515625,0.234375,0.8125
1630588233937,-0.5,0.234375,0.8125
1630588233968,-0.515625,0.234375,0.8125
1630588234000,-0.515625,0.21875,0.8125
1630588234031,-0.515625,0.234375,0.8125
1630588234062,-0.515625,0.234375,0.8125
1630588234093,-0.515625,0.234375,0.8125
1630588234125,-0.515625,0.21875,0.8125
1630588234156,-0.515625,0.21875,0.8125
1630588234187,-0.515625,0.21875,0.8125
1630588234218,-0.515625,0.234375,0.8125
1630588234250,-0.515625,0.234375,0.8125
1630588234281,-0.515625,0.21875,0.8125
1630588234312,-0.515625,0.21875,0.8125
1630588234343,-0.515625,0.21875,0.8125
1630588234375,-0.515625,0.234375,0.8125
1630588234406,-0.515625,0.21875,0.8125
1630588234437,-0.515625,0.21875,0.8125
1630588234468,-0.515625,0.234375,0.8125
1630588234500,-0.515625,0.21875,0.8125
1630588234531,-0.515625,0.234375,0.8125
1630588234562,-0.515625,0.234375,0.8125
1630588234593,-0.515625,0.234375,0.8125
1630588234625,-0.515625,0.21875,0.8125
1630588234656,-0.515625,0.234375,0.8125
1630588234687,-0.515625,0.234375,0.8125
1630588234718,-0.515625,0.234375,0.8125
1630588234750,-0.515625,0.234375,0.8125
1630588234781,-0.515625,0.234375,0.8125
1630588234812,-0.515625,0.21875,0.8125
1630588234843,-0.515625,0.234375,0.8125
1630588234875,-0.515625,0.234375,0.8125
1630588234906,-0.515625,0.234375,0.8125
1630588234937,-0.515625,0.234375,0.8125
1630588234968,-0.515625,0.21875,0.8125
1630588235000,-0.515625,0.234375,0.8125
1630588235031,-0.515625,0.21875,0.8125
1630588235062,-0.515625,0.21875,0.8125
1630588235093,-0.515625,0.234375,0.8125
1630588235125,-0.515625,0.21875,0.8125
1630588235156,-0.515625,0.234375,0.8125
1630588235187,-0.515625,0.234375,0.8125
1630588235218,-0.515625,0.234375,0.8125
1630588235250,-0.515625,0.234375,0.8125
1630588235281,-0.515625,0.234375,0.8125
1630588235312,-0.515625,0.21875,0.8125
1630588235343,-0.515625,0.234375,0.8125
1630588235375,-0.515625,0.234375,0.8125
1630588235406,-0.515625,0.234375,0.8125
1630588235437,-0.515625,0.234375,0.8125
1630588235468,-0.515625,0.234375,0.8125
1630588235500,-0.515625,0.234375,0.8125
1630588235531,-0.515625,0.234375,0.8125
1630588235562,-0.515625,0.234375,0.8125
1630588235593,-0.515625,0.234375,0.8125
1630588235625,-0.515625,0.234375,0.8125
1630588235656,-0.515625,0.234375,0.8125
1630588235687,-0.515625,0.234375,0.8125
1630588235718,-0.515625,0.234375,0.8125
1630588235750,-0.515625,0.234375,0.8125
1630588235781,-0.515625,0.234375,0.8125
1630588235812,-0.515625,0.234375,0.8125
1630588235843,-0.515625,0.234375,0.8125
1630588235875,-0.515625,0.234375,0.8125
1630588235906,-0.5,0.234375,0.8125
1630588235937,-0.5,0.234375,0.8125
1630588235968,-0.515625,0.234375,0.8125
1630588236000,-0.515625,0.234375,0.8125
1630588236031,-0.515625,0.234375,0.8125
1630588236062,-0.515625,0.234375,0.8125
1630588236093,-0.515625,0.234375,0.8125
1630588236125,-0.515625,0.234375,0.8125
1630588236156,-0.515625,0.234375,0.8125
1630588236187,-0.515625,0.234375,0.8125
1630588236218,-0.515625,0.234375,0.8125
1630588236250,-0.515625,0.234375,0.8125
1630588236281,-0.515625,0.234375,0.8125
1630588236312,-0.515625,0.234375,0.8125
1630588236343,-0.515625,0.234375,0.8125
1630588236375,-0.515625,0.234375,0.8125
1630588236406,-0.515625,0.234375,0.8125
1630588236437,-0.5,0.234375,0.8125
1630588236468,-0.515625,0.234375,0.8125
1630588236500,-0.515625,0.234375,0.8125
1630588236531,-0.515625,0.234375,0.8125
1630588236562,-0.515625,0.234375,0.8125
1630588236593,-0.515625,0.234375,0.8125
1630588236625,-0.5,0.234375,0.8125
1630588236656,-0.515625,0.234375,0.8125
1630588236687,-0.515625,0.234375,0.8125
1630588236718,-0.515625,0.21875,0.8125
1630588236750,-0.5,0.234375,0.8125
1630588236781,-0.5,0.21875,0.8125
1630588236812,-0.515625,0.21875,0.8125
1630588236843,-0.515625,0.234375,0.8125
1630588236875,-0.515625,0.21875,0.8125
1630588236906,-0.515625,0.21875,0.8125
1630588236937,-0.515625,0.21875,0.8125
1630588236968,-0.515625,0.234375,0.8125
1630588237000,-0.515625,0.234375,0.8125
1630588237031,-0.515625,0.234375,0.8125
1630588237062,-0.515625,0.234375,0.8125
1630588237093,-0.5,0.234375,0.8125
1630588237125,-0.515625,0.234375,0.8125
1630588237156,-0.515625,0.234375,0.8125
1630588237187,-0.515625,0.234375,0.828125
1630588237218,-0.515625,0.234375,0.8125
1630588237250,-0.515625,0.234375,0.8125
1630588237281,-0.515625,0.21875,0.8125
1630588237312,-0.5,0.21875,0.8125
1630588237343,-0.5,0.234375,0.8125
1630588237375,-0.515625,0.234375,0.8125
1630588237406,-0.515625,0.234375,0.8125
1630588237437,-0.5,0.234375,0.8125
1630588237468,-0.515625,0.234375,0.8125
1630588237500,-0.515625,0.21875,0.8125
1630588237531,-0.5,0.21875,0.8125
1630588237562,-0.5,0.21875,0.8125
1630588237593,-0.5,0.21875,0.8125
1630588237625,-0.515625,0.21875,0.8125
1630588237656,-0.5,0.21875,0.8125
1630588237687,-0.5,0.234375,0.8125
1630588237718,-0.515625,0.234375,0.8125
1630588237750,-0.5,0.234375,0.8125
1630588237781,-0.5,0.21875,0.8125
1630588237812,-0.515625,0.21875,0.8125
1630588237843,-0.515625,0.234375,0.8125
1630588237875,-0.515625,0.234375,0.8125
1630588237906,-0.515625,0.234375,0.8125
1630588237937,-0.515625,0.234375,0.8125
1630588237968,-0.515625,0.21875,0.8125
1630588238000,-0.5,0.21875,0.828125
1630588238031,-0.515625,0.234375,0.8125
1630588238062,-0.515625,0.234375,0.8125
1630588238093,-0.515625,0.234375,0.828125
1630588238125,-0.515625,0.234375,0.8125
1630588238156,-0.515625,0.234375,0.8125
1630588238187,-0.515625,0.234375,0.8125
1630588238218,-0.515625,0.234375,0.8125
1630588238250,-0.515625,0.234375,0.8125
1630588238281,-0.515625,0.234375,0.8125
1630588238312,-0.515625,0.234375,0.8125
1630588238343,-0.515625,0.234375,0.8125
1630588238375,-0.515625,0.234375,0.8125
1630588238406,-0.515625,0.234375,0.8125
1630588238437,-0.515625,0.234375,0.8125
1630588238468,-0.515625,0.234375,0.8125
1630588238500,-0.515625,0.234375,0.8125
1630588238531,-0.515625,0.234375,0.8125
1630588238562,-0.515625,0.234375,0.8125
1630588238593,-0.515625,0.234375,0.8125
1630588238625,-0.515625,0.234375,0.8125
1630588238656,-0.515625,0.234375,0.8125
1630588238687,-0.515625,0.234375,0.8125
1630588238718,-0.5,0.234375,0.8125
1630588238750,-0.515625,0.234375,0.8125
1630588238781,-0.5,0.234375,0.8125
1630588238812,-0.5,0.234375,0.8125
1630588238843,-0.515625,0.234375,0.8125
1630588238875,-0.515625,0.234375,0.8125
1630588238906,-0.515625,0.234375,0.8125
1630588238937,-0.5,0.234375,0.8125
1630588238968,-0.515625,0.234375,0.8125
1630588239000,-0.5,0.234375,0.8125
1630588239031,-0.515625,0.234375,0.8125
1630588239062,-0.5,0.234375,0.8125
1630588239093,-0.515625,0.234375,0.8125
1630588239125,-0.515625,0.21875,0.8125
1630588239156,-0.515625,0.21875,0.8125
1630588239187,-0.515625,0.234375,0.8125
1630588239218,-0.515625,0.234375,0.8125
1630588239250,-0.5,0.234375,0.8125
1630588239281,-0.515625,0.234375,0.8125
1630588239312,-0.5,0.234375,0.8125
1630588239343,-0.5,0.234375,0.8125
1630588239375,-0.515625,0.234375,0.8125
1630588239406,-0.515625,0.234375,0.8125
1630588239437,-0.515625,0.234375,0.8125
1630588239468,-0.515625,0.234375,0.8125
1630588239500,-0.515625,0.234375,0.8125
1630588239531,-0.515625,0.234375,0.8125
1630588239562,-0.5,0.234375,0.8125
1630588239593,-0.5,0.234375,0.8125
1630588239625,-0.515625,0.234375,0.8125
1630588239656,-0.5,0.21875,0.8125
1630588239687,-0.515625,0.21875,0.8125
1630588239718,-0.5,0.234375,0.8125
1630588239750,-0.515625,0.234375,0.8125
1630588239781,-0.515625,0.234375,0.8125
1630588239812,-0.5,0.234375,0.8125
1630588239843,-0.5,0.234375,0.828125
1630588239875,-0.5,0.234375,0.8125
1630588239906,-0.515625,0.234375,0.8125
1630588239937,-0.515625,0.234375,0.8125
1630588239968,-0.5,0.21875,0.8125
1630588240000,-0.515625,0.234375,0.8125
1630588240031,-0.5,0.234375,0.828125
1630588240062,-0.5,0.21875,0.8125
1630588240093,-0.5,0.21875,0.8125
1630588240125,-0.515625,0.21875,0.8125
1630588240156,-0.515625,0.234375,0.8125
1630588240187,-0.515625,0.234375,0.828125
1630588240218,-0.5,0.21875,0.8125
1630588240250,-0.5,0.21875,0.8125
1630588240281,-0.5,0.234375,0.8125
1630588240312,-0.515625,0.234375,0.8125
1630588240343,-0.515625,0.234375,0.8125
1630588240375,-0.5,0.234375,0.828125
1630588240406,-0.5,0.234375,0.828125
1630588240437,-0.515625,0.234375,0.8125
1630588240468,-0.5,0.21875,0.8125
1630588240500,-0.5,0.21875,0.828125
1630588240531,-0.515625,0.203125,0.796875
1630588240562,-0.515625,0.203125,0.796875
1630588240593,-0.515625,0.21875,0.796875
1630588240625,-0.5,0.21875,0.8125
1630588240656,-0.5,0.21875,0.84375
1630588240687,-0.5,0.21875,0.8125
1630588240718,-0.515625,0.21875,0.8125
1630588240750,-0.515625,0.21875,0.8125
1630588240781,-0.515625,0.21875,0.796875
1630588240812,-0.53125,0.203125,0.78125
1630588240843,-0.53125,0.203125,0.78125
1630588240875,-0.515625,0.203125,0.796875
1630588240906,-0.53125,0.21875,0.8125
1630588240937,-0.515625,0.21875,0.8125
1630588240968,-0.5,0.234375,0.828125
1630588241000,-0.453125,0.265625,0.859375
1630588241031,-0.453125,0.265625,0.875
1630588241062,-0.5,0.25,0.828125
1630588241093,-0.546875,0.25,0.796875
1630588241125,-0.546875,0.25,0.796875
1630588241156,-0.5625,0.21875,0.796875
1630588241187,-0.5625,0.203125,0.796875
1630588241218,-0.53125,0.203125,0.8125
1630588241250,-0.484375,0.25,0.859375
1630588241281,-0.515625,0.265625,0.828125
1630588241312,-0.515625,0.265625,0.859375
1630588241343,-0.53125,0.25,0.78125
1630588241375,-0.515625,0.234375,0.859375
1630588241406,-0.515625,0.1875,0.828125
1630588241437,-0.5,0.15625,0.828125
1630588241468,-0.484375,0.140625,0.828125
1630588241500,-0.5,0.140625,0.8125
1630588241531,-0.5625,0.171875,0.78125
1630588241562,-0.5625,0.140625,0.8125
1630588241593,-0.5625,0.125,0.796875
1630588241625,-0.828125,0.109375,0.6875
1630588241656,-0.328125,0.28125,0.921875
1630588241687,-0.34375,0.328125,1.03125
1630588241718,-0.671875,0.1875,0.59375
1630588241750,-0.71875,0.171875,0.546875
1630588241781,-0.65625,0.1875,0.6875
1630588241812,-0.59375,0.1875,0.734375
1630588241843,-0.578125,0.1875,0.78125
1630588241875,-0.53125,0.15625,0.84375
1630588241906,-0.53125,0.140625,0.828125
1630588241937,-0.515625,0.15625,0.828125
1630588241968,-0.515625,0.203125,0.859375
1630588242000,-0.5,0.203125,0.890625
1630588242031,-0.484375,0.1875,0.875
1630588242062,-0.5,0.171875,0.84375
1630588242093,-0.5625,0.171875,0.796875
1630588242125,-0.59375,0.171875,0.78125
1630588242156,-0.59375,0.15625,0.765625
1630588242187,-0.578125,0.140625,0.75
1630588242218,-0.546875,0.140625,0.78125
1630588242250,-0.515625,0.140625,0.796875
1630588242281,-0.515625,0.125,0.796875
1630588242312,-0.53125,0.125,0.8125
1630588242343,-0.53125,0.125,0.828125
1630588242375,-0.515625,0.140625,0.84375
1630588242406,-0.484375,0.15625,0.875
1630588242437,-0.4375,0.15625,0.890625
1630588242468,-0.421875,0.15625,0.890625
1630588242500,-0.421875,0.15625,0.890625
1630588242531,-0.46875,0.15625,0.84375
1630588242562,-0.5,0.15625,0.828125
1630588242593,-0.515625,0.140625,0.828125
1630588242625,-0.515625,0.140625,0.828125
1630588242656,-0.515625,0.140625,0.828125
1630588242687,-0.515625,0.140625,0.828125
1630588242718,-0.5,0.15625,0.84375
1630588242750,-0.484375,0.15625,0.859375
1630588242781,-0.46875,0.15625,0.859375
1630588242812,-0.46875,0.15625,0.859375
1630588242843,-0.484375,0.171875,0.84375
1630588242875,-0.5,0.15625,0.84375
1630588242906,-0.5,0.15625,0.828125
1630588242937,-0.5,0.140625,0.828125
1630588242968,-0.484375,0.15625,0.84375
1630588243000,-0.5,0.15625,0.84375
1630588243031,-0.5,0.15625,0.84375
1630588243062,-0.484375,0.15625,0.84375
1630588243093,-0.5,0.171875,0.84375
1630588243125,-0.5,0.171875,0.84375
1630588243156,-0.5,0.171875,0.84375
1630588243187,-0.5,0.15625,0.84375
1630588243218,-0.5,0.15625,0.84375
1630588243250,-0.5,0.15625,0.84375
1630588243281,-0.5,0.15625,0.84375
1630588243312,-0.5,0.171875,0.84375
1630588243343,-0.5,0.15625,0.84375
1630588243375,-0.5,0.171875,0.84375
1630588243406,-0.5,0.171875,0.828125
1630588243437,-0.5,0.171875,0.828125
1630588243468,-0.5,0.171875,0.84375
1630588243500,-0.5,0.171875,0.84375
1630588243531,-0.5,0.171875,0.84375
1630588243562,-0.5,0.171875,0.828125
1630588243593,-0.5,0.171875,0.828125
1630588243625,-0.5,0.15625,0.84375
1630588243656,-0.484375,0.15625,0.84375
1630588243687,-0.484375,0.15625,0.84375
1630588243718,-0.5,0.15625,0.84375
1630588243750,-0.5,0.15625,0.84375
1630588243781,-0.484375,0.15625,0.84375
1630588243812,-0.484375,0.15625,0.84375
1630588243843,-0.5,0.15625,0.84375
1630588243875,-0.5,0.171875,0.84375
1630588243906,-0.5,0.171875,0.84375
1630588243937,-0.5,0.171875,0.84375
1630588243968,-0.5,0.171875,0.84375
1630588244000,-0.5,0.15625,0.828125
1630588244031,-0.5,0.15625,0.84375
1630588244062,-0.5,0.15625,0.84375
1630588244093,-0.5,0.15625,0.84375
1630588244125,-0.5,0.15625,0.828125
1630588244156,-0.5,0.15625,0.84375
1630588244187,-0.5,0.15625,0.84375
1630588244218,-0.5,0.15625,0.828125
1630588244250,-0.5,0.15625,0.84375
1630588244281,-0.5,0.171875,0.84375
1630588244312,-0.5,0.15625,0.84375
1630588244343,-0.5,0.15625,0.84375
1630588244375,-0.5,0.15625,0.84375
1630588244406,-0.5,0.15625,0.84375
1630588244437,-0.5,0.15625,0.84375
1630588244468,-0.5,0.15625,0.84375
1630588244500,-0.5,0.15625,0.84375
1630588244531,-0.5,0.15625,0.84375
1630588244562,-0.5,0.15625,0.84375
1630588244593,-0.5,0.15625,0.84375
1630588244625,-0.5,0.171875,0.84375
1630588244656,-0.5,0.15625,0.84375
1630588244687,-0.5,0.15625,0.84375
1630588244718,-0.5,0.171875,0.84375
1630588244750,-0.5,0.171875,0.84375
1630588244781,-0.484375,0.171875,0.84375
1630588244812,-0.5,0.171875,0.84375
1630588244843,-0.484375,0.171875,0.84375
1630588244875,-0.484375,0.171875,0.84375
1630588244906,-0.5,0.171875,0.84375
1630588244937,-0.5,0.171875,0.84375
1630588244968,-0.5,0.171875,0.828125
1630588245000,-0.5,0.15625,0.84375
1630588245031,-0.5,0.15625,0.84375
1630588245062,-0.5,0.15625,0.84375
1630588245093,-0.5,0.15625,0.84375
1630588245125,-0.5,0.15625,0.84375
1630588245156,-0.5,0.171875,0.84375
1630588245187,-0.5,0.171875,0.828125
1630588245218,-0.5,0.171875,0.84375
1630588245250,-0.5,0.15625,0.84375
1630588245281,-0.5,0.15625,0.828125
1630588245312,-0.5,0.15625,0.828125
1630588245343,-0.5,0.171875,0.84375
1630588245375,-0.5,0.171875,0.828125
1630588245406,-0.5,0.171875,0.828125
1630588245437,-0.5,0.171875,0.84375
1630588245468,-0.5,0.15625,0.84375
1630588245500,-0.5,0.171875,0.84375
1630588245531,-0.5,0.171875,0.828125
1630588245562,-0.5,0.171875,0.828125
1630588245593,-0.5,0.171875,0.828125
1630588245625,-0.5,0.171875,0.828125
1630588245656,-0.5,0.171875,0.84375
1630588245687,-0.5,0.171875,0.828125
1630588245718,-0.5,0.171875,0.828125
1630588245750,-0.5,0.171875,0.84375
1630588245781,-0.5,0.15625,0.828125
1630588245812,-0.5,0.15625,0.828125
1630588245843,-0.5,0.15625,0.84375
1630588245875,-0.5,0.171875,0.84375
1630588245906,-0.5,0.171875,0.84375
1630588245937,-0.5,0.15625,0.84375
1630588245968,-0.5,0.15625,0.828125
1630588246000,-0.5,0.171875,0.828125
1630588246031,-0.5,0.15625,0.84375
1630588246062,-0.5,0.15625,0.828125
1630588246093,-0.5,0.15625,0.828125
1630588246125,-0.5,0.171875,0.828125
1630588246156,-0.5,0.171875,0.828125
1630588246187,-0.5,0.15625,0.84375
1630588246218,-0.5,0.15625,0.84375
1630588246250,-0.5,0.15625,0.828125
1630588246281,-0.5,0.15625,0.828125
1630588246312,-0.5,0.15625,0.84375
1630588246343,-0.5,0.15625,0.828125
1630588246375,-0.5,0.15625,0.84375
1630588246406,-0.5,0.15625,0.828125
1630588246437,-0.5,0.15625,0.84375
1630588246468,-0.5,0.15625,0.84375
1630588246500,-0.5,0.15625,0.828125
1630588246531,-0.5,0.15625,0.828125
1630588246562,-0.5,0.15625,0.84375
1630588246593,-0.5,0.171875,0.84375
1630588246625,-0.5,0.15625,0.84375
1630588246656,-0.5,0.15625,0.828125
1630588246687,-0.5,0.15625,0.828125
1630588246718,-0.5,0.15625,0.828125
1630588246750,-0.5,0.15625,0.84375
1630588246781,-0.5,0.15625,0.84375
1630588246812,-0.5,0.15625,0.84375
1630588246843,-0.5,0.15625,0.84375
1630588246875,-0.5,0.15625,0.84375
1630588246906,-0.5,0.15625,0.828125
1630588246937,-0.5,0.15625,0.84375
1630588246968,-0.5,0.15625,0.84375
1630588247000,-0.5,0.15625,0.828125
1630588247031,-0.5,0.15625,0.84375
1630588247062,-0.5,0.15625,0.84375
1630588247093,-0.5,0.15625,0.84375
1630588247125,-0.5,0.15625,0.828125
1630588247156,-0.5,0.15625,0.84375
1630588247187,-0.5,0.15625,0.84375
1630588247218,-0.5,0.15625,0.84375
1630588247250,-0.5,0.15625,0.84375
1630588247281,-0.5,0.15625,0.84375
1630588247312,-0.5,0.15625,0.84375
1630588247343,-0.5,0.15625,0.828125
1630588247375,-0.5,0.15625,0.84375
1630588247406,-0.5,0.15625,0.84375
1630588247437,-0.5,0.15625,0.84375
1630588247468,-0.5,0.15625,0.84375
1630588247500,-0.5,0.15625,0.828125
1630588247531,-0.5,0.15625,0.84375
1630588247562,-0.5,0.15625,0.828125
1630588247593,-0.5,0.15625,0.84375
1630588247625,-0.5,0.15625,0.84375
1630588247656,-0.5,0.15625,0.84375
1630588247687,-0.5,0.15625,0.84375
1630588247718,-0.5,0.15625,0.828125
1630588247750,-0.5,0.15625,0.828125
1630588247781,-0.5,0.171875,0.828125
1630588247812,-0.5,0.15625,0.828125
1630588247843,-0.5,0.15625,0.84375
1630588247875,-0.5,0.15625,0.828125
1630588247906,-0.5,0.15625,0.828125
1630588247937,-0.5,0.15625,0.828125
1630588247968,-0.484375,0.171875,0.828125
1630588248000,-0.5,0.171875,0.84375
1630588248031,-0.5,0.171875,0.84375
1630588248062,-0.5,0.171875,0.84375
1630588248093,-0.5,0.15625,0.84375
1630588248125,-0.5,0.15625,0.84375
1630588248156,-0.5,0.15625,0.828125
1630588248187,-0.5,0.15625,0.84375
1630588248218,-0.5,0.15625,0.828125
1630588248250,-0.5,0.15625,0.828125
1630588248281,-0.5,0.15625,0.84375
1630588248312,-0.5,0.15625,0.84375
1630588248343,-0.5,0.171875,0.84375
1630588248375,-0.5,0.171875,0.828125
1630588248406,-0.5,0.171875,0.828125
1630588248437,-0.5,0.171875,0.828125
1630588248468,-0.5,0.171875,0.828125
1630588248500,-0.5,0.171875,0.828125
1630588248531,-0.5,0.171875,0.828125
1630588248562,-0.515625,0.15625,0.84375
1630588248593,-0.5,0.15625,0.84375
1630588248625,-0.5,0.15625,0.84375
1630588248656,-0.5,0.15625,0.84375
1630588248687,-0.5,0.15625,0.84375
1630588248718,-0.5,0.15625,0.84375
1630588248750,-0.5,0.15625,0.828125
1630588248781,-0.5,0.171875,0.828125
1630588248812,-0.5,0.15625,0.84375
1630588248843,-0.5,0.15625,0.828125
1630588248875,-0.5,0.15625,0.84375
1630588248906,-0.5,0.15625,0.828125
1630588248937,-0.5,0.171875,0.84375
1630588248968,-0.5,0.15625,0.84375
1630588249000,-0.5,0.15625,0.828125
1630588249031,-0.5,0.15625,0.828125
1630588249062,-0.5,0.15625,0.828125
1630588249093,-0.5,0.171875,0.828125
1630588249125,-0.5,0.15625,0.84375
1630588249156,-0.5,0.15625,0.828125
1630588249187,-0.515625,0.15625,0.828125
1630588249218,-0.5,0.15625,0.859375
1630588249250,-0.5,0.15625,0.84375
1630588249281,-0.515625,0.171875,0.84375
1630588249312,-0.5,0.171875,0.84375
1630588249343,-0.484375,0.171875,0.84375
1630588249375,-0.5,0.171875,0.828125
1630588249406,-0.5,0.171875,0.828125
1630588249437,-0.5,0.15625,0.84375
1630588249468,-0.5,0.15625,0.84375
1630588249500,-0.484375,0.15625,0.828125
1630588249531,-0.5,0.140625,0.84375
1630588249562,-0.5,0.140625,0.84375
1630588249593,-0.5,0.140625,0.828125
1630588249625,-0.5,0.15625,0.828125
1630588249656,-0.5,0.15625,0.828125
1630588249687,-0.5,0.171875,0.84375
1630588249718,-0.5,0.171875,0.84375
1630588249750,-0.5,0.15625,0.84375
1630588249781,-0.5,0.171875,0.84375
1630588249812,-0.5,0.15625,0.84375
1630588249843,-0.5,0.140625,0.84375
1630588249875,-0.484375,0.15625,0.84375
1630588249906,-0.5,0.171875,0.828125
1630588249937,-0.5,0.1875,0.84375
1630588249968,-0.5,0.1875,0.84375
1630588250000,-0.5,0.171875,0.84375
1630588250031,-0.5,0.171875,0.828125
1630588250062,-0.5,0.171875,0.84375
1630588250093,-0.5,0.15625,0.828125
1630588250125,-0.5,0.171875,0.828125
1630588250156,-0.5,0.15625,0.828125
1630588250187,-0.484375,0.15625,0.84375
1630588250218,-0.5,0.15625,0.84375
1630588250250,-0.484375,0.15625,0.84375
1630588250281,-0.5,0.15625,0.84375
1630588250312,-0.5,0.15625,0.828125
1630588250343,-0.5,0.171875,0.828125
1630588250375,-0.5,0.171875,0.828125
1630588250406,-0.5,0.171875,0.828125
1630588250437,-0.5,0.171875,0.84375
1630588250468,-0.5,0.15625,0.84375
1630588250500,-0.5,0.15625,0.84375
1630588250531,-0.5,0.15625,0.84375
1630588250562,-0.5,0.140625,0.84375
1630588250593,-0.5,0.140625,0.84375
1630588250625,-0.5,0.140625,0.84375
1630588250656,-0.5,0.15625,0.828125
1630588250687,-0.5,0.15625,0.828125
1630588250718,-0.5,0.15625,0.828125
1630588250750,-0.5,0.15625,0.828125
1630588250781,-0.5,0.15625,0.84375
1630588250812,-0.5,0.171875,0.828125
1630588250843,-0.5,0.15625,0.828125
1630588250875,-0.5,0.15625,0.84375
1630588250906,-0.5,0.15625,0.84375
1630588250937,-0.5,0.15625,0.84375
1630588250968,-0.5,0.15625,0.84375
1630588251000,-0.5,0.15625,0.84375
1630588251031,-0.5,0.15625,0.84375
1630588251062,-0.5,0.15625,0.84375
1630588251093,-0.5,0.15625,0.84375
1630588251125,-0.5,0.15625,0.828125
1630588251156,-0.5,0.15625,0.828125
1630588251187,-0.484375,0.15625,0.84375
1630588251218,-0.484375,0.15625,0.84375
1630588251250,-0.546875,0.15625,0.78125
1630588251281,-0.5625,0.140625,0.765625
1630588251312,-0.484375,0.125,0.828125
1630588251343,-0.46875,0.125,0.796875
1630588251375,-0.453125,0.171875,0.890625
1630588251406,-0.4375,0.21875,0.9375
1630588251437,-0.46875,0.21875,0.890625
1630588251468,-0.46875,0.1875,0.859375
1630588251500,-0.5,0.171875,0.84375
1630588251531,-0.53125,0.15625,0.8125
1630588251562,-0.53125,0.140625,0.8125
1630588251593,-0.515625,0.15625,0.8125
1630588251625,-0.5,0.15625,0.828125
1630588251656,-0.5,0.15625,0.828125
1630588251687,-0.5,0.15625,0.84375
1630588251718,-0.5,0.15625,0.84375
1630588251750,-0.515625,0.15625,0.828125
1630588251781,-0.5,0.15625,0.828125
1630588251812,-0.5,0.15625,0.828125
1630588251843,-0.515625,0.15625,0.84375
1630588251875,-0.515625,0.15625,0.828125
1630588251906,-0.5,0.15625,0.828125
1630588251937,-0.5,0.15625,0.828125
1630588251968,-0.5,0.15625,0.828125
1630588252000,-0.5,0.15625,0.828125
1630588252031,-0.5,0.15625,0.828125
1630588252062,-0.5,0.15625,0.84375
1630588252093,-0.5,0.15625,0.828125
1630588252125,-0.5,0.140625,0.828125
1630588252156,-0.515625,0.15625,0.84375
1630588252187,-0.5,0.15625,0.84375
1630588252218,-0.5,0.15625,0.84375
1630588252250,-0.5,0.15625,0.828125
1630588252281,-0.5,0.140625,0.828125
1630588252312,-0.5,0.140625,0.828125
1630588252343,-0.5,0.15625,0.828125
1630588252375,-0.5,0.15625,0.828125
1630588252406,-0.5,0.15625,0.828125
1630588252437,-0.5,0.15625,0.828125
1630588252468,-0.5,0.15625,0.84375
1630588252500,-0.5,0.15625,0.84375
1630588252531,-0.5,0.15625,0.84375
1630588252562,-0.5,0.15625,0.828125
1630588252593,-0.5,0.15625,0.828125
1630588252625,-0.5,0.15625,0.828125
1630588252656,-0.5,0.15625,0.828125
1630588252687,-0.5,0.140625,0.828125
1630588252718,-0.5,0.15625,0.828125
1630588252750,-0.5,0.15625,0.828125
1630588252781,-0.5,0.15625,0.828125
1630588252812,-0.5,0.15625,0.828125
1630588252843,-0.5,0.15625,0.84375
1630588252875,-0.5,0.15625,0.84375
1630588252906,-0.5,0.15625,0.828125
1630588252937,-0.5,0.15625,0.84375
1630588252968,-0.5,0.15625,0.84375
1630588253000,-0.5,0.15625,0.828125
1630588253031,-0.5,0.15625,0.828125
1630588253062,-0.5,0.15625,0.828125
1630588253093,-0.5,0.15625,0.828125
1630588253125,-0.5,0.15625,0.828125
1630588253156,-0.5,0.15625,0.84375
1630588253187,-0.5,0.15625,0.828125
1630588253218,-0.5,0.15625,0.828125
1630588253250,-0.5,0.15625,0.84375
1630588253281,-0.5,0.15625,0.828125
1630588253312,-0.5,0.15625,0.828125
1630588253343,-0.5,0.15625,0.828125
1630588253375,-0.5,0.15625,0.84375
1630588253406,-0.5,0.15625,0.828125
1630588253437,-0.5,0.15625,0.828125
1630588253468,-0.5,0.15625,0.84375
1630588253500,-0.5,0.15625,0.84375
1630588253531,-0.5,0.15625,0.84375
1630588253562,-0.5,0.15625,0.828125
1630588253593,-0.5,0.15625,0.828125
1630588253625,-0.5,0.15625,0.828125
1630588253656,-0.5,0.15625,0.828125
1630588253687,-0.5,0.15625,0.84375
1630588253718,-0.5,0.15625,0.828125
1630588253750,-0.5,0.15625,0.828125
1630588253781,-0.5,0.15625,0.828125
1630588253812,-0.5,0.15625,0.84375
1630588253843,-0.5,0.15625,0.828125
1630588253875,-0.5,0.15625,0.828125
1630588253906,-0.5,0.15625,0.828125
1630588253937,-0.5,0.15625,0.828125
1630588253968,-0.5,0.15625,0.84375
1630588254000,-0.5,0.15625,0.84375
1630588254031,-0.5,0.15625,0.828125
1630588254062,-0.5,0.15625,0.84375
1630588254093,-0.5,0.15625,0.828125
1630588254125,-0.5,0.15625,0.828125
1630588254156,-0.5,0.15625,0.84375
1630588254187,-0.5,0.15625,0.828125
1630588254218,-0.5,0.15625,0.84375
1630588254250,-0.5,0.15625,0.84375
1630588254281,-0.5,0.15625,0.84375
1630588254312,-0.5,0.15625,0.828125
1630588254343,-0.5,0.15625,0.828125
1630588254375,-0.5,0.15625,0.84375
1630588254406,-0.5,0.15625,0.84375
1630588254437,-0.5,0.15625,0.84375
1630588254468,-0.5,0.15625,0.84375
1630588254500,-0.5,0.15625,0.84375
1630588254531,-0.5,0.15625,0.84375
1630588254562,-0.5,0.15625,0.84375
1630588254593,-0.5,0.15625,0.84375
1630588254625,-0.5,0.15625,0.84375
1630588254656,-0.5,0.15625,0.84375
1630588254687,-0.5,0.15625,0.84375
1630588254718,-0.5,0.15625,0.84375
1630588254750,-0.5,0.15625,0.828125
1630588254781,-0.5,0.15625,0.84375
1630588254812,-0.5,0.15625,0.84375
1630588254843,-0.5,0.15625,0.84375
1630588254875,-0.5,0.15625,0.84375
1630588254906,-0.5,0.15625,0.84375
1630588254937,-0.5,0.15625,0.84375
1630588254968,-0.5,0.15625,0.84375
1630588255000,-0.5,0.15625,0.84375
1630588255031,-0.5,0.15625,0.84375
1630588255062,-0.5,0.15625,0.84375
1630588255093,-0.5,0.15625,0.84375
1630588255125,-0.5,0.15625,0.828125
1630588255156,-0.5,0.15625,0.84375
1630588255187,-0.5,0.15625,0.84375
1630588255218,-0.5,0.15625,0.828125
1630588255250,-0.5,0.15625,0.84375
1630588255281,-0.5,0.15625,0.84375
1630588255312,-0.5,0.15625,0.84375
1630588255343,-0.5,0.15625,0.84375
1630588255375,-0.5,0.15625,0.84375
1630588255406,-0.5,0.15625,0.84375
1630588255437,-0.5,0.15625,0.84375
1630588255468,-0.5,0.15625,0.828125
1630588255500,-0.5,0.15625,0.828125
1630588255531,-0.5,0.15625,0.84375
1630588255562,-0.5,0.15625,0.84375
1630588255593,-0.5,0.15625,0.828125
1630588255625,-0.5,0.15625,0.84375
1630588255656,-0.5,0.15625,0.84375
1630588255687,-0.5,0.15625,0.84375
1630588255718,-0.5,0.15625,0.84375
1630588255750,-0.5,0.15625,0.84375
1630588255781,-0.5,0.15625,0.828125
1630588255812,-0.5,0.15625,0.84375
1630588255843,-0.5,0.15625,0.84375
1630588255875,-0.5,0.15625,0.84375
1630588255906,-0.5,0.15625,0.84375
1630588255937,-0.5,0.15625,0.84375
1630588255968,-0.5,0.15625,0.828125
1630588256000,-0.5,0.15625,0.828125
1630588256031,-0.5,0.15625,0.828125
1630588256062,-0.5,0.15625,0.828125
1630588256093,-0.5,0.15625,0.828125
1630588256125,-0.5,0.15625,0.84375
1630588256156,-0.5,0.15625,0.828125
1630588256187,-0.5,0.15625,0.828125
1630588256218,-0.5,0.15625,0.84375
1630588256250,-0.5,0.15625,0.828125
1630588256281,-0.5,0.15625,0.84375
1630588256312,-0.5,0.15625,0.84375
1630588256343,-0.5,0.15625,0.828125
1630588256375,-0.5,0.15625,0.828125
1630588256406,-0.5,0.15625,0.828125
1630588256437,-0.5,0.15625,0.828125
1630588256468,-0.5,0.15625,0.84375
1630588256500,-0.5,0.15625,0.828125
1630588256531,-0.5,0.15625,0.84375
1630588256562,-0.5,0.15625,0.828125
1630588256593,-0.5,0.15625,0.828125
1630588256625,-0.5,0.15625,0.84375
1630588256656,-0.5,0.15625,0.84375
1630588256687,-0.5,0.15625,0.828125
1630588256718,-0.5,0.15625,0.828125
1630588256750,-0.5,0.15625,0.84375
1630588256781,-0.5,0.15625,0.828125
1630588256812,-0.5,0.15625,0.84375
1630588256843,-0.5,0.15625,0.828125
1630588256875,-0.5,0.15625,0.84375
1630588256906,-0.5,0.15625,0.828125
1630588256937,-0.5,0.15625,0.828125
1630588256968,-0.5,0.15625,0.84375
1630588257000,-0.484375,0.15625,0.84375
1630588257031,-0.5,0.15625,0.84375
1630588257062,-0.5,0.15625,0.84375
1630588257093,-0.5,0.15625,0.84375
1630588257125,-0.5,0.15625,0.828125
1630588257156,-0.5,0.15625,0.84375
1630588257187,-0.5,0.15625,0.84375
1630588257218,-0.5,0.15625,0.84375
1630588257250,-0.5,0.15625,0.84375
1630588257281,-0.5,0.15625,0.828125
1630588257312,-0.5,0.15625,0.84375
1630588257343,-0.5,0.15625,0.84375
1630588257375,-0.5,0.15625,0.828125
1630588257406,-0.5,0.15625,0.84375
1630588257437,-0.5,0.15625,0.84375
1630588257468,-0.5,0.15625,0.84375
1630588257500,-0.5,0.15625,0.84375
1630588257531,-0.5,0.15625,0.84375
1630588257562,-0.5,0.15625,0.84375
1630588257593,-0.5,0.15625,0.84375
1630588257625,-0.5,0.15625,0.84375
1630588257656,-0.5,0.15625,0.828125
1630588257687,-0.5,0.15625,0.84375
1630588257718,-0.5,0.15625,0.84375
1630588257750,-0.5,0.15625,0.84375
1630588257781,-0.5,0.15625,0.828125
1630588257812,-0.5,0.15625,0.84375
1630588257843,-0.5,0.15625,0.84375
1630588257875,-0.5,0.15625,0.84375
1630588257906,-0.5,0.15625,0.84375
1630588257937,-0.5,0.15625,0.84375
1630588257968,-0.5,0.15625,0.84375
1630588258000,-0.5,0.15625,0.84375
1630588258031,-0.5,0.15625,0.84375
1630588258062,-0.5,0.15625,0.84375
1630588258093,-0.5,0.15625,0.84375
1630588258125,-0.5,0.15625,0.84375
1630588258156,-0.5,0.15625,0.84375
1630588258187,-0.5,0.15625,0.84375
1630588258218,-0.5,0.15625,0.84375
1630588258250,-0.5,0.15625,0.84375
1630588258281,-0.5,0.15625,0.84375
1630588258312,-0.5,0.15625,0.84375
1630588258343,-0.5,0.15625,0.84375
1630588258375,-0.5,0.15625,0.84375
1630588258406,-0.5,0.15625,0.84375
1630588258437,-0.5,0.15625,0.84375
1630588258468,-0.5,0.15625,0.84375
1630588258500,-0.5,0.15625,0.84375
1630588258531,-0.5,0.15625,0.84375
1630588258562,-0.5,0.15625,0.828125
1630588258593,-0.5,0.15625,0.828125
1630588258625,-0.5,0.15625,0.828125
1630588258656,-0.5,0.15625,0.84375
1630588258687,-0.5,0.15625,0.828125
1630588258718,-0.5,0.15625,0.84375
1630588258750,-0.5,0.15625,0.84375
1630588258781,-0.5,0.15625,0.84375
1630588258812,-0.5,0.15625,0.84375
1630588258843,-0.5,0.15625,0.84375
1630588258875,-0.5,0.15625,0.84375
1630588258906,-0.5,0.15625,0.84375
1630588258937,-0.5,0.15625,0.84375
1630588258968,-0.5,0.15625,0.84375
1630588259000,-0.5,0.15625,0.84375
1630588259031,-0.5,0.15625,0.84375
1630588259062,-0.5,0.15625,0.828125
1630588259093,-0.5,0.15625,0.828125
1630588259125,-0.5,0.15625,0.84375
1630588259156,-0.5,0.15625,0.84375
1630588259187,-0.5,0.15625,0.828125
1630588259218,-0.5,0.15625,0.84375
1630588259250,-0.5,0.15625,0.828125
1630588259281,-0.5,0.15625,0.84375
1630588259312,-0.5,0.15625,0.84375
1630588259343,-0.5,0.15625,0.828125
1630588259375,-0.5,0.15625,0.828125
1630588259406,-0.5,0.15625,0.84375
1630588259437,-0.5,0.15625,0.828125
1630588259468,-0.5,0.15625,0.828125
1630588259500,-0.5,0.15625,0.828125
1630588259531,-0.5,0.15625,0.84375
1630588259562,-0.5,0.15625,0.84375
1630588259593,-0.5,0.15625,0.828125
1630588259625,-0.5,0.15625,0.828125
1630588259656,-0.5,0.15625,0.828125
1630588259687,-0.5,0.15625,0.828125
1630588259718,-0.5,0.15625,0.828125
1630588259750,-0.5,0.15625,0.84375
1630588259781,-0.5,0.15625,0.828125
1630588259812,-0.5,0.15625,0.828125
1630588259843,-0.5,0.15625,0.84375
1630588259875,-0.5,0.15625,0.84375
1630588259906,-0.5,0.15625,0.84375
1630588259937,-0.5,0.15625,0.828125
1630588259968,-0.5,0.15625,0.828125
1630588260000,-0.5,0.15625,0.828125
1630588260031,-0.5,0.171875,0.828125
1630588260062,-0.5,0.15625,0.828125
1630588260093,-0.5,0.15625,0.84375
1630588260125,-0.5,0.15625,0.828125
1630588260156,-0.5,0.15625,0.828125
1630588260187,-0.5,0.15625,0.84375
1630588260218,-0.5,0.15625,0.84375
1630588260250,-0.5,0.15625,0.828125
1630588260281,-0.5,0.15625,0.828125
1630588260312,-0.5,0.15625,0.84375
1630588260343,-0.5,0.15625,0.84375
1630588260375,-0.5,0.15625,0.828125
1630588260406,-0.5,0.15625,0.828125
1630588260437,-0.5,0.15625,0.84375
1630588260468,-0.5,0.15625,0.828125
1630588260500,-0.5,0.15625,0.84375
1630588260531,-0.5,0.15625,0.84375
1630588260562,-0.5,0.15625,0.84375
1630588260593,-0.5,0.15625,0.84375
1630588260625,-0.5,0.15625,0.828125
1630588260656,-0.5,0.15625,0.828125
1630588260687,-0.5,0.15625,0.84375
1630588260718,-0.5,0.15625,0.84375
1630588260750,-0.5,0.15625,0.84375
1630588260781,-0.5,0.15625,0.828125
1630588260812,-0.5,0.15625,0.828125
1630588260843,-0.5,0.15625,0.828125
1630588260875,-0.5,0.15625,0.84375
1630588260906,-0.5,0.15625,0.84375
1630588260937,-0.5,0.15625,0.84375
1630588260968,-0.5,0.15625,0.84375
1630588261000,-0.5,0.15625,0.828125
1630588261031,-0.5,0.15625,0.828125
1630588261062,-0.5,0.15625,0.84375
1630588261093,-0.5,0.15625,0.828125
1630588261125,-0.5,0.15625,0.84375
1630588261156,-0.5,0.15625,0.84375
1630588261187,-0.5,0.15625,0.828125
1630588261218,-0.5,0.15625,0.84375
1630588261250,-0.5,0.15625,0.84375
1630588261281,-0.5,0.15625,0.828125
1630588261312,-0.5,0.15625,0.84375
1630588261343,-0.5,0.15625,0.84375
1630588261375,-0.5,0.15625,0.84375
1630588261406,-0.5,0.15625,0.84375
1630588261437,-0.5,0.15625,0.84375
1630588261468,-0.5,0.15625,0.828125
1630588261500,-0.5,0.15625,0.828125
1630588261531,-0.5,0.15625,0.828125
1630588261562,-0.5,0.15625,0.828125
1630588261593,-0.5,0.15625,0.84375
1630588261625,-0.5,0.15625,0.84375
1630588261656,-0.5,0.15625,0.84375
1630588261687,-0.5,0.15625,0.84375
1630588261718,-0.5,0.15625,0.828125
1630588261750,-0.5,0.15625,0.84375
1630588261781,-0.5,0.15625,0.828125
1630588261812,-0.5,0.15625,0.84375
1630588261843,-0.5,0.15625,0.84375
1630588261875,-0.5,0.15625,0.84375
1630588261906,-0.5,0.15625,0.84375
1630588261937,-0.5,0.15625,0.828125
1630588261968,-0.5,0.15625,0.84375
1630588262000,-0.5,0.15625,0.84375
1630588262031,-0.5,0.15625,0.84375
1630588262062,-0.5,0.15625,0.828125
1630588262093,-0.5,0.15625,0.84375
1630588262125,-0.5,0.15625,0.828125
1630588262156,-0.5,0.15625,0.828125
1630588262187,-0.5,0.15625,0.828125
1630588262218,-0.5,0.15625,0.828125
1630588262250,-0.5,0.15625,0.84375
1630588262281,-0.5,0.15625,0.828125
1630588262312,-0.5,0.15625,0.828125
1630588262343,-0.5,0.15625,0.828125
1630588262375,-0.5,0.15625,0.828125
1630588262406,-0.5,0.15625,0.828125
1630588262437,-0.5,0.15625,0.84375
1630588262468,-0.5,0.15625,0.828125
1630588262500,-0.5,0.15625,0.828125
1630588262531,-0.5,0.15625,0.828125
1630588262562,-0.5,0.15625,0.828125
1630588262593,-0.5,0.15625,0.828125
1630588262625,-0.5,0.15625,0.828125
1630588262656,-0.5,0.15625,0.828125
1630588262687,-0.5,0.15625,0.84375
1630588262718,-0.5,0.15625,0.84375
1630588262750,-0.5,0.15625,0.84375
1630588262781,-0.5,0.15625,0.828125
1630588262812,-0.5,0.15625,0.828125
1630588262843,-0.5,0.15625,0.828125
1630588262875,-0.5,0.15625,0.828125
1630588262906,-0.5,0.15625,0.828125
1630588262937,-0.5,0.15625,0.828125
1630588262968,-0.5,0.15625,0.828125
1630588263000,-0.5,0.15625,0.828125
1630588263031,-0.5,0.15625,0.828125
1630588263062,-0.5,0.15625,0.828125
1630588263093,-0.5,0.15625,0.828125
1630588263125,-0.5,0.15625,0.84375
1630588263156,-0.5,0.15625,0.828125
1630588263187,-0.5,0.15625,0.828125
1630588263218,-0.5,0.15625,0.84375
1630588263250,-0.5,0.15625,0.828125
1630588263281,-0.5,0.15625,0.828125
1630588263312,-0.5,0.15625,0.84375
1630588263343,-0.5,0.15625,0.828125
1630588263375,-0.5,0.15625,0.828125
1630588263406,-0.5,0.15625,0.828125
1630588263437,-0.5,0.15625,0.84375
1630588263468,-0.5,0.15625,0.84375
1630588263500,-0.5,0.15625,0.84375
1630588263531,-0.5,0.15625,0.84375
1630588263562,-0.5,0.15625,0.84375
1630588263593,-0.5,0.15625,0.84375
1630588263625,-0.5,0.15625,0.84375
1630588263656,-0.5,0.15625,0.84375
1630588263687,-0.5,0.15625,0.84375
1630588263718,-0.5,0.15625,0.84375
1630588263750,-0.5,0.15625,0.84375
1630588263781,-0.5,0.15625,0.84375
1630588263812,-0.5,0.15625,0.84375
1630588263843,-0.5,0.15625,0.84375
1630588263875,-0.5,0.15625,0.84375
1630588263906,-0.5,0.15625,0.84375
1630588263937,-0.5,0.15625,0.828125
1630588263968,-0.5,0.15625,0.84375
1630588264000,-0.5,0.15625,0.84375
1630588264031,-0.5,0.15625,0.828125
1630588264062,-0.5,0.15625,0.84375
1630588264093,-0.5,0.15625,0.84375
1630588264125,-0.5,0.15625,0.84375
1630588264156,-0.5,0.15625,0.828125
1630588264187,-0.5,0.15625,0.84375
1630588264218,-0.5,0.15625,0.84375
1630588264250,-0.5,0.15625,0.84375
1630588264281,-0.5,0.15625,0.84375
1630588264312,-0.5,0.15625,0.828125
1630588264343,-0.5,0.15625,0.828125
1630588264375,-0.5,0.15625,0.84375
1630588264406,-0.5,0.15625,0.84375
1630588264437,-0.5,0.15625,0.828125
1630588264468,-0.5,0.15625,0.84375
1630588264500,-0.5,0.15625,0.84375
1630588264531,-0.5,0.15625,0.84375
1630588264562,-0.5,0.15625,0.828125
1630588264593,-0.5,0.15625,0.828125
1630588264625,-0.5,0.15625,0.828125
1630588264656,-0.5,0.15625,0.828125
1630588264687,-0.5,0.15625,0.84375
1630588264718,-0.5,0.15625,0.84375
1630588264750,-0.5,0.15625,0.828125
1630588264781,-0.5,0.15625,0.84375
1630588264812,-0.5,0.15625,0.828125
1630588264843,-0.5,0.15625,0.84375
1630588264875,-0.5,0.15625,0.84375
1630588264906,-0.5,0.15625,0.84375
1630588264937,-0.5,0.15625,0.84375
1630588264968,-0.5,0.15625,0.84375
1630588265000,-0.5,0.15625,0.84375
1630588265031,-0.5,0.15625,0.84375
1630588265062,-0.5,0.15625,0.828125
1630588265093,-0.5,0.15625,0.828125
1630588265125,-0.5,0.15625,0.84375
1630588265156,-0.5,0.15625,0.828125
1630588265187,-0.5,0.15625,0.84375
1630588265218,-0.5,0.15625,0.828125
1630588265250,-0.5,0.15625,0.828125
1630588265281,-0.5,0.15625,0.828125
1630588265312,-0.5,0.15625,0.84375
1630588265343,-0.5,0.15625,0.84375
1630588265375,-0.5,0.15625,0.828125
1630588265406,-0.5,0.15625,0.828125
1630588265437,-0.5,0.15625,0.84375
1630588265468,-0.5,0.15625,0.84375
1630588265500,-0.5,0.15625,0.828125
1630588265531,-0.5,0.15625,0.828125
1630588265562,-0.5,0.15625,0.828125
1630588265593,-0.5,0.15625,0.828125
1630588265625,-0.5,0.15625,0.84375
1630588265656,-0.5,0.15625,0.828125
1630588265687,-0.5,0.15625,0.828125
1630588265718,-0.5,0.15625,0.828125
1630588265750,-0.5,0.15625,0.84375
1630588265781,-0.5,0.15625,0.84375
1630588265812,-0.5,0.15625,0.84375
1630588265843,-0.5,0.15625,0.828125
1630588265875,-0.5,0.15625,0.828125
1630588265906,-0.5,0.15625,0.84375
1630588265937,-0.5,0.15625,0.84375
1630588265968,-0.5,0.15625,0.84375
1630588266000,-0.5,0.15625,0.828125
1630588266031,-0.5,0.15625,0.828125
1630588266062,-0.5,0.15625,0.828125
1630588266093,-0.5,0.15625,0.828125
1630588266125,-0.5,0.15625,0.84375
1630588266156,-0.5,0.15625,0.828125
1630588266187,-0.5,0.15625,0.84375
1630588266218,-0.5,0.15625,0.84375
1630588266250,-0.5,0.15625,0.84375
1630588266281,-0.5,0.15625,0.84375
1630588266312,-0.5,0.15625,0.84375
1630588266343,-0.5,0.15625,0.84375
1630588266375,-0.5,0.15625,0.84375
1630588266406,-0.5,0.15625,0.828125
1630588266437,-0.5,0.15625,0.828125
1630588266468,-0.5,0.15625,0.84375
1630588266500,-0.5,0.15625,0.84375
1630588266531,-0.5,0.15625,0.84375
1630588266562,-0.5,0.15625,0.84375
1630588266593,-0.5,0.15625,0.84375
1630588266625,-0.5,0.15625,0.828125
1630588266656,-0.5,0.15625,0.828125
1630588266687,-0.5,0.15625,0.84375
1630588266718,-0.5,0.15625,0.84375
