timestamp,ax,ay,az
1631632613000,0.796875,-0.375,0.484375
1631632613031,0.796875,-0.375,0.484375
1631632613062,0.8125,-0.375,0.484375
1631632613093,0.796875,-0.375,0.484375
1631632613125,0.796875,-0.375,0.484375
1631632613156,0.796875,-0.375,0.46875
1631632613187,0.8125,-0.375,0.484375
1631632613218,0.796875,-0.375,0.46875
1631632613250,0.796875,-0.375,0.484375
1631632613281,0.796875,-0.375,0.484375
1631632613312,0.796875,-0.375,0.484375
1631632613343,0.796875,-0.375,0.484375
1631632613375,0.796875,-0.375,0.46875
1631632613406,0.796875,-0.375,0.484375
1631632613437,0.796875,-0.375,0.484375
1631632613468,0.796875,-0.375,0.484375
1631632613500,0.796875,-0.375,0.484375
1631632613531,0.796875,-0.375,0.484375
1631632613562,0.796875,-0.375,0.484375
1631632613593,0.796875,-0.375,0.484375
1631632613625,0.796875,-0.375,0.484375
1631632613656,0.796875,-0.375,0.46875
1631632613687,0.796875,-0.375,0.484375
1631632613718,0.796875,-0.375,0.484375
1631632613750,0.796875,-0.375,0.484375
1631632613781,0.796875,-0.375,0.484375
1631632613812,0.796875,-0.375,0.484375
1631632613843,0.796875,-0.375,0.484375
1631632613875,0.796875,-0.375,0.484375
1631632613906,0.796875,-0.359375,0.484375
1631632613937,0.796875,-0.375,0.484375
1631632613968,0.796875,-0.375,0.484375
1631632614000,0.796875,-0.375,0.484375
1631632614031,0.796875,-0.375,0.484375
1631632614062,0.796875,-0.375,0.484375
1631632614093,0.796875,-0.375,0.484375
1631632614125,0.796875,-0.375,0.484375
1631632614156,0.796875,-0.359375,0.484375
1631632614187,0.796875,-0.359375,0.484375
1631632614218,0.796875,-0.375,0.484375
1631632614250,0.796875,-0.375,0.484375
1631632614281,0.796875,-0.375,0.484375
1631632614312,0.796875,-0.375,0.484375
1631632614343,0.796875,-0.375,0.484375
1631632614375,0.796875,-0.375,0.484375
1631632614406,0.796875,-0.375,0.484375
1631632614437,0.796875,-0.359375,0.484375
1631632614468,0.796875,-0.375,0.484375
1631632614500,0.8125,-0.359375,0.484375
1631632614531,0.796875,-0.375,0.484375
1631632614562,0.796875,-0.359375,0.484375
1631632614593,0.8125,-0.359375,0.46875
1631632614625,0.796875,-0.359375,0.46875
1631632614656,0.8125,-0.359375,0.484375
1631632614687,0.8125,-0.359375,0.46875
1631632614718,0.828125,-0.359375,0.484375
1631632614750,0.8125,-0.359375,0.5
1631632614781,0.84375,-0.359375,0.484375
1631632614812,0.84375,-0.375,0.484375
1631632614843,0.890625,-0.359375,0.5
1631632614875,0.9375,-0.359375,0.53125
1631632614906,0.9375,-0.296875,0.53125
1631632614937,0.984375,-0.25,0.625
1631632614968,0.96875,-0.234375,0.625
1631632615000,0.9375,-0.15625,0.625
1631632615031,1.0,-0.109375,0.625
1631632615062,0.9375,-0.0625,0.5625
1631632615093,0.921875,0.03125,0.515625
1631632615125,1.03125,0.09375,0.484375
1631632615156,0.953125,0.1875,0.421875
1631632615187,0.890625,0.234375,0.390625
1631632615218,1.0,0.375,0.265625
1631632615250,1.234375,0.46875,0.046875
1631632615281,1.21875,0.515625,-0.125
1631632615312,0.96875,0.609375,-0.234375
1631632615343,0.859375,0.75,-0.1875
1631632615375,0.890625,0.65625,-0.078125
1631632615406,0.71875,0.5,-0.03125
1631632615437,0.46875,0.484375,-0.0625
1631632615468,0.328125,0.609375,-0.109375
1631632615500,0.171875,0.640625,-0.109375
1631632615531,0.21875,0.65625,-0.09375
1631632615562,0.25,0.765625,-0.015625
1631632615593,0.28125,0.75,0.0625
1631632615625,0.296875,0.84375,0.109375
1631632615656,0.328125,0.84375,0.21875
1631632615687,0.328125,0.890625,0.234375
1631632615718,0.28125,0.984375,0.171875
1631632615750,0.25,0.984375,0.171875
1631632615781,0.265625,0.96875,0.140625
1631632615812,0.234375,1.0,0.09375
1631632615843,0.21875,0.953125,0.1875
1631632615875,0.265625,0.921875,0.296875
1631632615906,0.25,0.90625,0.265625
1631632615937,0.21875,0.90625,0.265625
1631632615968,0.296875,0.921875,0.28125
1631632616000,0.28125,0.921875,0.28125
1631632616031,0.25,0.9375,0.234375
1631632616062,0.25,0.921875,0.28125
1631632616093,0.265625,0.921875,0.3125
1631632616125,0.234375,0.890625,0.296875
1631632616156,0.234375,0.90625,0.3125
1631632616187,0.203125,0.890625,0.3125
1631632616218,0.1875,0.84375,0.328125
1631632616250,0.21875,0.84375,0.34375
1631632616281,0.234375,0.90625,0.28125
1631632616312,0.234375,0.90625,0.265625
1631632616343,0.3125,0.9375,0.3125
1631632616375,0.28125,0.96875,0.296875
1631632616406,0.265625,0.953125,0.328125
1631632616437,0.296875,0.9375,0.34375
1631632616468,0.296875,0.9375,0.328125
1631632616500,0.28125,0.90625,0.34375
1631632616531,0.265625,0.921875,0.3125
1631632616562,0.28125,0.921875,0.3125
1631632616593,0.265625,0.90625,0.328125
1631632616625,0.25,0.90625,0.328125
1631632616656,0.203125,0.90625,0.3125
1631632616687,0.203125,0.90625,0.390625
1631632616718,0.1875,0.875,0.40625
1631632616750,0.234375,0.921875,0.375
1631632616781,0.25,0.921875,0.359375
1631632616812,0.234375,0.875,0.359375
1631632616843,0.125,0.859375,0.421875
1631632616875,0.140625,0.84375,0.4375
1631632616906,0.125,0.875,0.46875
1631632616937,0.109375,0.890625,0.390625
1631632616968,0.109375,0.921875,0.390625
1631632617000,0.109375,0.90625,0.390625
1631632617031,0.078125,0.90625,0.40625
1631632617062,0.078125,0.90625,0.4375
1631632617093,0.03125,0.875,0.40625
1631632617125,0.078125,0.859375,0.40625
1631632617156,0.234375,0.84375,0.40625
1631632617187,0.203125,0.859375,0.375
1631632617218,0.15625,0.875,0.3125
1631632617250,0.171875,0.875,0.3125
1631632617281,0.1875,0.875,0.28125
1631632617312,0.203125,0.90625,0.265625
1631632617343,0.21875,0.890625,0.265625
1631632617375,0.234375,0.875,0.25
1631632617406,0.28125,0.890625,0.25
1631632617437,0.3125,0.875,0.25
1631632617468,0.34375,0.84375,0.203125
1631632617500,0.390625,0.84375,0.25
1631632617531,0.390625,0.828125,0.234375
1631632617562,0.40625,0.765625,0.125
1631632617593,0.421875,0.734375,0.125
1631632617625,0.46875,0.65625,0.265625
1631632617656,0.59375,0.609375,0.265625
1631632617687,0.59375,0.59375,0.171875
1631632617718,0.515625,0.5625,0.109375
1631632617750,0.578125,0.53125,0.15625
1631632617781,0.796875,0.4375,0.0625
1631632617812,0.796875,0.453125,0.046875
1631632617843,1.046875,0.421875,0.078125
1631632617875,1.171875,0.3125,0.078125
1631632617906,1.125,0.3125,0.03125
1631632617937,1.234375,0.1875,0.109375
1631632617968,1.09375,0.0625,0.265625
1631632618000,1.078125,0.015625,0.265625
1631632618031,1.03125,-0.15625,0.3125
1631632618062,0.828125,-0.28125,0.28125
1631632618093,0.75,-0.296875,0.265625
1631632618125,0.859375,-0.40625,0.265625
1631632618156,1.25,-0.5625,0.5625
1631632618187,1.203125,-0.484375,0.84375
1631632618218,0.6875,-0.359375,0.15625
1631632618250,0.6875,-0.28125,0.109375
1631632618281,1.0625,-0.140625,0.375
1631632618312,0.921875,-0.234375,0.359375
1631632618343,1.078125,-0.28125,0.515625
1631632618375,0.765625,-0.171875,0.421875
1631632618406,0.828125,-0.28125,0.4375
1631632618437,0.796875,-0.28125,0.40625
1631632618468,0.859375,-0.234375,0.421875
1631632618500,0.875,-0.234375,0.453125
1631632618531,0.859375,-0.25,0.46875
1631632618562,0.765625,-0.265625,0.546875
1631632618593,0.84375,-0.40625,0.609375
1631632618625,0.671875,-0.390625,0.515625
1631632618656,0.765625,-0.296875,0.609375
1631632618687,0.8125,-0.28125,0.609375
1631632618718,0.734375,-0.296875,0.578125
1631632618750,0.734375,-0.375,0.5625
1631632618781,0.78125,-0.3125,0.609375
1631632618812,0.6875,-0.359375,0.578125
1631632618843,0.640625,-0.484375,0.5625
1631632618875,0.703125,-0.390625,0.609375
1631632618906,0.734375,-0.34375,0.671875
1631632618937,0.640625,-0.34375,0.625
1631632618968,0.671875,-0.34375,0.625
1631632619000,0.703125,-0.34375,0.625
1631632619031,0.703125,-0.328125,0.625
1631632619062,0.71875,-0.328125,0.625
1631632619093,0.71875,-0.3125,0.609375
1631632619125,0.71875,-0.3125,0.625
1631632619156,0.703125,-0.3125,0.625
1631632619187,0.703125,-0.328125,0.625
1631632619218,0.734375,-0.328125,0.625
1631632619250,0.71875,-0.328125,0.625
1631632619281,0.71875,-0.328125,0.625
1631632619312,0.734375,-0.328125,0.609375
1631632619343,0.71875,-0.328125,0.609375
1631632619375,0.71875,-0.3125,0.609375
1631632619406,0.71875,-0.3125,0.625
1631632619437,0.71875,-0.3125,0.609375
1631632619468,0.734375,-0.3125,0.609375
1631632619500,0.734375,-0.3125,0.609375
1631632619531,0.71875,-0.3125,0.609375
1631632619562,0.71875,-0.3125,0.609375
1631632619593,0.71875,-0.3125,0.609375
1631632619625,0.71875,-0.3125,0.625
1631632619656,0.703125,-0.3125,0.609375
1631632619687,0.71875,-0.3125,0.609375
1631632619718,0.765625,-0.3125,0.59375
1631632619750,0.765625,-0.3125,0.59375
1631632619781,0.71875,-0.3125,0.59375
1631632619812,0.734375,-0.3125,0.59375
1631632619843,0.75,-0.3125,0.59375
1631632619875,0.734375,-0.3125,0.609375
1631632619906,0.734375,-0.3125,0.609375
1631632619937,0.734375,-0.3125,0.609375
1631632619968,0.734375,-0.3125,0.59375
1631632620000,0.734375,-0.3125,0.59375
1631632620031,0.734375,-0.3125,0.59375
1631632620062,0.734375,-0.3125,0.59375
1631632620093,0.734375,-0.3125,0.609375
1631632620125,0.734375,-0.3125,0.59375
1631632620156,0.734375,-0.3125,0.609375
1631632620187,0.734375,-0.3125,0.59375
1631632620218,0.734375,-0.3125,0.609375
1631632620250,0.734375,-0.3125,0.609375
1631632620281,0.734375,-0.296875,0.59375
1631632620312,0.734375,-0.3125,0.609375
1631632620343,0.734375,-0.3125,0.59375
1631632620375,0.734375,-0.3125,0.609375
1631632620406,0.734375,-0.3125,0.609375
1631632620437,0.734375,-0.3125,0.609375
1631632620468,0.734375,-0.3125,0.609375
1631632620500,0.734375,-0.3125,0.609375
1631632620531,0.734375,-0.3125,0.609375
1631632620562,0.734375,-0.3125,0.609375
1631632620593,0.75,-0.3125,0.609375
1631632620625,0.734375,-0.296875,0.609375
1631632620656,0.734375,-0.296875,0.59375
1631632620687,0.734375,-0.296875,0.59375
1631632620718,0.734375,-0.296875,0.609375
1631632620750,0.734375,-0.296875,0.609375
1631632620781,0.75,-0.296875,0.609375
1631632620812,0.734375,-0.3125,0.609375
1631632620843,0.734375,-0.296875,0.609375
1631632620875,0.734375,-0.296875,0.609375
1631632620906,0.734375,-0.296875,0.609375
1631632620937,0.734375,-0.296875,0.609375
1631632620968,0.734375,-0.296875,0.609375
1631632621000,0.734375,-0.296875,0.609375
1631632621031,0.734375,-0.296875,0.609375
1631632621062,0.734375,-0.296875,0.609375
1631632621093,0.734375,-0.296875,0.609375
1631632621125,0.734375,-0.296875,0.609375
1631632621156,0.734375,-0.296875,0.609375
1631632621187,0.734375,-0.296875,0.625
1631632621218,0.734375,-0.296875,0.609375
1631632621250,0.734375,-0.296875,0.609375
1631632621281,0.734375,-0.296875,0.625
1631632621312,0.734375,-0.3125,0.609375
1631632621343,0.734375,-0.3125,0.609375
1631632621375,0.734375,-0.296875,0.609375
1631632621406,0.734375,-0.296875,0.609375
1631632621437,0.734375,-0.296875,0.609375
1631632621468,0.734375,-0.296875,0.609375
1631632621500,0.734375,-0.296875,0.625
1631632621531,0.71875,-0.296875,0.625
1631632621562,0.71875,-0.296875,0.625
1631632621593,0.71875,-0.296875,0.609375
1631632621625,0.734375,-0.296875,0.625
1631632621656,0.734375,-0.296875,0.609375
1631632621687,0.734375,-0.296875,0.609375
1631632621718,0.734375,-0.296875,0.609375
1631632621750,0.734375,-0.296875,0.625
1631632621781,0.734375,-0.296875,0.609375
1631632621812,0.734375,-0.296875,0.609375
1631632621843,0.734375,-0.296875,0.609375
1631632621875,0.734375,-0.296875,0.609375
1631632621906,0.734375,-0.296875,0.609375
1631632621937,0.734375,-0.296875,0.609375
1631632621968,0.734375,-0.296875,0.609375
1631632622000,0.734375,-0.296875,0.609375
1631632622031,0.734375,-0.296875,0.625
1631632622062,0.734375,-0.296875,0.609375
1631632622093,0.734375,-0.296875,0.609375
1631632622125,0.734375,-0.296875,0.609375
1631632622156,0.734375,-0.296875,0.609375
1631632622187,0.734375,-0.296875,0.625
1631632622218,0.734375,-0.296875,0.609375
1631632622250,0.734375,-0.296875,0.609375
1631632622281,0.734375,-0.296875,0.609375
1631632622312,0.734375,-0.296875,0.609375
1631632622343,0.734375,-0.296875,0.609375
1631632622375,0.734375,-0.296875,0.609375
1631632622406,0.734375,-0.296875,0.609375
1631632622437,0.734375,-0.296875,0.609375
1631632622468,0.734375,-0.296875,0.609375
1631632622500,0.734375,-0.296875,0.609375
1631632622531,0.734375,-0.3125,0.609375
1631632622562,0.734375,-0.296875,0.609375
1631632622593,0.734375,-0.296875,0.609375
1631632622625,0.734375,-0.296875,0.609375
1631632622656,0.734375,-0.296875,0.609375
1631632622687,0.71875,-0.296875,0.625
1631632622718,0.734375,-0.296875,0.625
1631632622750,0.734375,-0.296875,0.609375
1631632622781,0.734375,-0.296875,0.609375
1631632622812,0.734375,-0.296875,0.625
1631632622843,0.734375,-0.296875,0.625
1631632622875,0.734375,-0.296875,0.625
1631632622906,0.734375,-0.296875,0.609375
1631632622937,0.734375,-0.296875,0.625
1631632622968,0.734375,-0.296875,0.625
1631632623000,0.734375,-0.296875,0.625
1631632623031,0.71875,-0.3125,0.625
1631632623062,0.71875,-0.296875,0.625
1631632623093,0.734375,-0.296875,0.609375
1631632623125,0.734375,-0.296875,0.609375
1631632623156,0.734375,-0.296875,0.625
1631632623187,0.734375,-0.296875,0.625
1631632623218,0.734375,-0.296875,0.609375
1631632623250,0.71875,-0.296875,0.625
1631632623281,0.734375,-0.296875,0.625
1631632623312,0.734375,-0.296875,0.625
1631632623343,0.71875,-0.296875,0.609375
1631632623375,0.734375,-0.296875,0.625
1631632623406,0.71875,-0.296875,0.625
1631632623437,0.71875,-0.296875,0.609375
1631632623468,0.734375,-0.296875,0.609375
1631632623500,0.734375,-0.296875,0.625
1631632623531,0.734375,-0.296875,0.609375
1631632623562,0.71875,-0.296875,0.625
1631632623593,0.71875,-0.296875,0.625
1631632623625,0.734375,-0.296875,0.625
1631632623656,0.71875,-0.296875,0.609375
1631632623687,0.734375,-0.296875,0.625
1631632623718,0.71875,-0.296875,0.625
1631632623750,0.71875,-0.296875,0.609375
1631632623781,0.734375,-0.296875,0.625
1631632623812,0.734375,-0.3125,0.625
1631632623843,0.71875,-0.296875,0.625
1631632623875,0.734375,-0.296875,0.625
1631632623906,0.71875,-0.296875,0.625
1631632623937,0.71875,-0.296875,0.625
1631632623968,0.71875,-0.296875,0.625
1631632624000,0.703125,-0.296875,0.625
1631632624031,0.71875,-0.296875,0.625
1631632624062,0.71875,-0.296875,0.625
1631632624093,0.71875,-0.296875,0.625
1631632624125,0.71875,-0.296875,0.625
1631632624156,0.71875,-0.296875,0.625
1631632624187,0.71875,-0.296875,0.625
1631632624218,0.71875,-0.296875,0.625
1631632624250,0.71875,-0.296875,0.640625
1631632624281,0.71875,-0.296875,0.625
1631632624312,0.71875,-0.296875,0.625
1631632624343,0.734375,-0.296875,0.640625
1631632624375,0.703125,-0.296875,0.625
1631632624406,0.71875,-0.296875,0.640625
1631632624437,0.71875,-0.296875,0.640625
1631632624468,0.703125,-0.296875,0.640625
1631632624500,0.703125,-0.296875,0.625
1631632624531,0.71875,-0.296875,0.625
1631632624562,0.71875,-0.296875,0.625
1631632624593,0.71875,-0.296875,0.640625
1631632624625,0.71875,-0.296875,0.640625
1631632624656,0.71875,-0.296875,0.625
1631632624687,0.703125,-0.296875,0.640625
1631632624718,0.703125,-0.296875,0.640625
1631632624750,0.71875,-0.296875,0.625
1631632624781,0.71875,-0.296875,0.640625
1631632624812,0.71875,-0.296875,0.640625
1631632624843,0.703125,-0.296875,0.640625
1631632624875,0.71875,-0.296875,0.640625
1631632624906,0.703125,-0.296875,0.640625
1631632624937,0.71875,-0.296875,0.640625
1631632624968,0.703125,-0.296875,0.640625
1631632625000,0.71875,-0.296875,0.640625
1631632625031,0.71875,-0.296875,0.640625
1631632625062,0.703125,-0.296875,0.640625
1631632625093,0.71875,-0.296875,0.640625
1631632625125,0.71875,-0.296875,0.640625
1631632625156,0.71875,-0.296875,0.640625
1631632625187,0.703125,-0.296875,0.640625
1631632625218,0.71875,-0.296875,0.640625
1631632625250,0.71875,-0.296875,0.640625
1631632625281,0.71875,-0.296875,0.640625
1631632625312,0.703125,-0.296875,0.640625
1631632625343,0.71875,-0.296875,0.640625
1631632625375,0.703125,-0.296875,0.640625
1631632625406,0.71875,-0.296875,0.640625
1631632625437,0.71875,-0.296875,0.640625
1631632625468,0.71875,-0.296875,0.640625
1631632625500,0.703125,-0.296875,0.640625
1631632625531,0.703125,-0.296875,0.640625
1631632625562,0.71875,-0.296875,0.640625
1631632625593,0.703125,-0.296875,0.640625
1631632625625,0.703125,-0.296875,0.640625
1631632625656,0.703125,-0.296875,0.640625
1631632625687,0.703125,-0.296875,0.640625
1631632625718,0.71875,-0.296875,0.640625
1631632625750,0.71875,-0.296875,0.640625
1631632625781,0.703125,-0.296875,0.640625
1631632625812,0.703125,-0.3125,0.640625
1631632625843,0.703125,-0.296875,0.640625
1631632625875,0.703125,-0.296875,0.640625
1631632625906,0.703125,-0.296875,0.640625
1631632625937,0.703125,-0.296875,0.640625
1631632625968,0.703125,-0.296875,0.640625
1631632626000,0.703125,-0.296875,0.640625
1631632626031,0.703125,-0.296875,0.640625
1631632626062,0.71875,-0.296875,0.640625
1631632626093,0.703125,-0.296875,0.640625
1631632626125,0.703125,-0.296875,0.65625
1631632626156,0.703125,-0.296875,0.640625
1631632626187,0.703125,-0.296875,0.65625
1631632626218,0.703125,-0.296875,0.65625
1631632626250,0.703125,-0.296875,0.640625
1631632626281,0.703125,-0.296875,0.640625
1631632626312,0.703125,-0.296875,0.65625
1631632626343,0.703125,-0.296875,0.65625
1631632626375,0.703125,-0.296875,0.65625
1631632626406,0.703125,-0.296875,0.65625
1631632626437,0.703125,-0.28125,0.640625
1631632626468,0.703125,-0.28125,0.65625
1631632626500,0.703125,-0.296875,0.65625
1631632626531,0.703125,-0.28125,0.65625
1631632626562,0.703125,-0.28125,0.65625
1631632626593,0.703125,-0.28125,0.65625
1631632626625,0.703125,-0.296875,0.65625
1631632626656,0.703125,-0.296875,0.640625
1631632626687,0.703125,-0.296875,0.65625
1631632626718,0.703125,-0.296875,0.640625
1631632626750,0.703125,-0.296875,0.640625
1631632626781,0.703125,-0.296875,0.640625
1631632626812,0.703125,-0.296875,0.640625
1631632626843,0.703125,-0.296875,0.65625
1631632626875,0.703125,-0.296875,0.65625
1631632626906,0.703125,-0.296875,0.640625
1631632626937,0.703125,-0.296875,0.65625
1631632626968,0.703125,-0.296875,0.65625
1631632627000,0.703125,-0.296875,0.65625
1631632627031,0.703125,-0.296875,0.640625
1631632627062,0.703125,-0.296875,0.640625
1631632627093,0.703125,-0.296875,0.640625
1631632627125,0.703125,-0.296875,0.640625
1631632627156,0.703125,-0.296875,0.640625
1631632627187,0.703125,-0.296875,0.640625
1631632627218,0.703125,-0.296875,0.640625
1631632627250,0.703125,-0.28125,0.65625
1631632627281,0.703125,-0.28125,0.65625
1631632627312,0.703125,-0.296875,0.65625
1631632627343,0.703125,-0.296875,0.640625
1631632627375,0.703125,-0.296875,0.640625
1631632627406,0.703125,-0.28125,0.640625
1631632627437,0.703125,-0.296875,0.640625
1631632627468,0.703125,-0.296875,0.640625
1631632627500,0.703125,-0.28125,0.640625
1631632627531,0.703125,-0.296875,0.65625
1631632627562,0.703125,-0.296875,0.640625
1631632627593,0.703125,-0.296875,0.65625
1631632627625,0.703125,-0.296875,0.640625
1631632627656,0.703125,-0.296875,0.640625
1631632627687,0.703125,-0.296875,0.640625
1631632627718,0.703125,-0.296875,0.640625
1631632627750,0.703125,-0.296875,0.640625
1631632627781,0.703125,-0.296875,0.640625
1631632627812,0.703125,-0.296875,0.640625
1631632627843,0.703125,-0.296875,0.65625
1631632627875,0.703125,-0.296875,0.65625
1631632627906,0.703125,-0.28125,0.640625
1631632627937,0.703125,-0.296875,0.640625
1631632627968,0.703125,-0.28125,0.640625
1631632628000,0.703125,-0.296875,0.640625
1631632628031,0.703125,-0.296875,0.65625
1631632628062,0.703125,-0.296875,0.640625
1631632628093,0.703125,-0.296875,0.640625
1631632628125,0.703125,-0.296875,0.640625
1631632628156,0.703125,-0.296875,0.640625
1631632628187,0.703125,-0.296875,0.65625
1631632628218,0.703125,-0.296875,0.65625
1631632628250,0.703125,-0.28125,0.65625
1631632628281,0.703125,-0.296875,0.640625
1631632628312,0.703125,-0.296875,0.65625
1631632628343,0.703125,-0.296875,0.640625
1631632628375,0.703125,-0.296875,0.65625
1631632628406,0.703125,-0.296875,0.65625
1631632628437,0.703125,-0.296875,0.65625
1631632628468,0.703125,-0.296875,0.65625
1631632628500,0.703125,-0.296875,0.65625
1631632628531,0.703125,-0.296875,0.65625
1631632628562,0.703125,-0.296875,0.65625
1631632628593,0.703125,-0.28125,0.65625
1631632628625,0.703125,-0.296875,0.640625
1631632628656,0.703125,-0.296875,0.640625
1631632628687,0.703125,-0.296875,0.65625
1631632628718,0.703125,-0.296875,0.640625
1631632628750,0.703125,-0.296875,0.65625
1631632628781,0.703125,-0.296875,0.65625
1631632628812,0.703125,-0.296875,0.65625
1631632628843,0.703125,-0.296875,0.65625
1631632628875,0.703125,-0.296875,0.65625
1631632628906,0.703125,-0.296875,0.640625
1631632628937,0.703125,-0.296875,0.65625
1631632628968,0.703125,-0.296875,0.640625
1631632629000,0.703125,-0.28125,0.65625
1631632629031,0.703125,-0.296875,0.65625
1631632629062,0.703125,-0.296875,0.640625
1631632629093,0.703125,-0.296875,0.65625
1631632629125,0.703125,-0.296875,0.65625
1631632629156,0.703125,-0.296875,0.65625
1631632629187,0.703125,-0.296875,0.640625
1631632629218,0.703125,-0.296875,0.65625
1631632629250,0.703125,-0.296875,0.65625
1631632629281,0.703125,-0.296875,0.65625
1631632629312,0.703125,-0.296875,0.65625
1631632629343,0.703125,-0.296875,0.65625
1631632629375,0.703125,-0.296875,0.65625
1631632629406,0.703125,-0.28125,0.65625
1631632629437,0.703125,-0.296875,0.65625
1631632629468,0.703125,-0.296875,0.65625
1631632629500,0.703125,-0.296875,0.65625
1631632629531,0.703125,-0.296875,0.65625
1631632629562,0.703125,-0.296875,0.65625
1631632629593,0.703125,-0.296875,0.65625
1631632629625,0.703125,-0.296875,0.65625
1631632629656,0.703125,-0.296875,0.65625
1631632629687,0.703125,-0.296875,0.65625
1631632629718,0.703125,-0.296875,0.65625
1631632629750,0.703125,-0.296875,0.65625
1631632629781,0.703125,-0.296875,0.65625
1631632629812,0.703125,-0.28125,0.65625
1631632629843,0.703125,-0.296875,0.65625
1631632629875,0.703125,-0.296875,0.65625
1631632629906,0.703125,-0.28125,0.65625
1631632629937,0.703125,-0.296875,0.640625
1631632629968,0.703125,-0.296875,0.65625
1631632630000,0.703125,-0.296875,0.640625
1631632630031,0.703125,-0.28125,0.65625
1631632630062,0.703125,-0.296875,0.640625
1631632630093,0.703125,-0.296875,0.640625
1631632630125,0.703125,-0.296875,0.65625
1631632630156,0.703125,-0.296875,0.640625
1631632630187,0.703125,-0.296875,0.65625
1631632630218,0.703125,-0.296875,0.65625
1631632630250,0.703125,-0.296875,0.65625
1631632630281,0.703125,-0.296875,0.65625
1631632630312,0.703125,-0.296875,0.640625
1631632630343,0.703125,-0.296875,0.65625
1631632630375,0.703125,-0.296875,0.640625
1631632630406,0.703125,-0.296875,0.640625
1631632630437,0.703125,-0.296875,0.640625
1631632630468,0.703125,-0.296875,0.65625
1631632630500,0.703125,-0.296875,0.640625
1631632630531,0.703125,-0.296875,0.640625
1631632630562,0.703125,-0.296875,0.640625
1631632630593,0.703125,-0.296875,0.640625
1631632630625,0.703125,-0.296875,0.65625
1631632630656,0.703125,-0.296875,0.640625
1631632630687,0.703125,-0.296875,0.640625
1631632630718,0.703125,-0.296875,0.640625
1631632630750,0.703125,-0.296875,0.640625
1631632630781,0.703125,-0.296875,0.640625
1631632630812,0.703125,-0.296875,0.65625
1631632630843,0.703125,-0.296875,0.65625
1631632630875,0.703125,-0.296875,0.65625
1631632630906,0.703125,-0.296875,0.65625
1631632630937,0.703125,-0.296875,0.640625
1631632630968,0.703125,-0.296875,0.65625
1631632631000,0.703125,-0.296875,0.65625
1631632631031,0.703125,-0.296875,0.640625
1631632631062,0.703125,-0.296875,0.640625
1631632631093,0.703125,-0.296875,0.640625
1631632631125,0.703125,-0.296875,0.640625
1631632631156,0.703125,-0.296875,0.65625
1631632631187,0.703125,-0.296875,0.640625
1631632631218,0.703125,-0.296875,0.65625
1631632631250,0.703125,-0.296875,0.65625
1631632631281,0.703125,-0.296875,0.65625
1631632631312,0.703125,-0.28125,0.65625
1631632631343,0.703125,-0.296875,0.65625
1631632631375,0.703125,-0.296875,0.65625
1631632631406,0.703125,-0.296875,0.640625
1631632631437,0.703125,-0.296875,0.65625
1631632631468,0.703125,-0.296875,0.65625
1631632631500,0.703125,-0.296875,0.65625
1631632631531,0.703125,-0.296875,0.65625
1631632631562,0.703125,-0.296875,0.65625
1631632631593,0.703125,-0.296875,0.65625
1631632631625,0.703125,-0.296875,0.65625
1631632631656,0.703125,-0.296875,0.640625
1631632631687,0.703125,-0.296875,0.65625
1631632631718,0.703125,-0.296875,0.640625
1631632631750,0.703125,-0.296875,0.65625
1631632631781,0.703125,-0.296875,0.65625
1631632631812,0.703125,-0.296875,0.65625
1631632631843,0.703125,-0.296875,0.65625
1631632631875,0.703125,-0.296875,0.65625
1631632631906,0.703125,-0.296875,0.65625
1631632631937,0.703125,-0.296875,0.65625
1631632631968,0.703125,-0.296875,0.65625
1631632632000,0.703125,-0.296875,0.65625
1631632632031,0.703125,-0.296875,0.65625
1631632632062,0.703125,-0.296875,0.65625
1631632632093,0.703125,-0.296875,0.65625
1631632632125,0.703125,-0.296875,0.65625
1631632632156,0.703125,-0.296875,0.65625
1631632632187,0.703125,-0.296875,0.65625
1631632632218,0.703125,-0.296875,0.65625
1631632632250,0.703125,-0.28125,0.65625
1631632632281,0.703125,-0.296875,0.65625
1631632632312,0.703125,-0.296875,0.65625
1631632632343,0.703125,-0.296875,0.65625
1631632632375,0.703125,-0.296875,0.65625
1631632632406,0.703125,-0.296875,0.65625
1631632632437,0.703125,-0.296875,0.640625
1631632632468,0.703125,-0.28125,0.65625
1631632632500,0.703125,-0.296875,0.640625
1631632632531,0.703125,-0.28125,0.65625
1631632632562,0.703125,-0.28125,0.65625
1631632632593,0.703125,-0.296875,0.65625
1631632632625,0.703125,-0.296875,0.65625
1631632632656,0.703125,-0.296875,0.65625
1631632632687,0.703125,-0.296875,0.640625
1631632632718,0.703125,-0.296875,0.640625
1631632632750,0.703125,-0.296875,0.640625
1631632632781,0.703125,-0.296875,0.640625
1631632632812,0.703125,-0.296875,0.640625
1631632632843,0.703125,-0.296875,0.65625
1631632632875,0.703125,-0.296875,0.65625
1631632632906,0.703125,-0.296875,0.65625
1631632632937,0.703125,-0.296875,0.65625
1631632632968,0.703125,-0.296875,0.640625
1631632633000,0.703125,-0.28125,0.65625
1631632633031,0.703125,-0.296875,0.65625
1631632633062,0.703125,-0.296875,0.65625
1631632633093,0.703125,-0.296875,0.65625
1631632633125,0.703125,-0.296875,0.65625
1631632633156,0.703125,-0.296875,0.640625
1631632633187,0.703125,-0.296875,0.65625
1631632633218,0.703125,-0.296875,0.65625
1631632633250,0.703125,-0.296875,0.65625
1631632633281,0.703125,-0.296875,0.640625
1631632633312,0.703125,-0.296875,0.65625
1631632633343,0.703125,-0.296875,0.640625
1631632633375,0.703125,-0.296875,0.640625
1631632633406,0.703125,-0.296875,0.65625
1631632633437,0.703125,-0.296875,0.640625
1631632633468,0.703125,-0.296875,0.640625
1631632633500,0.703125,-0.296875,0.640625
1631632633531,0.703125,-0.296875,0.65625
1631632633562,0.703125,-0.296875,0.65625
1631632633593,0.703125,-0.296875,0.65625
1631632633625,0.703125,-0.296875,0.65625
1631632633656,0.703125,-0.296875,0.65625
1631632633687,0.703125,-0.296875,0.65625
1631632633718,0.703125,-0.296875,0.65625
1631632633750,0.703125,-0.296875,0.65625
1631632633781,0.703125,-0.296875,0.65625
1631632633812,0.703125,-0.296875,0.65625
1631632633843,0.703125,-0.296875,0.65625
1631632633875,0.703125,-0.296875,0.65625
1631632633906,0.703125,-0.296875,0.65625
1631632633937,0.703125,-0.296875,0.65625
1631632633968,0.703125,-0.296875,0.65625
1631632634000,0.703125,-0.296875,0.65625
1631632634031,0.703125,-0.296875,0.65625
1631632634062,0.703125,-0.296875,0.65625
1631632634093,0.703125,-0.296875,0.65625
1631632634125,0.703125,-0.296875,0.65625
1631632634156,0.703125,-0.296875,0.65625
1631632634187,0.703125,-0.296875,0.65625
1631632634218,0.703125,-0.296875,0.640625
1631632634250,0.703125,-0.296875,0.65625
1631632634281,0.703125,-0.28125,0.65625
1631632634312,0.703125,-0.296875,0.65625
1631632634343,0.703125,-0.296875,0.65625
1631632634375,0.703125,-0.296875,0.65625
1631632634406,0.703125,-0.28125,0.65625
1631632634437,0.703125,-0.296875,0.65625
1631632634468,0.703125,-0.296875,0.65625
1631632634500,0.703125,-0.296875,0.65625
1631632634531,0.703125,-0.296875,0.65625
1631632634562,0.703125,-0.296875,0.65625
1631632634593,0.703125,-0.296875,0.65625
1631632634625,0.703125,-0.296875,0.65625
1631632634656,0.703125,-0.296875,0.65625
1631632634687,0.703125,-0.28125,0.640625
1631632634718,0.703125,-0.296875,0.65625
1631632634750,0.703125,-0.296875,0.65625
1631632634781,0.703125,-0.28125,0.65625
1631632634812,0.703125,-0.296875,0.65625
1631632634843,0.703125,-0.296875,0.65625
1631632634875,0.703125,-0.296875,0.65625
1631632634906,0.703125,-0.296875,0.65625
1631632634937,0.703125,-0.296875,0.640625
1631632634968,0.703125,-0.296875,0.65625
1631632635000,0.703125,-0.296875,0.65625
1631632635031,0.703125,-0.28125,0.65625
1631632635062,0.703125,-0.296875,0.65625
1631632635093,0.703125,-0.296875,0.65625
1631632635125,0.703125,-0.296875,0.640625
1631632635156,0.703125,-0.296875,0.65625
1631632635187,0.703125,-0.296875,0.65625
1631632635218,0.703125,-0.296875,0.640625
1631632635250,0.703125,-0.296875,0.65625
1631632635281,0.703125,-0.28125,0.65625
1631632635312,0.703125,-0.296875,0.65625
1631632635343,0.703125,-0.296875,0.65625
1631632635375,0.703125,-0.296875,0.65625
1631632635406,0.703125,-0.296875,0.640625
1631632635437,0.703125,-0.296875,0.65625
1631632635468,0.703125,-0.296875,0.640625
1631632635500,0.703125,-0.296875,0.640625
1631632635531,0.703125,-0.296875,0.65625
1631632635562,0.703125,-0.296875,0.65625
1631632635593,0.703125,-0.296875,0.65625
1631632635625,0.703125,-0.296875,0.640625
1631632635656,0.703125,-0.28125,0.640625
1631632635687,0.703125,-0.296875,0.640625
1631632635718,0.703125,-0.296875,0.640625
1631632635750,0.703125,-0.28125,0.65625
1631632635781,0.703125,-0.28125,0.65625
1631632635812,0.703125,-0.296875,0.65625
1631632635843,0.703125,-0.296875,0.65625
1631632635875,0.703125,-0.296875,0.65625
1631632635906,0.703125,-0.28125,0.640625
1631632635937,0.703125,-0.296875,0.65625
1631632635968,0.703125,-0.296875,0.65625
1631632636000,0.703125,-0.296875,0.640625
1631632636031,0.703125,-0.296875,0.65625
1631632636062,0.703125,-0.296875,0.640625
1631632636093,0.703125,-0.296875,0.640625
1631632636125,0.703125,-0.28125,0.65625
1631632636156,0.703125,-0.296875,0.65625
1631632636187,0.703125,-0.296875,0.65625
1631632636218,0.703125,-0.28125,0.65625
1631632636250,0.703125,-0.296875,0.65625
1631632636281,0.703125,-0.28125,0.640625
1631632636312,0.703125,-0.296875,0.65625
1631632636343,0.703125,-0.296875,0.65625
1631632636375,0.703125,-0.296875,0.65625
1631632636406,0.703125,-0.296875,0.640625
1631632636437,0.703125,-0.296875,0.640625
1631632636468,0.703125,-0.296875,0.640625
1631632636500,0.703125,-0.296875,0.65625
1631632636531,0.703125,-0.296875,0.65625
1631632636562,0.703125,-0.296875,0.65625
1631632636593,0.703125,-0.296875,0.65625
1631632636625,0.703125,-0.296875,0.65625
1631632636656,0.703125,-0.296875,0.640625
1631632636687,0.703125,-0.296875,0.640625
1631632636718,0.703125,-0.296875,0.65625
1631632636750,0.703125,-0.296875,0.65625
1631632636781,0.703125,-0.296875,0.65625
1631632636812,0.703125,-0.296875,0.65625
1631632636843,0.703125,-0.296875,0.65625
1631632636875,0.703125,-0.296875,0.65625
1631632636906,0.703125,-0.296875,0.65625
1631632636937,0.703125,-0.296875,0.640625
1631632636968,0.703125,-0.296875,0.65625
1631632637000,0.703125,-0.296875,0.640625
1631632637031,0.703125,-0.296875,0.65625
1631632637062,0.703125,-0.296875,0.65625
1631632637093,0.703125,-0.296875,0.65625
1631632637125,0.703125,-0.296875,0.65625
1631632637156,0.703125,-0.296875,0.65625
1631632637187,0.703125,-0.28125,0.65625
1631632637218,0.703125,-0.296875,0.640625
1631632637250,0.703125,-0.296875,0.65625
1631632637281,0.703125,-0.296875,0.65625
1631632637312,0.703125,-0.28125,0.65625
1631632637343,0.703125,-0.296875,0.65625
1631632637375,0.703125,-0.296875,0.65625
1631632637406,0.703125,-0.296875,0.65625
1631632637437,0.703125,-0.296875,0.65625
1631632637468,0.703125,-0.28125,0.65625
1631632637500,0.703125,-0.28125,0.640625
1631632637531,0.703125,-0.296875,0.65625
1631632637562,0.703125,-0.28125,0.65625
1631632637593,0.703125,-0.296875,0.65625
1631632637625,0.703125,-0.296875,0.640625
1631632637656,0.703125,-0.296875,0.65625
1631632637687,0.703125,-0.296875,0.65625
1631632637718,0.703125,-0.296875,0.640625
1631632637750,0.703125,-0.296875,0.65625
1631632637781,0.703125,-0.296875,0.65625
1631632637812,0.703125,-0.296875,0.65625
1631632637843,0.703125,-0.296875,0.640625
1631632637875,0.703125,-0.296875,0.65625
1631632637906,0.703125,-0.296875,0.65625
1631632637937,0.703125,-0.296875,0.640625
1631632637968,0.703125,-0.28125,0.640625
1631632638000,0.703125,-0.296875,0.640625
1631632638031,0.703125,-0.296875,0.65625
1631632638062,0.703125,-0.296875,0.65625
1631632638093,0.703125,-0.296875,0.65625
1631632638125,0.703125,-0.296875,0.640625
1631632638156,0.703125,-0.296875,0.640625
1631632638187,0.703125,-0.296875,0.640625
1631632638218,0.703125,-0.296875,0.65625
1631632638250,0.703125,-0.28125,0.65625
1631632638281,0.703125,-0.296875,0.640625
1631632638312,0.703125,-0.296875,0.640625
1631632638343,0.703125,-0.296875,0.640625
1631632638375,0.703125,-0.296875,0.65625
1631632638406,0.703125,-0.296875,0.65625
1631632638437,0.703125,-0.296875,0.640625
1631632638468,0.703125,-0.296875,0.640625
1631632638500,0.703125,-0.296875,0.65625
1631632638531,0.703125,-0.296875,0.640625
1631632638562,0.703125,-0.296875,0.65625
1631632638593,0.703125,-0.296875,0.65625
1631632638625,0.703125,-0.296875,0.640625
1631632638656,0.703125,-0.296875,0.640625
1631632638687,0.703125,-0.296875,0.640625
1631632638718,0.703125,-0.296875,0.65625
1631632638750,0.703125,-0.296875,0.65625
1631632638781,0.703125,-0.296875,0.640625
1631632638812,0.703125,-0.296875,0.65625
1631632638843,0.703125,-0.296875,0.65625
1631632638875,0.703125,-0.296875,0.65625
1631632638906,0.703125,-0.296875,0.65625
1631632638937,0.703125,-0.296875,0.65625
1631632638968,0.703125,-0.296875,0.65625
1631632639000,0.703125,-0.296875,0.65625
1631632639031,0.703125,-0.296875,0.65625
1631632639062,0.703125,-0.28125,0.65625
1631632639093,0.703125,-0.296875,0.640625
1631632639125,0.703125,-0.296875,0.65625
1631632639156,0.703125,-0.296875,0.65625
1631632639187,0.703125,-0.296875,0.65625
1631632639218,0.703125,-0.296875,0.65625
1631632639250,0.703125,-0.296875,0.65625
1631632639281,0.703125,-0.296875,0.65625
1631632639312,0.703125,-0.296875,0.65625
1631632639343,0.703125,-0.296875,0.65625
1631632639375,0.703125,-0.296875,0.65625
1631632639406,0.703125,-0.296875,0.65625
1631632639437,0.703125,-0.296875,0.65625
1631632639468,0.703125,-0.296875,0.65625
1631632639500,0.703125,-0.296875,0.65625
1631632639531,0.703125,-0.296875,0.65625
1631632639562,0.703125,-0.296875,0.65625
1631632639593,0.703125,-0.296875,0.65625
1631632639625,0.703125,-0.296875,0.65625
1631632639656,0.703125,-0.296875,0.65625
1631632639687,0.703125,-0.296875,0.640625
1631632639718,0.703125,-0.296875,0.65625
1631632639750,0.703125,-0.296875,0.65625
1631632639781,0.703125,-0.296875,0.65625
1631632639812,0.703125,-0.296875,0.65625
1631632639843,0.703125,-0.296875,0.65625
1631632639875,0.703125,-0.28125,0.65625
1631632639906,0.703125,-0.296875,0.65625
1631632639937,0.703125,-0.296875,0.65625
1631632639968,0.703125,-0.296875,0.65625
1631632640000,0.703125,-0.296875,0.65625
1631632640031,0.703125,-0.296875,0.65625
1631632640062,0.703125,-0.296875,0.65625
1631632640093,0.703125,-0.296875,0.65625
1631632640125,0.703125,-0.296875,0.640625
1631632640156,0.703125,-0.296875,0.640625
1631632640187,0.703125,-0.296875,0.65625
1631632640218,0.703125,-0.296875,0.65625
1631632640250,0.703125,-0.296875,0.65625
1631632640281,0.703125,-0.296875,0.65625
1631632640312,0.703125,-0.296875,0.65625
1631632640343,0.703125,-0.296875,0.65625
1631632640375,0.703125,-0.28125,0.640625
1631632640406,0.703125,-0.296875,0.640625
1631632640437,0.703125,-0.28125,0.65625
1631632640468,0.703125,-0.296875,0.640625
1631632640500,0.703125,-0.296875,0.65625
1631632640531,0.703125,-0.296875,0.640625
1631632640562,0.703125,-0.296875,0.640625
1631632640593,0.703125,-0.296875,0.65625
1631632640625,0.703125,-0.296875,0.65625
1631632640656,0.703125,-0.296875,0.640625
1631632640687,0.703125,-0.296875,0.65625
1631632640718,0.703125,-0.296875,0.640625
1631632640750,0.703125,-0.296875,0.65625
1631632640781,0.703125,-0.28125,0.640625
1631632640812,0.703125,-0.296875,0.65625
1631632640843,0.703125,-0.296875,0.65625
1631632640875,0.703125,-0.296875,0.640625
1631632640906,0.703125,-0.296875,0.640625
1631632640937,0.703125,-0.296875,0.640625
1631632640968,0.703125,-0.296875,0.640625
1631632641000,0.703125,-0.296875,0.640625
1631632641031,0.703125,-0.296875,0.640625
1631632641062,0.703125,-0.28125,0.640625
1631632641093,0.703125,-0.296875,0.640625
1631632641125,0.703125,-0.296875,0.640625
1631632641156,0.703125,-0.296875,0.640625
1631632641187,0.703125,-0.296875,0.65625
1631632641218,0.703125,-0.296875,0.640625
1631632641250,0.703125,-0.296875,0.65625
1631632641281,0.703125,-0.28125,0.65625
1631632641312,0.703125,-0.28125,0.640625
1631632641343,0.703125,-0.28125,0.65625
1631632641375,0.703125,-0.296875,0.65625
1631632641406,0.703125,-0.28125,0.65625
1631632641437,0.703125,-0.296875,0.640625
1631632641468,0.703125,-0.296875,0.65625
1631632641500,0.703125,-0.28125,0.65625
1631632641531,0.703125,-0.296875,0.640625
1631632641562,0.703125,-0.296875,0.640625
1631632641593,0.703125,-0.28125,0.65625
1631632641625,0.703125,-0.296875,0.65625
1631632641656,0.703125,-0.296875,0.65625
1631632641687,0.703125,-0.28125,0.640625
1631632641718,0.703125,-0.296875,0.65625
1631632641750,0.703125,-0.296875,0.65625
1631632641781,0.703125,-0.296875,0.65625
1631632641812,0.703125,-0.296875,0.640625
1631632641843,0.703125,-0.296875,0.65625
1631632641875,0.703125,-0.296875,0.65625
1631632641906,0.703125,-0.296875,0.65625
1631632641937,0.703125,-0.296875,0.65625
1631632641968,0.703125,-0.296875,0.65625
1631632642000,0.703125,-0.296875,0.65625
1631632642031,0.703125,-0.296875,0.65625
1631632642062,0.703125,-0.296875,0.65625
1631632642093,0.703125,-0.296875,0.65625
1631632642125,0.703125,-0.296875,0.65625
1631632642156,0.703125,-0.296875,0.640625
1631632642187,0.703125,-0.296875,0.65625
1631632642218,0.703125,-0.296875,0.640625
1631632642250,0.703125,-0.296875,0.640625
1631632642281,0.703125,-0.296875,0.65625
1631632642312,0.703125,-0.296875,0.640625
1631632642343,0.703125,-0.296875,0.65625
1631632642375,0.703125,-0.28125,0.65625
1631632642406,0.703125,-0.296875,0.65625
1631632642437,0.703125,-0.296875,0.65625
1631632642468,0.703125,-0.296875,0.65625
1631632642500,0.703125,-0.296875,0.65625
1631632642531,0.703125,-0.296875,0.65625
1631632642562,0.703125,-0.296875,0.65625
1631632642593,0.703125,-0.296875,0.640625
1631632642625,0.703125,-0.296875,0.65625
1631632642656,0.703125,-0.296875,0.65625
1631632642687,0.703125,-0.296875,0.65625
1631632642718,0.703125,-0.28125,0.65625
1631632642750,0.703125,-0.296875,0.640625
1631632642781,0.703125,-0.296875,0.65625
1631632642812,0.703125,-0.296875,0.65625
1631632642843,0.703125,-0.296875,0.65625
1631632642875,0.703125,-0.296875,0.65625
1631632642906,0.703125,-0.296875,0.640625
1631632642937,0.703125,-0.296875,0.65625
1631632642968,0.703125,-0.296875,0.65625
1631632643000,0.703125,-0.296875,0.65625
1631632643031,0.703125,-0.296875,0.640625
1631632643062,0.703125,-0.296875,0.65625
1631632643093,0.703125,-0.296875,0.65625
1631632643125,0.703125,-0.296875,0.65625
1631632643156,0.703125,-0.296875,0.65625
1631632643187,0.703125,-0.296875,0.65625
1631632643218,0.703125,-0.296875,0.65625
1631632643250,0.703125,-0.28125,0.640625
1631632643281,0.703125,-0.296875,0.640625
1631632643312,0.703125,-0.296875,0.65625
1631632643343,0.703125,-0.28125,0.65625
1631632643375,0.703125,-0.296875,0.65625
1631632643406,0.703125,-0.296875,0.65625
1631632643437,0.703125,-0.296875,0.65625
1631632643468,0.703125,-0.28125,0.640625
1631632643500,0.703125,-0.296875,0.640625
1631632643531,0.703125,-0.296875,0.65625
1631632643562,0.703125,-0.28125,0.640625
1631632643593,0.703125,-0.296875,0.640625
1631632643625,0.703125,-0.296875,0.640625
1631632643656,0.703125,-0.296875,0.65625
1631632643687,0.703125,-0.296875,0.65625
1631632643718,0.703125,-0.296875,0.640625
1631632643750,0.703125,-0.296875,0.65625
1631632643781,0.703125,-0.296875,0.640625
1631632643812,0.703125,-0.296875,0.640625
1631632643843,0.703125,-0.296875,0.65625
1631632643875,0.703125,-0.296875,0.640625
1631632643906,0.703125,-0.28125,0.65625
1631632643937,0.703125,-0.296875,0.640625
1631632643968,0.703125,-0.296875,0.640625
1631632644000,0.703125,-0.296875,0.640625
1631632644031,0.703125,-0.296875,0.65625
1631632644062,0.703125,-0.296875,0.640625
1631632644093,0.703125,-0.296875,0.640625
1631632644125,0.703125,-0.296875,0.640625
1631632644156,0.703125,-0.296875,0.65625
1631632644187,0.703125,-0.296875,0.640625
1631632644218,0.703125,-0.28125,0.640625
1631632644250,0.703125,-0.296875,0.640625
1631632644281,0.703125,-0.296875,0.640625
1631632644312,0.703125,-0.296875,0.65625
1631632644343,0.703125,-0.296875,0.640625
1631632644375,0.703125,-0.28125,0.640625
1631632644406,0.703125,-0.28125,0.640625
1631632644437,0.703125,-0.296875,0.640625
1631632644468,0.703125,-0.28125,0.65625
1631632644500,0.703125,-0.296875,0.640625
1631632644531,0.703125,-0.296875,0.640625
1631632644562,0.703125,-0.296875,0.65625
1631632644593,0.703125,-0.296875,0.640625
1631632644625,0.703125,-0.296875,0.640625
1631632644656,0.703125,-0.296875,0.640625
1631632644687,0.703125,-0.296875,0.640625
1631632644718,0.703125,-0.296875,0.65625
1631632644750,0.703125,-0.296875,0.65625
1631632644781,0.703125,-0.296875,0.640625
1631632644812,0.703125,-0.296875,0.640625
1631632644843,0.703125,-0.296875,0.65625
1631632644875,0.703125,-0.28125,0.65625
1631632644906,0.703125,-0.28125,0.65625
1631632644937,0.703125,-0.296875,0.640625
1631632644968,0.703125,-0.296875,0.640625
1631632645000,0.703125,-0.296875,0.65625
1631632645031,0.703125,-0.296875,0.640625
1631632645062,0.703125,-0.296875,0.65625
1631632645093,0.703125,-0.296875,0.640625
1631632645125,0.703125,-0.296875,0.65625
1631632645156,0.703125,-0.296875,0.65625
1631632645187,0.703125,-0.28125,0.640625
1631632645218,0.703125,-0.296875,0.65625
1631632645250,0.703125,-0.296875,0.65625
1631632645281,0.703125,-0.296875,0.65625
1631632645312,0.703125,-0.296875,0.65625
1631632645343,0.703125,-0.296875,0.65625
1631632645375,0.703125,-0.296875,0.640625
1631632645406,0.703125,-0.28125,0.640625
1631632645437,0.703125,-0.296875,0.65625
1631632645468,0.703125,-0.296875,0.640625
1631632645500,0.703125,-0.296875,0.65625
1631632645531,0.703125,-0.296875,0.65625
1631632645562,0.703125,-0.296875,0.65625
1631632645593,0.703125,-0.28125,0.65625
1631632645625,0.703125,-0.296875,0.65625
1631632645656,0.703125,-0.28125,0.65625
1631632645687,0.703125,-0.296875,0.65625
1631632645718,0.703125,-0.296875,0.65625
1631632645750,0.703125,-0.296875,0.65625
1631632645781,0.703125,-0.296875,0.65625
1631632645812,0.703125,-0.28125,0.640625
1631632645843,0.703125,-0.296875,0.640625
1631632645875,0.703125,-0.296875,0.65625
1631632645906,0.703125,-0.296875,0.65625
1631632645937,0.703125,-0.296875,0.65625
1631632645968,0.703125,-0.296875,0.65625
1631632646000,0.703125,-0.296875,0.65625
1631632646031,0.703125,-0.296875,0.640625
1631632646062,0.703125,-0.296875,0.65625
1631632646093,0.703125,-0.28125,0.65625
1631632646125,0.703125,-0.296875,0.65625
1631632646156,0.703125,-0.296875,0.65625
1631632646187,0.703125,-0.296875,0.65625
1631632646218,0.703125,-0.296875,0.65625
1631632646250,0.703125,-0.296875,0.65625
1631632646281,0.703125,-0.296875,0.65625
1631632646312,0.703125,-0.28125,0.65625
1631632646343,0.703125,-0.28125,0.65625
1631632646375,0.703125,-0.296875,0.65625
1631632646406,0.703125,-0.296875,0.65625
1631632646437,0.703125,-0.28125,0.65625
1631632646468,0.703125,-0.296875,0.640625
1631632646500,0.703125,-0.296875,0.65625
1631632646531,0.703125,-0.296875,0.65625
1631632646562,0.703125,-0.296875,0.640625
1631632646593,0.703125,-0.28125,0.65625
1631632646625,0.703125,-0.296875,0.640625
1631632646656,0.703125,-0.296875,0.640625
1631632646687,0.703125,-0.296875,0.640625
1631632646718,0.703125,-0.296875,0.65625
1631632646750,0.703125,-0.296875,0.640625
1631632646781,0.703125,-0.296875,0.640625
1631632646812,0.703125,-0.296875,0.640625
1631632646843,0.703125,-0.296875,0.65625
1631632646875,0.703125,-0.296875,0.640625
1631632646906,0.703125,-0.296875,0.65625
1631632646937,0.703125,-0.296875,0.640625
1631632646968,0.703125,-0.296875,0.640625
1631632647000,0.703125,-0.296875,0.65625
1631632647031,0.703125,-0.28125,0.640625
1631632647062,0.703125,-0.296875,0.65625
1631632647093,0.703125,-0.296875,0.640625
1631632647125,0.703125,-0.28125,0.640625
1631632647156,0.703125,-0.296875,0.640625
1631632647187,0.703125,-0.296875,0.65625
1631632647218,0.703125,-0.296875,0.65625
1631632647250,0.703125,-0.296875,0.640625
1631632647281,0.703125,-0.296875,0.65625
1631632647312,0.703125,-0.296875,0.640625
1631632647343,0.703125,-0.296875,0.640625
1631632647375,0.703125,-0.296875,0.65625
1631632647406,0.703125,-0.296875,0.640625
1631632647437,0.703125,-0.28125,0.640625
1631632647468,0.703125,-0.296875,0.65625
1631632647500,0.703125,-0.296875,0.640625
1631632647531,0.703125,-0.28125,0.640625
1631632647562,0.703125,-0.28125,0.640625
1631632647593,0.703125,-0.296875,0.640625
1631632647625,0.703125,-0.296875,0.65625
1631632647656,0.703125,-0.28125,0.65625
1631632647687,0.703125,-0.28125,0.640625
1631632647718,0.703125,-0.28125,0.65625
1631632647750,0.703125,-0.296875,0.65625
1631632647781,0.703125,-0.296875,0.65625
1631632647812,0.703125,-0.296875,0.640625
1631632647843,0.703125,-0.296875,0.640625
1631632647875,0.703125,-0.28125,0.640625
1631632647906,0.703125,-0.296875,0.640625
1631632647937,0.703125,-0.28125,0.640625
1631632647968,0.703125,-0.296875,0.65625
1631632648000,0.703125,-0.296875,0.640625
1631632648031,0.703125,-0.28125,0.65625
1631632648062,0.703125,-0.296875,0.65625
1631632648093,0.703125,-0.296875,0.640625
1631632648125,0.703125,-0.296875,0.640625
1631632648156,0.703125,-0.296875,0.640625
1631632648187,0.703125,-0.296875,0.640625
1631632648218,0.703125,-0.296875,0.640625
1631632648250,0.703125,-0.296875,0.640625
1631632648281,0.703125,-0.296875,0.65625
1631632648312,0.703125,-0.296875,0.640625
1631632648343,0.703125,-0.296875,0.65625
1631632648375,0.703125,-0.28125,0.65625
1631632648406,0.703125,-0.296875,0.640625
1631632648437,0.703125,-0.28125,0.65625
1631632648468,0.703125,-0.296875,0.640625
1631632648500,0.703125,-0.296875,0.640625
1631632648531,0.703125,-0.296875,0.65625
1631632648562,0.703125,-0.296875,0.640625
1631632648593,0.703125,-0.28125,0.640625
1631632648625,0.703125,-0.296875,0.65625
1631632648656,0.703125,-0.28125,0.65625
1631632648687,0.703125,-0.296875,0.65625
1631632648718,0.703125,-0.296875,0.640625
1631632648750,0.703125,-0.296875,0.65625
1631632648781,0.703125,-0.296875,0.65625
1631632648812,0.703125,-0.28125,0.640625
1631632648843,0.703125,-0.28125,0.640625
1631632648875,0.703125,-0.296875,0.640625
1631632648906,0.703125,-0.28125,0.640625
1631632648937,0.703125,-0.296875,0.640625
1631632648968,0.703125,-0.28125,0.65625
1631632649000,0.703125,-0.28125,0.640625
1631632649031,0.703125,-0.296875,0.640625
1631632649062,0.703125,-0.296875,0.65625
1631632649093,0.703125,-0.28125,0.65625
1631632649125,0.703125,-0.28125,0.65625
1631632649156,0.703125,-0.296875,0.640625
1631632649187,0.703125,-0.296875,0.640625
1631632649218,0.703125,-0.296875,0.640625
1631632649250,0.703125,-0.28125,0.640625
1631632649281,0.703125,-0.28125,0.640625
1631632649312,0.703125,-0.28125,0.640625
1631632649343,0.703125,-0.296875,0.640625
1631632649375,0.703125,-0.296875,0.65625
1631632649406,0.703125,-0.296875,0.640625
1631632649437,0.703125,-0.296875,0.640625
1631632649468,0.703125,-0.28125,0.65625
1631632649500,0.703125,-0.296875,0.65625
1631632649531,0.703125,-0.28125,0.640625
1631632649562,0.703125,-0.296875,0.640625
1631632649593,0.703125,-0.296875,0.640625
1631632649625,0.703125,-0.296875,0.640625
1631632649656,0.703125,-0.28125,0.65625
1631632649687,0.703125,-0.28125,0.65625
1631632649718,0.703125,-0.28125,0.640625
1631632649750,0.703125,-0.296875,0.640625
1631632649781,0.703125,-0.296875,0.640625
1631632649812,0.703125,-0.28125,0.65625
1631632649843,0.703125,-0.28125,0.65625
1631632649875,0.703125,-0.296875,0.640625
1631632649906,0.703125,-0.296875,0.640625
1631632649937,0.703125,-0.296875,0.640625
1631632649968,0.703125,-0.28125,0.640625
1631632650000,0.703125,-0.296875,0.640625
1631632650031,0.703125,-0.296875,0.640625
1631632650062,0.703125,-0.296875,0.640625
1631632650093,0.703125,-0.296875,0.65625
1631632650125,0.703125,-0.296875,0.640625
1631632650156,0.703125,-0.296875,0.640625
1631632650187,0.703125,-0.296875,0.65625
1631632650218,0.703125,-0.28125,0.640625
1631632650250,0.703125,-0.296875,0.65625
1631632650281,0.703125,-0.296875,0.640625
1631632650312,0.703125,-0.296875,0.65625
1631632650343,0.703125,-0.296875,0.640625
1631632650375,0.703125,-0.296875,0.640625
1631632650406,0.703125,-0.296875,0.640625
1631632650437,0.703125,-0.296875,0.640625
1631632650468,0.703125,-0.28125,0.65625
1631632650500,0.703125,-0.296875,0.65625
1631632650531,0.703125,-0.28125,0.65625
1631632650562,0.703125,-0.296875,0.65625
1631632650593,0.703125,-0.296875,0.640625
1631632650625,0.703125,-0.296875,0.65625
1631632650656,0.703125,-0.296875,0.65625
1631632650687,0.703125,-0.28125,0.640625
1631632650718,0.703125,-0.296875,0.640625
1631632650750,0.703125,-0.296875,0.640625
1631632650781,0.703125,-0.296875,0.65625
1631632650812,0.703125,-0.296875,0.640625
1631632650843,0.703125,-0.296875,0.65625
1631632650875,0.703125,-0.296875,0.65625
1631632650906,0.703125,-0.296875,0.65625
1631632650937,0.703125,-0.296875,0.640625
1631632650968,0.703125,-0.296875,0.640625
1631632651000,0.703125,-0.28125,0.65625
1631632651031,0.703125,-0.296875,0.65625
1631632651062,0.703125,-0.296875,0.65625
1631632651093,0.703125,-0.296875,0.65625
1631632651125,0.703125,-0.296875,0.640625
1631632651156,0.703125,-0.296875,0.65625
1631632651187,0.703125,-0.296875,0.640625
1631632651218,0.703125,-0.296875,0.65625
1631632651250,0.703125,-0.296875,0.640625
1631632651281,0.703125,-0.296875,0.65625
1631632651312,0.703125,-0.296875,0.65625
1631632651343,0.703125,-0.296875,0.65625
1631632651375,0.703125,-0.296875,0.65625
1631632651406,0.703125,-0.296875,0.65625
1631632651437,0.703125,-0.296875,0.65625
1631632651468,0.703125,-0.296875,0.65625
1631632651500,0.703125,-0.296875,0.640625
1631632651531,0.703125,-0.296875,0.640625
1631632651562,0.703125,-0.296875,0.640625
1631632651593,0.703125,-0.296875,0.65625
1631632651625,0.703125,-0.296875,0.65625
1631632651656,0.703125,-0.296875,0.65625
1631632651687,0.703125,-0.296875,0.640625
1631632651718,0.703125,-0.296875,0.640625
1631632651750,0.703125,-0.296875,0.640625
1631632651781,0.703125,-0.296875,0.65625
1631632651812,0.703125,-0.296875,0.640625
1631632651843,0.703125,-0.296875,0.640625
1631632651875,0.703125,-0.296875,0.65625
1631632651906,0.703125,-0.296875,0.65625
1631632651937,0.703125,-0.28125,0.640625
1631632651968,0.703125,-0.296875,0.640625
1631632652000,0.703125,-0.296875,0.640625
1631632652031,0.703125,-0.296875,0.65625
1631632652062,0.703125,-0.296875,0.65625
1631632652093,0.703125,-0.296875,0.640625
1631632652125,0.703125,-0.296875,0.65625
1631632652156,0.703125,-0.296875,0.65625
1631632652187,0.703125,-0.296875,0.640625
1631632652218,0.703125,-0.28125,0.65625
1631632652250,0.703125,-0.296875,0.640625
1631632652281,0.703125,-0.296875,0.65625
1631632652312,0.703125,-0.296875,0.640625
1631632652343,0.703125,-0.296875,0.65625
1631632652375,0.703125,-0.296875,0.640625
1631632652406,0.703125,-0.296875,0.640625
1631632652437,0.703125,-0.296875,0.640625
1631632652468,0.703125,-0.296875,0.640625
1631632652500,0.703125,-0.296875,0.65625
1631632652531,0.703125,-0.296875,0.640625
1631632652562,0.703125,-0.28125,0.640625
1631632652593,0.703125,-0.296875,0.65625
1631632652625,0.703125,-0.296875,0.640625
1631632652656,0.703125,-0.296875,0.640625
1631632652687,0.703125,-0.296875,0.640625
1631632652718,0.703125,-0.296875,0.640625
1631632652750,0.703125,-0.28125,0.640625
1631632652781,0.703125,-0.296875,0.65625
1631632652812,0.703125,-0.296875,0.640625
1631632652843,0.703125,-0.296875,0.640625
1631632652875,0.703125,-0.296875,0.640625
1631632652906,0.703125,-0.28125,0.640625
1631632652937,0.703125,-0.296875,0.65625
1631632652968,0.703125,-0.28125,0.640625
1631632653000,0.703125,-0.296875,0.640625
1631632653031,0.703125,-0.296875,0.640625
1631632653062,0.703125,-0.296875,0.640625
1631632653093,0.703125,-0.28125,0.640625
1631632653125,0.703125,-0.296875,0.640625
1631632653156,0.703125,-0.296875,0.640625
1631632653187,0.703125,-0.296875,0.65625
1631632653218,0.703125,-0.28125,0.640625
1631632653250,0.703125,-0.296875,0.640625
1631632653281,0.703125,-0.296875,0.640625
1631632653312,0.703125,-0.296875,0.640625
1631632653343,0.703125,-0.28125,0.640625
1631632653375,0.703125,-0.296875,0.640625
1631632653406,0.703125,-0.296875,0.65625
1631632653437,0.703125,-0.296875,0.65625
1631632653468,0.703125,-0.296875,0.65625
1631632653500,0.703125,-0.296875,0.65625
1631632653531,0.703125,-0.296875,0.640625
1631632653562,0.703125,-0.296875,0.65625
1631632653593,0.703125,-0.296875,0.65625
1631632653625,0.703125,-0.28125,0.65625
1631632653656,0.703125,-0.296875,0.65625
1631632653687,0.703125,-0.296875,0.65625
1631632653718,0.703125,-0.296875,0.65625
1631632653750,0.703125,-0.296875,0.65625
1631632653781,0.703125,-0.296875,0.640625
1631632653812,0.703125,-0.296875,0.640625
1631632653843,0.703125,-0.296875,0.640625
1631632653875,0.703125,-0.296875,0.65625
1631632653906,0.703125,-0.296875,0.640625
1631632653937,0.703125,-0.296875,0.65625
1631632653968,0.703125,-0.296875,0.65625
1631632654000,0.703125,-0.296875,0.65625
1631632654031,0.703125,-0.296875,0.65625
1631632654062,0.703125,-0.296875,0.640625
1631632654093,0.703125,-0.296875,0.65625
1631632654125,0.703125,-0.296875,0.65625
1631632654156,0.703125,-0.296875,0.640625
1631632654187,0.703125,-0.28125,0.65625
1631632654218,0.703125,-0.296875,0.65625
1631632654250,0.703125,-0.296875,0.65625
1631632654281,0.703125,-0.296875,0.65625
1631632654312,0.703125,-0.28125,0.65625
1631632654343,0.703125,-0.28125,0.65625
1631632654375,0.703125,-0.296875,0.65625
1631632654406,0.703125,-0.296875,0.640625
1631632654437,0.703125,-0.296875,0.65625
1631632654468,0.703125,-0.296875,0.65625
1631632654500,0.703125,-0.296875,0.65625
1631632654531,0.703125,-0.296875,0.65625
1631632654562,0.703125,-0.296875,0.640625
1631632654593,0.703125,-0.296875,0.640625
1631632654625,0.703125,-0.296875,0.640625
1631632654656,0.703125,-0.28125,0.65625
1631632654687,0.703125,-0.296875,0.65625
1631632654718,0.703125,-0.28125,0.640625
1631632654750,0.703125,-0.296875,0.65625
1631632654781,0.703125,-0.296875,0.65625
1631632654812,0.703125,-0.296875,0.640625
1631632654843,0.703125,-0.296875,0.640625
1631632654875,0.703125,-0.296875,0.640625
1631632654906,0.703125,-0.296875,0.640625
1631632654937,0.703125,-0.296875,0.65625
1631632654968,0.703125,-0.28125,0.65625
1631632655000,0.703125,-0.296875,0.65625
1631632655031,0.703125,-0.28125,0.65625
1631632655062,0.703125,-0.296875,0.65625
1631632655093,0.703125,-0.296875,0.640625
1631632655125,0.703125,-0.28125,0.640625
1631632655156,0.703125,-0.296875,0.640625
1631632655187,0.703125,-0.296875,0.65625
1631632655218,0.703125,-0.28125,0.65625
1631632655250,0.703125,-0.296875,0.65625
1631632655281,0.703125,-0.296875,0.65625
1631632655312,0.703125,-0.296875,0.640625
1631632655343,0.703125,-0.296875,0.640625
1631632655375,0.703125,-0.28125,0.640625
1631632655406,0.703125,-0.296875,0.640625
1631632655437,0.703125,-0.296875,0.65625
1631632655468,0.703125,-0.296875,0.65625
1631632655500,0.703125,-0.296875,0.640625
1631632655531,0.703125,-0.296875,0.640625
1631632655562,0.703125,-0.28125,0.640625
1631632655593,0.703125,-0.296875,0.640625
1631632655625,0.703125,-0.296875,0.640625
1631632655656,0.703125,-0.296875,0.640625
1631632655687,0.703125,-0.296875,0.65625
1631632655718,0.703125,-0.296875,0.640625
1631632655750,0.703125,-0.296875,0.65625
1631632655781,0.703125,-0.296875,0.640625
1631632655812,0.703125,-0.296875,0.65625
1631632655843,0.703125,-0.28125,0.640625
1631632655875,0.703125,-0.28125,0.65625
1631632655906,0.703125,-0.296875,0.640625
1631632655937,0.703125,-0.296875,0.640625
1631632655968,0.703125,-0.296875,0.640625
1631632656000,0.703125,-0.296875,0.640625
1631632656031,0.703125,-0.28125,0.640625
1631632656062,0.703125,-0.296875,0.640625
1631632656093,0.703125,-0.296875,0.640625
1631632656125,0.703125,-0.28125,0.640625
1631632656156,0.703125,-0.28125,0.640625
1631632656187,0.703125,-0.28125,0.640625
1631632656218,0.703125,-0.296875,0.65625
1631632656250,0.703125,-0.296875,0.640625
1631632656281,0.703125,-0.296875,0.640625
1631632656312,0.703125,-0.28125,0.65625
1631632656343,0.703125,-0.296875,0.65625
1631632656375,0.703125,-0.296875,0.640625
1631632656406,0.703125,-0.296875,0.640625
1631632656437,0.703125,-0.28125,0.65625
1631632656468,0.703125,-0.296875,0.65625
1631632656500,0.703125,-0.296875,0.65625
1631632656531,0.703125,-0.296875,0.640625
1631632656562,0.703125,-0.296875,0.640625
1631632656593,0.703125,-0.28125,0.65625
1631632656625,0.703125,-0.296875,0.640625
1631632656656,0.703125,-0.296875,0.65625
1631632656687,0.703125,-0.296875,0.640625
1631632656718,0.703125,-0.296875,0.65625
1631632656750,0.703125,-0.296875,0.640625
1631632656781,0.703125,-0.296875,0.640625
1631632656812,0.703125,-0.296875,0.640625
1631632656843,0.703125,-0.296875,0.640625
1631632656875,0.703125,-0.296875,0.65625
1631632656906,0.703125,-0.296875,0.640625
1631632656937,0.703125,-0.296875,0.65625
1631632656968,0.703125,-0.296875,0.640625
1631632657000,0.703125,-0.296875,0.640625
1631632657031,0.703125,-0.296875,0.65625
1631632657062,0.703125,-0.296875,0.640625
1631632657093,0.703125,-0.296875,0.640625
1631632657125,0.703125,-0.28125,0.640625
1631632657156,0.703125,-0.296875,0.640625
1631632657187,0.703125,-0.296875,0.640625
1631632657218,0.703125,-0.296875,0.65625
1631632657250,0.703125,-0.296875,0.65625
1631632657281,0.703125,-0.296875,0.65625
1631632657312,0.703125,-0.296875,0.65625
1631632657343,0.703125,-0.296875,0.65625
1631632657375,0.703125,-0.296875,0.640625
1631632657406,0.703125,-0.296875,0.65625
1631632657437,0.703125,-0.296875,0.65625
1631632657468,0.703125,-0.296875,0.65625
1631632657500,0.703125,-0.296875,0.65625
1631632657531,0.703125,-0.296875,0.640625
1631632657562,0.703125,-0.296875,0.640625
1631632657593,0.703125,-0.296875,0.65625
1631632657625,0.703125,-0.28125,0.640625
1631632657656,0.703125,-0.296875,0.640625
1631632657687,0.703125,-0.296875,0.65625
1631632657718,0.703125,-0.28125,0.640625
1631632657750,0.703125,-0.296875,0.640625
1631632657781,0.703125,-0.296875,0.65625
1631632657812,0.703125,-0.296875,0.640625
1631632657843,0.703125,-0.296875,0.640625
1631632657875,0.703125,-0.296875,0.65625
1631632657906,0.703125,-0.296875,0.65625
1631632657937,0.703125,-0.296875,0.640625
1631632657968,0.703125,-0.28125,0.65625
1631632658000,0.703125,-0.296875,0.65625
1631632658031,0.703125,-0.296875,0.65625
1631632658062,0.703125,-0.296875,0.65625
1631632658093,0.703125,-0.28125,0.65625
1631632658125,0.703125,-0.28125,0.65625
1631632658156,0.703125,-0.296875,0.65625
1631632658187,0.703125,-0.296875,0.65625
1631632658218,0.703125,-0.296875,0.640625
1631632658250,0.703125,-0.296875,0.640625
1631632658281,0.703125,-0.28125,0.65625
1631632658312,0.703125,-0.296875,0.640625
1631632658343,0.703125,-0.296875,0.65625
1631632658375,0.703125,-0.28125,0.640625
1631632658406,0.703125,-0.296875,0.640625
1631632658437,0.703125,-0.28125,0.640625
1631632658468,0.703125,-0.28125,0.640625
1631632658500,0.703125,-0.28125,0.65625
1631632658531,0.703125,-0.296875,0.640625
1631632658562,0.703125,-0.296875,0.640625
1631632658593,0.703125,-0.28125,0.65625
1631632658625,0.703125,-0.296875,0.640625
1631632658656,0.703125,-0.28125,0.640625
1631632658687,0.703125,-0.296875,0.65625
1631632658718,0.703125,-0.296875,0.640625
1631632658750,0.703125,-0.296875,0.65625
1631632658781,0.703125,-0.296875,0.640625
1631632658812,0.703125,-0.28125,0.640625
1631632658843,0.703125,-0.296875,0.640625
1631632658875,0.703125,-0.296875,0.640625
1631632658906,0.703125,-0.296875,0.65625
1631632658937,0.703125,-0.296875,0.640625
1631632658968,0.703125,-0.28125,0.640625
1631632659000,0.703125,-0.296875,0.65625
1631632659031,0.703125,-0.296875,0.640625
1631632659062,0.703125,-0.296875,0.640625
1631632659093,0.703125,-0.296875,0.640625
1631632659125,0.703125,-0.28125,0.65625
1631632659156,0.703125,-0.296875,0.65625
1631632659187,0.703125,-0.28125,0.65625
1631632659218,0.703125,-0.296875,0.640625
1631632659250,0.703125,-0.296875,0.65625
1631632659281,0.703125,-0.28125,0.640625
1631632659312,0.703125,-0.296875,0.640625
1631632659343,0.703125,-0.296875,0.640625
1631632659375,0.703125,-0.296875,0.640625
1631632659406,0.703125,-0.28125,0.640625
1631632659437,0.703125,-0.296875,0.640625
1631632659468,0.703125,-0.28125,0.640625
1631632659500,0.703125,-0.28125,0.640625
1631632659531,0.703125,-0.296875,0.65625
1631632659562,0.703125,-0.296875,0.640625
1631632659593,0.703125,-0.296875,0.65625
1631632659625,0.703125,-0.296875,0.640625
1631632659656,0.703125,-0.296875,0.65625
1631632659687,0.703125,-0.296875,0.640625
1631632659718,0.703125,-0.296875,0.640625
1631632659750,0.703125,-0.296875,0.640625
1631632659781,0.703125,-0.28125,0.65625
1631632659812,0.703125,-0.296875,0.640625
1631632659843,0.703125,-0.296875,0.640625
1631632659875,0.703125,-0.296875,0.640625
1631632659906,0.703125,-0.296875,0.640625
1631632659937,0.703125,-0.296875,0.65625
1631632659968,0.703125,-0.28125,0.65625
1631632660000,0.703125,-0.28125,0.640625
1631632660031,0.703125,-0.296875,0.640625
1631632660062,0.703125,-0.296875,0.640625
1631632660093,0.703125,-0.296875,0.65625
1631632660125,0.703125,-0.28125,0.640625
1631632660156,0.703125,-0.296875,0.640625
1631632660187,0.703125,-0.296875,0.640625
1631632660218,0.703125,-0.296875,0.640625
1631632660250,0.703125,-0.296875,0.640625
1631632660281,0.703125,-0.296875,0.65625
1631632660312,0.703125,-0.296875,0.640625
1631632660343,0.703125,-0.296875,0.65625
1631632660375,0.703125,-0.296875,0.65625
1631632660406,0.703125,-0.296875,0.640625
1631632660437,0.703125,-0.296875,0.65625
1631632660468,0.703125,-0.296875,0.65625
1631632660500,0.703125,-0.296875,0.640625
1631632660531,0.703125,-0.28125,0.640625
1631632660562,0.703125,-0.28125,0.65625
1631632660593,0.703125,-0.296875,0.640625
1631632660625,0.703125,-0.296875,0.640625
1631632660656,0.703125,-0.296875,0.65625
1631632660687,0.703125,-0.296875,0.65625
1631632660718,0.703125,-0.296875,0.640625
1631632660750,0.703125,-0.296875,0.640625
1631632660781,0.703125,-0.296875,0.65625
1631632660812,0.703125,-0.296875,0.65625
1631632660843,0.703125,-0.296875,0.65625
1631632660875,0.703125,-0.296875,0.640625
1631632660906,0.703125,-0.296875,0.640625
1631632660937,0.703125,-0.296875,0.65625
1631632660968,0.703125,-0.296875,0.640625
1631632661000,0.703125,-0.28125,0.640625
1631632661031,0.703125,-0.296875,0.640625
1631632661062,0.703125,-0.296875,0.640625
1631632661093,0.703125,-0.28125,0.65625
1631632661125,0.703125,-0.28125,0.65625
1631632661156,0.703125,-0.296875,0.65625
1631632661187,0.703125,-0.296875,0.65625
1631632661218,0.703125,-0.296875,0.640625
1631632661250,0.703125,-0.296875,0.640625
1631632661281,0.703125,-0.296875,0.640625
1631632661312,0.703125,-0.28125,0.640625
1631632661343,0.703125,-0.296875,0.65625
1631632661375,0.703125,-0.296875,0.640625
1631632661406,0.703125,-0.296875,0.640625
1631632661437,0.703125,-0.296875,0.640625
1631632661468,0.703125,-0.296875,0.640625
1631632661500,0.703125,-0.28125,0.640625
1631632661531,0.703125,-0.28125,0.640625
1631632661562,0.703125,-0.28125,0.65625
1631632661593,0.703125,-0.28125,0.640625
1631632661625,0.703125,-0.28125,0.65625
1631632661656,0.703125,-0.296875,0.640625
1631632661687,0.703125,-0.296875,0.65625
1631632661718,0.703125,-0.296875,0.65625
1631632661750,0.703125,-0.296875,0.640625
1631632661781,0.703125,-0.296875,0.640625
1631632661812,0.703125,-0.296875,0.640625
1631632661843,0.71875,-0.296875,0.65625
1631632661875,0.703125,-0.296875,0.640625
1631632661906,0.703125,-0.296875,0.640625
1631632661937,0.703125,-0.296875,0.640625
1631632661968,0.703125,-0.28125,0.65625
1631632662000,0.703125,-0.28125,0.640625
1631632662031,0.703125,-0.28125,0.640625
1631632662062,0.703125,-0.28125,0.65625
1631632662093,0.703125,-0.28125,0.640625
1631632662125,0.703125,-0.28125,0.65625
1631632662156,0.703125,-0.296875,0.65625
1631632662187,0.703125,-0.296875,0.640625
1631632662218,0.703125,-0.28125,0.65625
1631632662250,0.703125,-0.296875,0.640625
1631632662281,0.703125,-0.28125,0.640625
1631632662312,0.703125,-0.296875,0.640625
1631632662343,0.703125,-0.28125,0.640625
1631632662375,0.703125,-0.296875,0.65625
1631632662406,0.703125,-0.296875,0.640625
1631632662437,0.703125,-0.296875,0.65625
1631632662468,0.703125,-0.28125,0.640625
1631632662500,0.703125,-0.28125,0.640625
1631632662531,0.703125,-0.296875,0.65625
1631632662562,0.703125,-0.296875,0.640625
1631632662593,0.703125,-0.28125,0.65625
1631632662625,0.703125,-0.28125,0.65625
1631632662656,0.703125,-0.296875,0.640625
1631632662687,0.703125,-0.28125,0.640625
1631632662718,0.703125,-0.296875,0.65625
1631632662750,0.703125,-0.28125,0.640625
1631632662781,0.703125,-0.296875,0.65625
1631632662812,0.703125,-0.28125,0.640625
1631632662843,0.703125,-0.296875,0.65625
1631632662875,0.703125,-0.296875,0.65625
1631632662906,0.703125,-0.296875,0.640625
1631632662937,0.703125,-0.28125,0.640625
1631632662968,0.703125,-0.296875,0.640625
1631632663000,0.703125,-0.28125,0.640625
1631632663031,0.703125,-0.296875,0.640625
1631632663062,0.703125,-0.296875,0.640625
1631632663093,0.703125,-0.296875,0.65625
1631632663125,0.703125,-0.28125,0.640625
1631632663156,0.703125,-0.296875,0.640625
1631632663187,0.703125,-0.296875,0.640625
1631632663218,0.703125,-0.296875,0.640625
1631632663250,0.703125,-0.296875,0.640625
1631632663281,0.703125,-0.296875,0.640625
1631632663312,0.703125,-0.28125,0.65625
1631632663343,0.703125,-0.296875,0.65625
1631632663375,0.703125,-0.296875,0.65625
1631632663406,0.703125,-0.296875,0.65625
1631632663437,0.703125,-0.296875,0.640625
1631632663468,0.703125,-0.28125,0.640625
1631632663500,0.703125,-0.296875,0.65625
1631632663531,0.703125,-0.296875,0.65625
1631632663562,0.703125,-0.28125,0.640625
1631632663593,0.703125,-0.296875,0.65625
1631632663625,0.703125,-0.296875,0.640625
1631632663656,0.703125,-0.296875,0.640625
1631632663687,0.703125,-0.296875,0.65625
1631632663718,0.703125,-0.296875,0.65625
1631632663750,0.703125,-0.28125,0.65625
1631632663781,0.703125,-0.28125,0.640625
1631632663812,0.703125,-0.296875,0.640625
1631632663843,0.703125,-0.296875,0.640625
1631632663875,0.703125,-0.296875,0.65625
1631632663906,0.703125,-0.296875,0.640625
1631632663937,0.703125,-0.296875,0.65625
1631632663968,0.703125,-0.296875,0.65625
1631632664000,0.703125,-0.28125,0.640625
1631632664031,0.703125,-0.296875,0.640625
1631632664062,0.703125,-0.28125,0.640625
1631632664093,0.703125,-0.296875,0.65625
1631632664125,0.703125,-0.296875,0.65625
1631632664156,0.703125,-0.296875,0.640625
1631632664187,0.703125,-0.296875,0.65625
1631632664218,0.703125,-0.296875,0.65625
1631632664250,0.703125,-0.28125,0.65625
1631632664281,0.703125,-0.296875,0.640625
1631632664312,0.703125,-0.296875,0.65625
1631632664343,0.703125,-0.296875,0.640625
1631632664375,0.703125,-0.296875,0.65625
1631632664406,0.703125,-0.296875,0.65625
1631632664437,0.703125,-0.296875,0.65625
1631632664468,0.703125,-0.296875,0.640625
1631632664500,0.703125,-0.296875,0.65625
1631632664531,0.703125,-0.296875,0.640625
1631632664562,0.703125,-0.296875,0.640625
1631632664593,0.703125,-0.28125,0.640625
1631632664625,0.703125,-0.28125,0.65625
1631632664656,0.703125,-0.296875,0.65625
1631632664687,0.703125,-0.296875,0.65625
1631632664718,0.703125,-0.296875,0.65625
1631632664750,0.703125,-0.296875,0.640625
1631632664781,0.703125,-0.296875,0.640625
1631632664812,0.703125,-0.28125,0.65625
1631632664843,0.703125,-0.28125,0.640625
1631632664875,0.703125,-0.296875,0.640625
1631632664906,0.703125,-0.28125,0.65625
1631632664937,0.703125,-0.296875,0.65625
1631632664968,0.703125,-0.296875,0.640625
1631632665000,0.703125,-0.296875,0.640625
1631632665031,0.703125,-0.296875,0.640625
1631632665062,0.703125,-0.28125,0.65625
1631632665093,0.703125,-0.28125,0.640625
1631632665125,0.703125,-0.28125,0.640625
1631632665156,0.703125,-0.296875,0.640625
1631632665187,0.703125,-0.296875,0.640625
1631632665218,0.703125,-0.28125,0.640625
1631632665250,0.703125,-0.296875,0.640625
1631632665281,0.703125,-0.296875,0.640625
1631632665312,0.703125,-0.296875,0.640625
1631632665343,0.703125,-0.28125,0.65625
1631632665375,0.703125,-0.28125,0.640625
1631632665406,0.703125,-0.28125,0.640625
1631632665437,0.703125,-0.296875,0.640625
1631632665468,0.703125,-0.28125,0.640625
1631632665500,0.703125,-0.28125,0.65625
1631632665531,0.703125,-0.296875,0.65625
1631632665562,0.703125,-0.28125,0.640625
1631632665593,0.703125,-0.28125,0.640625
1631632665625,0.703125,-0.296875,0.640625
1631632665656,0.71875,-0.296875,0.640625
1631632665687,0.71875,-0.296875,0.65625
1631632665718,0.703125,-0.296875,0.65625
1631632665750,0.703125,-0.296875,0.65625
1631632665781,0.703125,-0.296875,0.640625
1631632665812,0.703125,-0.296875,0.640625
1631632665843,0.703125,-0.296875,0.640625
1631632665875,0.703125,-0.296875,0.640625
1631632665906,0.703125,-0.28125,0.640625
1631632665937,0.703125,-0.28125,0.65625
1631632665968,0.703125,-0.296875,0.640625
1631632666000,0.703125,-0.296875,0.640625
1631632666031,0.703125,-0.296875,0.640625
1631632666062,0.703125,-0.28125,0.640625
1631632666093,0.703125,-0.296875,0.640625
1631632666125,0.703125,-0.296875,0.640625
1631632666156,0.703125,-0.296875,0.640625
1631632666187,0.703125,-0.28125,0.65625
1631632666218,0.703125,-0.28125,0.640625
1631632666250,0.703125,-0.296875,0.640625
1631632666281,0.703125,-0.296875,0.640625
1631632666312,0.703125,-0.296875,0.640625
1631632666343,0.703125,-0.296875,0.640625
1631632666375,0.703125,-0.28125,0.65625
1631632666406,0.703125,-0.28125,0.65625
1631632666437,0.703125,-0.296875,0.640625
1631632666468,0.703125,-0.296875,0.640625
1631632666500,0.703125,-0.296875,0.640625
1631632666531,0.703125,-0.28125,0.65625
1631632666562,0.703125,-0.28125,0.640625
1631632666593,0.703125,-0.296875,0.65625
1631632666625,0.703125,-0.296875,0.65625
1631632666656,0.703125,-0.296875,0.640625
1631632666687,0.703125,-0.296875,0.640625
1631632666718,0.703125,-0.296875,0.65625
1631632666750,0.703125,-0.296875,0.640625
1631632666781,0.703125,-0.296875,0.65625
1631632666812,0.703125,-0.296875,0.640625
1631632666843,0.703125,-0.296875,0.640625
1631632666875,0.703125,-0.28125,0.65625
1631632666906,0.703125,-0.296875,0.65625
1631632666937,0.703125,-0.296875,0.65625
1631632666968,0.703125,-0.28125,0.640625
1631632667000,0.703125,-0.296875,0.65625
1631632667031,0.703125,-0.296875,0.640625
1631632667062,0.703125,-0.28125,0.65625
1631632667093,0.703125,-0.28125,0.65625
1631632667125,0.703125,-0.28125,0.65625
1631632667156,0.703125,-0.296875,0.65625
1631632667187,0.703125,-0.296875,0.65625
1631632667218,0.703125,-0.296875,0.640625
1631632667250,0.703125,-0.28125,0.640625
1631632667281,0.703125,-0.28125,0.640625
1631632667312,0.703125,-0.296875,0.640625
1631632667343,0.703125,-0.296875,0.640625
1631632667375,0.703125,-0.296875,0.65625
1631632667406,0.703125,-0.296875,0.65625
1631632667437,0.703125,-0.296875,0.65625
1631632667468,0.703125,-0.296875,0.640625
1631632667500,0.703125,-0.296875,0.65625
1631632667531,0.703125,-0.296875,0.640625
1631632667562,0.703125,-0.28125,0.65625
1631632667593,0.703125,-0.28125,0.65625
1631632667625,0.703125,-0.296875,0.65625
1631632667656,0.703125,-0.296875,0.65625
1631632667687,0.703125,-0.28125,0.640625
1631632667718,0.703125,-0.296875,0.640625
1631632667750,0.703125,-0.296875,0.640625
1631632667781,0.703125,-0.28125,0.65625
1631632667812,0.703125,-0.296875,0.65625
1631632667843,0.703125,-0.296875,0.640625
1631632667875,0.703125,-0.28125,0.640625
1631632667906,0.703125,-0.296875,0.640625
1631632667937,0.703125,-0.28125,0.65625
1631632667968,0.703125,-0.296875,0.65625
1631632668000,0.703125,-0.296875,0.640625
1631632668031,0.703125,-0.296875,0.640625
1631632668062,0.703125,-0.296875,0.65625
1631632668093,0.703125,-0.296875,0.640625
1631632668125,0.703125,-0.28125,0.65625
1631632668156,0.703125,-0.28125,0.640625
1631632668187,0.703125,-0.296875,0.640625
1631632668218,0.703125,-0.28125,0.640625
1631632668250,0.703125,-0.296875,0.640625
1631632668281,0.703125,-0.296875,0.640625
1631632668312,0.703125,-0.296875,0.640625
1631632668343,0.703125,-0.28125,0.640625
1631632668375,0.703125,-0.28125,0.640625
1631632668406,0.703125,-0.296875,0.640625
1631632668437,0.703125,-0.28125,0.640625
1631632668468,0.703125,-0.296875,0.640625
1631632668500,0.703125,-0.296875,0.640625
1631632668531,0.703125,-0.296875,0.640625
1631632668562,0.703125,-0.28125,0.640625
1631632668593,0.703125,-0.28125,0.640625
1631632668625,0.703125,-0.28125,0.640625
1631632668656,0.703125,-0.296875,0.65625
1631632668687,0.703125,-0.28125,0.640625
1631632668718,0.703125,-0.28125,0.640625
1631632668750,0.703125,-0.28125,0.640625
1631632668781,0.703125,-0.28125,0.640625
1631632668812,0.703125,-0.296875,0.640625
1631632668843,0.703125,-0.28125,0.640625
1631632668875,0.703125,-0.296875,0.65625
1631632668906,0.703125,-0.28125,0.640625
1631632668937,0.703125,-0.28125,0.640625
1631632668968,0.703125,-0.296875,0.640625
1631632669000,0.71875,-0.296875,0.640625
1631632669031,0.71875,-0.28125,0.640625
1631632669062,0.703125,-0.296875,0.640625
1631632669093,0.703125,-0.28125,0.640625
1631632669125,0.703125,-0.296875,0.640625
1631632669156,0.703125,-0.28125,0.640625
1631632669187,0.703125,-0.296875,0.640625
1631632669218,0.703125,-0.28125,0.640625
1631632669250,0.703125,-0.28125,0.65625
1631632669281,0.703125,-0.296875,0.640625
1631632669312,0.703125,-0.296875,0.640625
1631632669343,0.703125,-0.28125,0.65625
1631632669375,0.703125,-0.296875,0.640625
1631632669406,0.703125,-0.28125,0.640625
1631632669437,0.703125,-0.296875,0.640625
1631632669468,0.703125,-0.296875,0.640625
1631632669500,0.703125,-0.296875,0.640625
1631632669531,0.703125,-0.296875,0.65625
1631632669562,0.703125,-0.28125,0.640625
1631632669593,0.703125,-0.296875,0.640625
1631632669625,0.703125,-0.28125,0.65625
1631632669656,0.703125,-0.296875,0.640625
1631632669687,0.703125,-0.296875,0.640625
1631632669718,0.703125,-0.28125,0.640625
1631632669750,0.703125,-0.28125,0.640625
1631632669781,0.703125,-0.28125,0.640625
1631632669812,0.703125,-0.296875,0.640625
1631632669843,0.703125,-0.296875,0.640625
1631632669875,0.703125,-0.28125,0.65625
1631632669906,0.703125,-0.28125,0.640625
1631632669937,0.703125,-0.296875,0.65625
1631632669968,0.703125,-0.296875,0.640625
1631632670000,0.703125,-0.296875,0.640625
1631632670031,0.703125,-0.296875,0.65625
1631632670062,0.703125,-0.28125,0.640625
1631632670093,0.703125,-0.28125,0.640625
1631632670125,0.71875,-0.296875,0.640625
1631632670156,0.703125,-0.296875,0.640625
1631632670187,0.703125,-0.296875,0.65625
1631632670218,0.703125,-0.296875,0.640625
1631632670250,0.703125,-0.296875,0.65625
1631632670281,0.703125,-0.296875,0.640625
1631632670312,0.703125,-0.296875,0.65625
1631632670343,0.703125,-0.296875,0.640625
1631632670375,0.703125,-0.28125,0.640625
1631632670406,0.703125,-0.296875,0.65625
1631632670437,0.703125,-0.296875,0.65625
1631632670468,0.703125,-0.296875,0.65625
1631632670500,0.703125,-0.296875,0.65625
1631632670531,0.703125,-0.28125,0.640625
1631632670562,0.703125,-0.296875,0.640625
1631632670593,0.703125,-0.296875,0.640625
1631632670625,0.703125,-0.296875,0.640625
1631632670656,0.703125,-0.296875,0.65625
1631632670687,0.703125,-0.296875,0.640625
1631632670718,0.703125,-0.296875,0.640625
1631632670750,0.703125,-0.28125,0.65625
1631632670781,0.703125,-0.296875,0.640625
1631632670812,0.703125,-0.296875,0.65625
1631632670843,0.703125,-0.28125,0.65625
1631632670875,0.703125,-0.296875,0.65625
1631632670906,0.703125,-0.296875,0.640625
1631632670937,0.703125,-0.296875,0.65625
1631632670968,0.703125,-0.296875,0.65625
1631632671000,0.703125,-0.296875,0.65625
1631632671031,0.703125,-0.296875,0.640625
1631632671062,0.703125,-0.296875,0.640625
1631632671093,0.703125,-0.28125,0.65625
1631632671125,0.703125,-0.296875,0.640625
1631632671156,0.703125,-0.28125,0.65625
1631632671187,0.703125,-0.296875,0.640625
1631632671218,0.703125,-0.296875,0.640625
1631632671250,0.703125,-0.296875,0.65625
1631632671281,0.703125,-0.296875,0.640625
1631632671312,0.703125,-0.296875,0.640625
1631632671343,0.703125,-0.296875,0.640625
1631632671375,0.703125,-0.28125,0.640625
1631632671406,0.703125,-0.28125,0.640625
1631632671437,0.703125,-0.28125,0.65625
1631632671468,0.703125,-0.28125,0.640625
1631632671500,0.703125,-0.296875,0.640625
1631632671531,0.703125,-0.28125,0.640625
1631632671562,0.703125,-0.28125,0.640625
1631632671593,0.703125,-0.28125,0.640625
1631632671625,0.703125,-0.296875,0.65625
1631632671656,0.703125,-0.28125,0.640625
1631632671687,0.703125,-0.296875,0.65625
1631632671718,0.703125,-0.296875,0.640625
1631632671750,0.703125,-0.296875,0.640625
1631632671781,0.703125,-0.28125,0.65625
1631632671812,0.703125,-0.28125,0.640625
1631632671843,0.703125,-0.28125,0.640625
1631632671875,0.703125,-0.296875,0.640625
1631632671906,0.703125,-0.296875,0.640625
1631632671937,0.71875,-0.296875,0.640625
1631632671968,0.703125,-0.296875,0.640625
1631632672000,0.703125,-0.296875,0.640625
1631632672031,0.703125,-0.296875,0.640625
1631632672062,0.703125,-0.296875,0.640625
1631632672093,0.703125,-0.296875,0.640625
1631632672125,0.703125,-0.296875,0.640625
1631632672156,0.703125,-0.28125,0.640625
1631632672187,0.71875,-0.296875,0.640625
1631632672218,0.703125,-0.28125,0.640625
1631632672250,0.703125,-0.296875,0.640625
1631632672281,0.71875,-0.28125,0.640625
1631632672312,0.71875,-0.28125,0.640625
1631632672343,0.71875,-0.296875,0.640625
1631632672375,0.703125,-0.296875,0.640625
1631632672406,0.703125,-0.28125,0.640625
1631632672437,0.703125,-0.296875,0.640625
1631632672468,0.703125,-0.296875,0.640625
1631632672500,0.703125,-0.296875,0.640625
1631632672531,0.703125,-0.28125,0.640625
1631632672562,0.703125,-0.28125,0.65625
1631632672593,0.703125,-0.296875,0.640625
1631632672625,0.71875,-0.296875,0.640625
1631632672656,0.703125,-0.28125,0.640625
1631632672687,0.703125,-0.28125,0.640625
1631632672718,0.703125,-0.296875,0.640625
1631632672750,0.703125,-0.28125,0.640625
1631632672781,0.703125,-0.296875,0.640625
1631632672812,0.703125,-0.296875,0.65625
1631632672843,0.703125,-0.296875,0.640625
1631632672875,0.703125,-0.28125,0.640625
1631632672906,0.703125,-0.296875,0.640625
1631632672937,0.703125,-0.296875,0.640625
1631632672968,0.703125,-0.28125,0.640625
1631632673000,0.703125,-0.28125,0.640625
1631632673031,0.703125,-0.296875,0.65625
1631632673062,0.703125,-0.296875,0.640625
1631632673093,0.703125,-0.296875,0.640625
1631632673125,0.703125,-0.28125,0.640625
1631632673156,0.703125,-0.28125,0.65625
1631632673187,0.703125,-0.28125,0.65625
1631632673218,0.703125,-0.296875,0.640625
1631632673250,0.703125,-0.296875,0.640625
1631632673281,0.703125,-0.296875,0.640625
1631632673312,0.703125,-0.296875,0.640625
1631632673343,0.703125,-0.296875,0.640625
1631632673375,0.703125,-0.28125,0.65625
1631632673406,0.703125,-0.296875,0.640625
1631632673437,0.703125,-0.296875,0.640625
1631632673468,0.703125,-0.28125,0.640625
1631632673500,0.703125,-0.296875,0.65625
1631632673531,0.703125,-0.296875,0.65625
1631632673562,0.703125,-0.28125,0.65625
1631632673593,0.703125,-0.296875,0.640625
1631632673625,0.703125,-0.28125,0.640625
1631632673656,0.703125,-0.28125,0.640625
1631632673687,0.703125,-0.296875,0.65625
1631632673718,0.703125,-0.296875,0.65625
1631632673750,0.703125,-0.28125,0.65625
1631632673781,0.703125,-0.296875,0.640625
1631632673812,0.703125,-0.28125,0.65625
1631632673843,0.703125,-0.296875,0.65625
1631632673875,0.703125,-0.296875,0.640625
1631632673906,0.703125,-0.28125,0.640625
1631632673937,0.703125,-0.296875,0.640625
1631632673968,0.703125,-0.296875,0.640625
1631632674000,0.703125,-0.296875,0.640625
1631632674031,0.703125,-0.296875,0.640625
1631632674062,0.703125,-0.28125,0.640625
1631632674093,0.703125,-0.28125,0.65625
1631632674125,0.703125,-0.28125,0.65625
1631632674156,0.703125,-0.28125,0.65625
1631632674187,0.703125,-0.28125,0.65625
1631632674218,0.703125,-0.28125,0.640625
1631632674250,0.703125,-0.296875,0.65625
1631632674281,0.703125,-0.296875,0.640625
1631632674312,0.703125,-0.28125,0.640625
1631632674343,0.703125,-0.28125,0.640625
1631632674375,0.703125,-0.296875,0.640625
1631632674406,0.703125,-0.296875,0.640625
1631632674437,0.703125,-0.296875,0.65625
1631632674468,0.703125,-0.296875,0.65625
1631632674500,0.703125,-0.28125,0.640625
1631632674531,0.703125,-0.296875,0.65625
1631632674562,0.703125,-0.296875,0.640625
1631632674593,0.703125,-0.296875,0.640625
1631632674625,0.703125,-0.28125,0.640625
1631632674656,0.703125,-0.296875,0.640625
1631632674687,0.703125,-0.28125,0.640625
1631632674718,0.703125,-0.28125,0.640625
1631632674750,0.703125,-0.28125,0.640625
1631632674781,0.703125,-0.296875,0.640625
1631632674812,0.703125,-0.296875,0.640625
1631632674843,0.703125,-0.296875,0.640625
1631632674875,0.703125,-0.28125,0.640625
1631632674906,0.703125,-0.296875,0.640625
1631632674937,0.703125,-0.28125,0.640625
1631632674968,0.703125,-0.28125,0.640625
1631632675000,0.703125,-0.296875,0.65625
1631632675031,0.703125,-0.28125,0.640625
1631632675062,0.703125,-0.28125,0.640625
1631632675093,0.703125,-0.296875,0.640625
1631632675125,0.71875,-0.28125,0.640625
1631632675156,0.71875,-0.28125,0.65625
1631632675187,0.703125,-0.28125,0.65625
1631632675218,0.703125,-0.28125,0.65625
1631632675250,0.703125,-0.296875,0.640625
1631632675281,0.703125,-0.296875,0.65625
1631632675312,0.703125,-0.28125,0.640625
1631632675343,0.703125,-0.296875,0.640625
1631632675375,0.71875,-0.28125,0.640625
1631632675406,0.703125,-0.28125,0.640625
1631632675437,0.71875,-0.296875,0.640625
1631632675468,0.703125,-0.296875,0.640625
1631632675500,0.703125,-0.296875,0.640625
1631632675531,0.703125,-0.296875,0.640625
1631632675562,0.703125,-0.296875,0.640625
1631632675593,0.703125,-0.296875,0.640625
1631632675625,0.71875,-0.28125,0.640625
1631632675656,0.703125,-0.28125,0.640625
1631632675687,0.703125,-0.296875,0.640625
1631632675718,0.703125,-0.296875,0.640625
1631632675750,0.703125,-0.28125,0.640625
1631632675781,0.703125,-0.28125,0.640625
1631632675812,0.71875,-0.296875,0.640625
1631632675843,0.703125,-0.296875,0.640625
1631632675875,0.703125,-0.296875,0.640625
1631632675906,0.703125,-0.28125,0.640625
1631632675937,0.703125,-0.28125,0.640625
1631632675968,0.703125,-0.296875,0.640625
1631632676000,0.703125,-0.296875,0.640625
1631632676031,0.703125,-0.296875,0.640625
1631632676062,0.71875,-0.28125,0.640625
1631632676093,0.71875,-0.28125,0.640625
1631632676125,0.71875,-0.296875,0.640625
1631632676156,0.703125,-0.296875,0.640625
1631632676187,0.703125,-0.28125,0.640625
1631632676218,0.71875,-0.28125,0.640625
1631632676250,0.71875,-0.296875,0.640625
1631632676281,0.703125,-0.28125,0.640625
1631632676312,0.703125,-0.28125,0.640625
1631632676343,0.71875,-0.28125,0.640625
1631632676375,0.703125,-0.296875,0.65625
1631632676406,0.703125,-0.296875,0.65625
1631632676437,0.703125,-0.296875,0.640625
1631632676468,0.703125,-0.28125,0.640625
1631632676500,0.703125,-0.28125,0.640625
1631632676531,0.71875,-0.296875,0.640625
1631632676562,0.71875,-0.28125,0.640625
1631632676593,0.703125,-0.28125,0.65625
1631632676625,0.703125,-0.296875,0.640625
1631632676656,0.703125,-0.296875,0.640625
1631632676687,0.71875,-0.296875,0.640625
1631632676718,0.703125,-0.296875,0.640625
1631632676750,0.703125,-0.296875,0.65625
1631632676781,0.703125,-0.296875,0.640625
1631632676812,0.71875,-0.28125,0.640625
1631632676843,0.71875,-0.296875,0.640625
1631632676875,0.703125,-0.296875,0.640625
1631632676906,0.703125,-0.28125,0.640625
1631632676937,0.703125,-0.296875,0.640625
1631632676968,0.703125,-0.296875,0.640625
1631632677000,0.703125,-0.28125,0.640625
1631632677031,0.703125,-0.296875,0.640625
1631632677062,0.703125,-0.296875,0.640625
1631632677093,0.703125,-0.296875,0.640625
1631632677125,0.703125,-0.296875,0.640625
1631632677156,0.703125,-0.296875,0.640625
1631632677187,0.703125,-0.28125,0.640625
1631632677218,0.703125,-0.28125,0.640625
1631632677250,0.703125,-0.296875,0.640625
1631632677281,0.703125,-0.296875,0.640625
1631632677312,0.703125,-0.28125,0.65625
1631632677343,0.703125,-0.296875,0.640625
1631632677375,0.703125,-0.296875,0.65625
1631632677406,0.703125,-0.28125,0.640625
1631632677437,0.703125,-0.296875,0.640625
1631632677468,0.703125,-0.28125,0.65625
1631632677500,0.703125,-0.28125,0.65625
1631632677531,0.703125,-0.28125,0.65625
1631632677562,0.703125,-0.296875,0.65625
1631632677593,0.703125,-0.296875,0.640625
1631632677625,0.703125,-0.296875,0.640625
1631632677656,0.703125,-0.296875,0.65625
1631632677687,0.703125,-0.296875,0.640625
1631632677718,0.703125,-0.296875,0.65625
1631632677750,0.703125,-0.296875,0.640625
1631632677781,0.703125,-0.296875,0.640625
1631632677812,0.703125,-0.296875,0.640625
1631632677843,0.703125,-0.296875,0.65625
1631632677875,0.703125,-0.296875,0.65625
1631632677906,0.703125,-0.28125,0.640625
1631632677937,0.703125,-0.28125,0.640625
1631632677968,0.703125,-0.296875,0.640625
1631632678000,0.703125,-0.296875,0.640625
1631632678031,0.703125,-0.28125,0.640625
1631632678062,0.703125,-0.28125,0.640625
1631632678093,0.703125,-0.296875,0.640625
1631632678125,0.703125,-0.28125,0.640625
1631632678156,0.703125,-0.28125,0.65625
1631632678187,0.703125,-0.28125,0.640625
1631632678218,0.703125,-0.28125,0.65625
1631632678250,0.703125,-0.28125,0.65625
1631632678281,0.703125,-0.296875,0.640625
1631632678312,0.703125,-0.296875,0.640625
1631632678343,0.703125,-0.296875,0.640625
1631632678375,0.703125,-0.296875,0.640625
1631632678406,0.703125,-0.296875,0.65625
1631632678437,0.703125,-0.28125,0.640625
1631632678468,0.703125,-0.296875,0.640625
1631632678500,0.703125,-0.28125,0.640625
1631632678531,0.703125,-0.296875,0.65625
1631632678562,0.703125,-0.296875,0.640625
1631632678593,0.703125,-0.296875,0.640625
1631632678625,0.703125,-0.28125,0.65625
1631632678656,0.703125,-0.28125,0.640625
1631632678687,0.703125,-0.28125,0.640625
1631632678718,0.703125,-0.296875,0.640625
1631632678750,0.703125,-0.28125,0.640625
1631632678781,0.703125,-0.296875,0.640625
1631632678812,0.703125,-0.296875,0.640625
1631632678843,0.703125,-0.28125,0.640625
1631632678875,0.703125,-0.28125,0.640625
1631632678906,0.703125,-0.296875,0.640625
1631632678937,0.703125,-0.296875,0.640625
1631632678968,0.703125,-0.28125,0.640625
1631632679000,0.703125,-0.296875,0.640625
1631632679031,0.703125,-0.28125,0.640625
1631632679062,0.703125,-0.296875,0.640625
1631632679093,0.703125,-0.296875,0.640625
1631632679125,0.71875,-0.28125,0.640625
1631632679156,0.703125,-0.28125,0.640625
1631632679187,0.703125,-0.296875,0.640625
1631632679218,0.703125,-0.28125,0.640625
1631632679250,0.703125,-0.28125,0.640625
1631632679281,0.71875,-0.296875,0.65625
1631632679312,0.703125,-0.296875,0.640625
1631632679343,0.703125,-0.296875,0.640625
1631632679375,0.703125,-0.296875,0.640625
1631632679406,0.703125,-0.296875,0.640625
1631632679437,0.71875,-0.296875,0.640625
1631632679468,0.703125,-0.296875,0.640625
1631632679500,0.703125,-0.296875,0.640625
1631632679531,0.703125,-0.28125,0.65625
1631632679562,0.703125,-0.296875,0.640625
1631632679593,0.703125,-0.296875,0.65625
1631632679625,0.703125,-0.28125,0.640625
1631632679656,0.703125,-0.28125,0.640625
1631632679687,0.703125,-0.28125,0.640625
1631632679718,0.703125,-0.296875,0.640625
1631632679750,0.71875,-0.28125,0.640625
1631632679781,0.703125,-0.296875,0.640625
1631632679812,0.703125,-0.296875,0.65625
1631632679843,0.703125,-0.296875,0.640625
1631632679875,0.703125,-0.28125,0.640625
1631632679906,0.703125,-0.296875,0.640625
1631632679937,0.703125,-0.28125,0.65625
1631632679968,0.703125,-0.296875,0.640625
1631632680000,0.703125,-0.296875,0.65625
1631632680031,0.703125,-0.28125,0.640625
1631632680062,0.703125,-0.296875,0.640625
1631632680093,0.703125,-0.296875,0.640625
1631632680125,0.703125,-0.296875,0.640625
1631632680156,0.703125,-0.296875,0.640625
1631632680187,0.703125,-0.296875,0.640625
1631632680218,0.703125,-0.296875,0.65625
1631632680250,0.703125,-0.296875,0.640625
1631632680281,0.703125,-0.296875,0.640625
1631632680312,0.703125,-0.296875,0.65625
1631632680343,0.703125,-0.28125,0.640625
1631632680375,0.703125,-0.28125,0.65625
1631632680406,0.703125,-0.28125,0.640625
1631632680437,0.703125,-0.296875,0.640625
1631632680468,0.703125,-0.296875,0.640625
1631632680500,0.703125,-0.296875,0.640625
1631632680531,0.703125,-0.296875,0.640625
1631632680562,0.703125,-0.296875,0.640625
1631632680593,0.703125,-0.28125,0.640625
1631632680625,0.703125,-0.296875,0.640625
1631632680656,0.703125,-0.296875,0.65625
1631632680687,0.703125,-0.296875,0.640625
1631632680718,0.703125,-0.296875,0.65625
1631632680750,0.703125,-0.296875,0.640625
1631632680781,0.703125,-0.296875,0.640625
1631632680812,0.703125,-0.296875,0.640625
1631632680843,0.703125,-0.296875,0.65625
1631632680875,0.703125,-0.28125,0.65625
1631632680906,0.703125,-0.28125,0.640625
1631632680937,0.703125,-0.296875,0.65625
1631632680968,0.703125,-0.296875,0.640625
1631632681000,0.703125,-0.28125,0.65625
1631632681031,0.703125,-0.296875,0.65625
1631632681062,0.703125,-0.296875,0.640625
1631632681093,0.703125,-0.296875,0.640625
1631632681125,0.703125,-0.296875,0.65625
1631632681156,0.703125,-0.296875,0.640625
1631632681187,0.703125,-0.296875,0.640625
1631632681218,0.703125,-0.28125,0.65625
1631632681250,0.703125,-0.28125,0.640625
1631632681281,0.703125,-0.296875,0.640625
1631632681312,0.703125,-0.296875,0.640625
1631632681343,0.703125,-0.296875,0.65625
1631632681375,0.703125,-0.296875,0.640625
1631632681406,0.703125,-0.296875,0.640625
1631632681437,0.703125,-0.28125,0.640625
1631632681468,0.703125,-0.28125,0.640625
1631632681500,0.703125,-0.28125,0.640625
1631632681531,0.703125,-0.296875,0.640625
1631632681562,0.703125,-0.28125,0.640625
1631632681593,0.703125,-0.296875,0.640625
1631632681625,0.703125,-0.296875,0.640625
1631632681656,0.703125,-0.28125,0.640625
1631632681687,0.703125,-0.296875,0.65625
1631632681718,0.703125,-0.28125,0.640625
1631632681750,0.703125,-0.296875,0.640625
1631632681781,0.71875,-0.296875,0.640625
1631632681812,0.703125,-0.296875,0.640625
1631632681843,0.703125,-0.296875,0.640625
1631632681875,0.703125,-0.28125,0.640625
1631632681906,0.71875,-0.296875,0.640625
1631632681937,0.703125,-0.296875,0.640625
1631632681968,0.703125,-0.28125,0.640625
1631632682000,0.703125,-0.296875,0.65625
1631632682031,0.703125,-0.296875,0.65625
1631632682062,0.703125,-0.28125,0.640625
1631632682093,0.703125,-0.28125,0.640625
1631632682125,0.703125,-0.296875,0.640625
1631632682156,0.703125,-0.296875,0.640625
1631632682187,0.703125,-0.296875,0.640625
1631632682218,0.703125,-0.296875,0.640625
1631632682250,0.703125,-0.296875,0.640625
1631632682281,0.703125,-0.296875,0.640625
1631632682312,0.703125,-0.28125,0.640625
1631632682343,0.703125,-0.28125,0.640625
1631632682375,0.703125,-0.296875,0.640625
1631632682406,0.703125,-0.296875,0.640625
1631632682437,0.703125,-0.296875,0.640625
1631632682468,0.703125,-0.28125,0.65625
1631632682500,0.703125,-0.296875,0.640625
1631632682531,0.703125,-0.28125,0.65625
1631632682562,0.703125,-0.28125,0.640625
1631632682593,0.703125,-0.28125,0.640625
1631632682625,0.703125,-0.28125,0.640625
1631632682656,0.703125,-0.296875,0.640625
1631632682687,0.703125,-0.296875,0.640625
1631632682718,0.703125,-0.28125,0.640625
1631632682750,0.703125,-0.28125,0.65625
1631632682781,0.703125,-0.296875,0.65625
1631632682812,0.703125,-0.296875,0.640625
1631632682843,0.703125,-0.296875,0.640625
1631632682875,0.703125,-0.296875,0.65625
1631632682906,0.703125,-0.28125,0.640625
1631632682937,0.703125,-0.296875,0.65625
1631632682968,0.703125,-0.28125,0.65625
1631632683000,0.703125,-0.296875,0.65625
1631632683031,0.703125,-0.28125,0.640625
1631632683062,0.703125,-0.296875,0.640625
1631632683093,0.703125,-0.296875,0.65625
1631632683125,0.703125,-0.296875,0.640625
1631632683156,0.703125,-0.28125,0.640625
1631632683187,0.703125,-0.28125,0.640625
1631632683218,0.703125,-0.28125,0.65625
1631632683250,0.703125,-0.296875,0.65625
1631632683281,0.703125,-0.28125,0.640625
1631632683312,0.703125,-0.296875,0.65625
1631632683343,0.703125,-0.296875,0.640625
1631632683375,0.703125,-0.28125,0.640625
1631632683406,0.703125,-0.296875,0.640625
1631632683437,0.703125,-0.296875,0.640625
1631632683468,0.71875,-0.28125,0.65625
1631632683500,0.703125,-0.296875,0.65625
1631632683531,0.703125,-0.28125,0.640625
1631632683562,0.703125,-0.296875,0.65625
1631632683593,0.703125,-0.296875,0.65625
1631632683625,0.703125,-0.296875,0.640625
1631632683656,0.703125,-0.296875,0.640625
1631632683687,0.703125,-0.296875,0.640625
1631632683718,0.703125,-0.296875,0.65625
1631632683750,0.703125,-0.296875,0.640625
1631632683781,0.703125,-0.296875,0.640625
1631632683812,0.703125,-0.296875,0.640625
1631632683843,0.703125,-0.296875,0.640625
1631632683875,0.703125,-0.296875,0.640625
1631632683906,0.703125,-0.296875,0.640625
1631632683937,0.703125,-0.28125,0.640625
1631632683968,0.703125,-0.28125,0.640625
1631632684000,0.703125,-0.296875,0.640625
1631632684031,0.703125,-0.296875,0.640625
1631632684062,0.703125,-0.28125,0.640625
1631632684093,0.703125,-0.28125,0.640625
1631632684125,0.71875,-0.28125,0.640625
1631632684156,0.703125,-0.296875,0.640625
1631632684187,0.703125,-0.28125,0.640625
1631632684218,0.703125,-0.296875,0.640625
1631632684250,0.703125,-0.296875,0.640625
1631632684281,0.703125,-0.296875,0.640625
1631632684312,0.703125,-0.296875,0.640625
1631632684343,0.703125,-0.28125,0.640625
1631632684375,0.703125,-0.296875,0.640625
1631632684406,0.703125,-0.28125,0.640625
1631632684437,0.703125,-0.296875,0.640625
1631632684468,0.703125,-0.296875,0.640625
1631632684500,0.703125,-0.296875,0.640625
1631632684531,0.71875,-0.296875,0.640625
1631632684562,0.703125,-0.28125,0.640625
1631632684593,0.71875,-0.28125,0.640625
1631632684625,0.71875,-0.296875,0.640625
1631632684656,0.703125,-0.28125,0.640625
1631632684687,0.703125,-0.296875,0.640625
1631632684718,0.703125,-0.296875,0.640625
1631632684750,0.703125,-0.296875,0.640625
1631632684781,0.703125,-0.296875,0.640625
1631632684812,0.703125,-0.296875,0.640625
1631632684843,0.703125,-0.28125,0.640625
1631632684875,0.703125,-0.296875,0.640625
1631632684906,0.703125,-0.296875,0.640625
1631632684937,0.703125,-0.296875,0.640625
1631632684968,0.703125,-0.296875,0.640625
1631632685000,0.703125,-0.296875,0.640625
1631632685031,0.71875,-0.28125,0.640625
1631632685062,0.703125,-0.28125,0.640625
1631632685093,0.71875,-0.28125,0.640625
1631632685125,0.703125,-0.296875,0.640625
1631632685156,0.703125,-0.296875,0.640625
1631632685187,0.703125,-0.296875,0.65625
1631632685218,0.703125,-0.296875,0.65625
1631632685250,0.703125,-0.28125,0.640625
1631632685281,0.703125,-0.28125,0.640625
1631632685312,0.703125,-0.296875,0.640625
1631632685343,0.703125,-0.296875,0.640625
1631632685375,0.703125,-0.296875,0.640625
1631632685406,0.703125,-0.296875,0.65625
1631632685437,0.71875,-0.296875,0.65625
1631632685468,0.703125,-0.28125,0.65625
1631632685500,0.703125,-0.296875,0.65625
1631632685531,0.703125,-0.28125,0.640625
1631632685562,0.703125,-0.296875,0.640625
1631632685593,0.703125,-0.296875,0.640625
1631632685625,0.703125,-0.296875,0.65625
1631632685656,0.703125,-0.28125,0.640625
1631632685687,0.703125,-0.296875,0.640625
1631632685718,0.71875,-0.28125,0.640625
1631632685750,0.703125,-0.28125,0.65625
1631632685781,0.703125,-0.28125,0.65625
1631632685812,0.703125,-0.28125,0.65625
1631632685843,0.703125,-0.296875,0.640625
1631632685875,0.703125,-0.296875,0.65625
1631632685906,0.703125,-0.296875,0.640625
1631632685937,0.703125,-0.296875,0.65625
1631632685968,0.703125,-0.28125,0.65625
1631632686000,0.703125,-0.28125,0.65625
1631632686031,0.703125,-0.28125,0.65625
1631632686062,0.703125,-0.28125,0.65625
1631632686093,0.703125,-0.28125,0.65625
1631632686125,0.703125,-0.296875,0.65625
1631632686156,0.703125,-0.296875,0.65625
1631632686187,0.703125,-0.28125,0.640625
1631632686218,0.703125,-0.28125,0.640625
1631632686250,0.703125,-0.28125,0.640625
1631632686281,0.703125,-0.28125,0.640625
1631632686312,0.703125,-0.28125,0.65625
1631632686343,0.703125,-0.28125,0.65625
1631632686375,0.703125,-0.28125,0.65625
1631632686406,0.703125,-0.28125,0.640625
1631632686437,0.703125,-0.296875,0.640625
1631632686468,0.703125,-0.28125,0.640625
1631632686500,0.703125,-0.28125,0.640625
1631632686531,0.703125,-0.28125,0.65625
1631632686562,0.703125,-0.28125,0.640625
1631632686593,0.703125,-0.28125,0.65625
1631632686625,0.703125,-0.28125,0.65625
1631632686656,0.703125,-0.28125,0.65625
1631632686687,0.703125,-0.28125,0.640625
1631632686718,0.703125,-0.28125,0.640625
1631632686750,0.703125,-0.28125,0.65625
1631632686781,0.703125,-0.28125,0.65625
1631632686812,0.703125,-0.296875,0.640625
1631632686843,0.703125,-0.28125,0.65625
1631632686875,0.703125,-0.28125,0.640625
1631632686906,0.703125,-0.296875,0.640625
1631632686937,0.703125,-0.28125,0.640625
1631632686968,0.703125,-0.296875,0.640625
1631632687000,0.703125,-0.28125,0.65625
1631632687031,0.703125,-0.28125,0.640625
1631632687062,0.703125,-0.28125,0.640625
1631632687093,0.703125,-0.296875,0.65625
1631632687125,0.703125,-0.296875,0.640625
1631632687156,0.703125,-0.28125,0.640625
1631632687187,0.703125,-0.28125,0.640625
1631632687218,0.703125,-0.28125,0.65625
1631632687250,0.703125,-0.296875,0.640625
1631632687281,0.703125,-0.296875,0.640625
1631632687312,0.703125,-0.28125,0.640625
1631632687343,0.703125,-0.296875,0.640625
1631632687375,0.703125,-0.28125,0.640625
1631632687406,0.703125,-0.296875,0.640625
1631632687437,0.703125,-0.296875,0.65625
1631632687468,0.703125,-0.296875,0.640625
1631632687500,0.703125,-0.28125,0.65625
1631632687531,0.703125,-0.28125,0.65625
1631632687562,0.703125,-0.296875,0.640625
1631632687593,0.703125,-0.296875,0.640625
1631632687625,0.703125,-0.28125,0.640625
1631632687656,0.703125,-0.296875,0.640625
1631632687687,0.703125,-0.296875,0.65625
1631632687718,0.703125,-0.28125,0.65625
1631632687750,0.703125,-0.296875,0.65625
1631632687781,0.703125,-0.28125,0.640625
1631632687812,0.703125,-0.28125,0.65625
1631632687843,0.703125,-0.28125,0.640625
1631632687875,0.703125,-0.28125,0.65625
1631632687906,0.703125,-0.28125,0.640625
1631632687937,0.703125,-0.28125,0.65625
1631632687968,0.703125,-0.296875,0.65625
1631632688000,0.703125,-0.296875,0.640625
1631632688031,0.703125,-0.28125,0.640625
1631632688062,0.703125,-0.28125,0.640625
1631632688093,0.703125,-0.28125,0.640625
1631632688125,0.703125,-0.28125,0.65625
1631632688156,0.703125,-0.28125,0.65625
1631632688187,0.703125,-0.28125,0.640625
1631632688218,0.703125,-0.296875,0.65625
1631632688250,0.703125,-0.28125,0.65625
1631632688281,0.703125,-0.28125,0.65625
1631632688312,0.703125,-0.28125,0.65625
1631632688343,0.703125,-0.296875,0.65625
1631632688375,0.703125,-0.28125,0.65625
1631632688406,0.703125,-0.28125,0.640625
1631632688437,0.703125,-0.28125,0.65625
1631632688468,0.703125,-0.296875,0.65625
1631632688500,0.703125,-0.296875,0.65625
1631632688531,0.703125,-0.28125,0.65625
1631632688562,0.703125,-0.28125,0.65625
1631632688593,0.703125,-0.28125,0.65625
1631632688625,0.703125,-0.28125,0.65625
1631632688656,0.703125,-0.28125,0.65625
1631632688687,0.703125,-0.296875,0.65625
1631632688718,0.703125,-0.28125,0.640625
1631632688750,0.703125,-0.28125,0.640625
1631632688781,0.703125,-0.28125,0.640625
1631632688812,0.703125,-0.28125,0.65625
1631632688843,0.703125,-0.28125,0.65625
1631632688875,0.703125,-0.28125,0.65625
1631632688906,0.703125,-0.296875,0.65625
1631632688937,0.703125,-0.28125,0.65625
1631632688968,0.703125,-0.28125,0.65625
1631632689000,0.703125,-0.28125,0.640625
1631632689031,0.703125,-0.296875,0.640625
1631632689062,0.703125,-0.28125,0.65625
1631632689093,0.703125,-0.28125,0.65625
1631632689125,0.703125,-0.28125,0.65625
1631632689156,0.703125,-0.28125,0.640625
1631632689187,0.703125,-0.28125,0.640625
1631632689218,0.703125,-0.296875,0.65625
1631632689250,0.703125,-0.28125,0.640625
1631632689281,0.703125,-0.28125,0.65625
1631632689312,0.703125,-0.28125,0.640625
1631632689343,0.703125,-0.28125,0.65625
1631632689375,0.703125,-0.28125,0.640625
1631632689406,0.703125,-0.28125,0.640625
1631632689437,0.703125,-0.28125,0.65625
1631632689468,0.703125,-0.28125,0.65625
1631632689500,0.703125,-0.28125,0.65625
1631632689531,0.703125,-0.28125,0.65625
1631632689562,0.703125,-0.28125,0.65625
1631632689593,0.703125,-0.28125,0.65625
1631632689625,0.703125,-0.28125,0.65625
1631632689656,0.703125,-0.28125,0.640625
1631632689687,0.703125,-0.28125,0.640625
1631632689718,0.703125,-0.28125,0.640625
1631632689750,0.703125,-0.28125,0.640625
1631632689781,0.703125,-0.28125,0.640625
1631632689812,0.703125,-0.28125,0.65625
1631632689843,0.703125,-0.28125,0.65625
1631632689875,0.703125,-0.28125,0.65625
1631632689906,0.703125,-0.28125,0.640625
1631632689937,0.703125,-0.28125,0.65625
1631632689968,0.703125,-0.28125,0.65625
1631632690000,0.703125,-0.28125,0.640625
1631632690031,0.703125,-0.28125,0.640625
1631632690062,0.703125,-0.28125,0.640625
1631632690093,0.703125,-0.28125,0.65625
1631632690125,0.703125,-0.28125,0.640625
1631632690156,0.703125,-0.28125,0.640625
1631632690187,0.703125,-0.28125,0.65625
1631632690218,0.703125,-0.28125,0.65625
1631632690250,0.703125,-0.28125,0.65625
1631632690281,0.703125,-0.28125,0.65625
1631632690312,0.703125,-0.28125,0.640625
1631632690343,0.703125,-0.28125,0.640625
1631632690375,0.703125,-0.296875,0.640625
1631632690406,0.703125,-0.296875,0.640625
1631632690437,0.703125,-0.28125,0.640625
1631632690468,0.703125,-0.28125,0.65625
1631632690500,0.703125,-0.28125,0.65625
1631632690531,0.703125,-0.28125,0.65625
1631632690562,0.703125,-0.28125,0.65625
1631632690593,0.703125,-0.28125,0.640625
1631632690625,0.703125,-0.28125,0.65625
1631632690656,0.703125,-0.28125,0.640625
1631632690687,0.703125,-0.28125,0.65625
1631632690718,0.703125,-0.28125,0.640625
1631632690750,0.703125,-0.28125,0.640625
1631632690781,0.703125,-0.28125,0.65625
1631632690812,0.703125,-0.296875,0.640625
1631632690843,0.703125,-0.28125,0.65625
1631632690875,0.703125,-0.28125,0.65625
1631632690906,0.703125,-0.28125,0.640625
1631632690937,0.703125,-0.296875,0.640625
1631632690968,0.703125,-0.28125,0.65625
1631632691000,0.703125,-0.28125,0.640625
1631632691031,0.703125,-0.28125,0.65625
1631632691062,0.703125,-0.296875,0.65625
1631632691093,0.703125,-0.28125,0.640625
1631632691125,0.703125,-0.28125,0.640625
1631632691156,0.703125,-0.28125,0.65625
1631632691187,0.703125,-0.28125,0.65625
1631632691218,0.703125,-0.28125,0.65625
1631632691250,0.703125,-0.28125,0.65625
1631632691281,0.703125,-0.28125,0.640625
1631632691312,0.703125,-0.28125,0.65625
1631632691343,0.703125,-0.296875,0.640625
1631632691375,0.703125,-0.296875,0.640625
1631632691406,0.703125,-0.296875,0.640625
1631632691437,0.703125,-0.28125,0.65625
1631632691468,0.703125,-0.28125,0.640625
1631632691500,0.703125,-0.28125,0.640625
1631632691531,0.703125,-0.28125,0.65625
1631632691562,0.703125,-0.28125,0.65625
1631632691593,0.703125,-0.296875,0.65625
1631632691625,0.703125,-0.296875,0.640625
1631632691656,0.703125,-0.28125,0.640625
1631632691687,0.703125,-0.28125,0.640625
1631632691718,0.703125,-0.28125,0.640625
1631632691750,0.703125,-0.28125,0.640625
1631632691781,0.703125,-0.28125,0.640625
1631632691812,0.703125,-0.28125,0.640625
1631632691843,0.703125,-0.296875,0.65625
1631632691875,0.703125,-0.28125,0.65625
1631632691906,0.703125,-0.28125,0.65625
1631632691937,0.703125,-0.28125,0.65625
1631632691968,0.703125,-0.28125,0.640625
1631632692000,0.703125,-0.28125,0.65625
1631632692031,0.703125,-0.28125,0.65625
1631632692062,0.703125,-0.296875,0.640625
1631632692093,0.703125,-0.28125,0.640625
1631632692125,0.703125,-0.296875,0.640625
1631632692156,0.703125,-0.28125,0.640625
1631632692187,0.703125,-0.28125,0.65625
1631632692218,0.703125,-0.28125,0.640625
1631632692250,0.703125,-0.28125,0.640625
1631632692281,0.703125,-0.296875,0.640625
1631632692312,0.703125,-0.296875,0.640625
1631632692343,0.703125,-0.28125,0.640625
1631632692375,0.71875,-0.28125,0.640625
1631632692406,0.703125,-0.28125,0.640625
1631632692437,0.703125,-0.28125,0.65625
1631632692468,0.703125,-0.28125,0.640625
1631632692500,0.703125,-0.28125,0.65625
1631632692531,0.703125,-0.28125,0.65625
1631632692562,0.703125,-0.28125,0.640625
1631632692593,0.703125,-0.28125,0.640625
1631632692625,0.703125,-0.28125,0.640625
1631632692656,0.703125,-0.28125,0.640625
1631632692687,0.703125,-0.296875,0.640625
1631632692718,0.703125,-0.28125,0.65625
1631632692750,0.703125,-0.296875,0.640625
1631632692781,0.703125,-0.28125,0.640625
1631632692812,0.71875,-0.28125,0.640625
1631632692843,0.703125,-0.28125,0.65625
1631632692875,0.703125,-0.28125,0.640625
1631632692906,0.703125,-0.28125,0.640625
1631632692937,0.703125,-0.28125,0.640625
1631632692968,0.703125,-0.28125,0.640625
1631632693000,0.703125,-0.28125,0.640625
1631632693031,0.703125,-0.28125,0.640625
1631632693062,0.703125,-0.28125,0.640625
1631632693093,0.703125,-0.28125,0.640625
1631632693125,0.703125,-0.28125,0.65625
1631632693156,0.703125,-0.28125,0.640625
1631632693187,0.703125,-0.296875,0.65625
1631632693218,0.703125,-0.28125,0.640625
1631632693250,0.703125,-0.28125,0.640625
1631632693281,0.703125,-0.28125,0.640625
1631632693312,0.703125,-0.28125,0.65625
1631632693343,0.703125,-0.28125,0.640625
1631632693375,0.703125,-0.28125,0.640625
1631632693406,0.703125,-0.28125,0.640625
1631632693437,0.703125,-0.296875,0.640625
1631632693468,0.703125,-0.28125,0.65625
1631632693500,0.703125,-0.28125,0.640625
1631632693531,0.703125,-0.28125,0.640625
1631632693562,0.703125,-0.28125,0.65625
1631632693593,0.703125,-0.28125,0.65625
1631632693625,0.703125,-0.28125,0.640625
1631632693656,0.703125,-0.296875,0.640625
1631632693687,0.703125,-0.296875,0.640625
1631632693718,0.703125,-0.28125,0.640625
1631632693750,0.703125,-0.28125,0.65625
1631632693781,0.71875,-0.28125,0.640625
1631632693812,0.703125,-0.296875,0.65625
1631632693843,0.703125,-0.28125,0.65625
1631632693875,0.703125,-0.28125,0.65625
1631632693906,0.703125,-0.28125,0.65625
1631632693937,0.703125,-0.28125,0.640625
1631632693968,0.703125,-0.28125,0.65625
1631632694000,0.703125,-0.28125,0.65625
1631632694031,0.703125,-0.28125,0.640625
1631632694062,0.703125,-0.28125,0.640625
1631632694093,0.703125,-0.296875,0.640625
1631632694125,0.703125,-0.28125,0.640625
1631632694156,0.703125,-0.28125,0.640625
1631632694187,0.703125,-0.28125,0.640625
1631632694218,0.703125,-0.296875,0.65625
1631632694250,0.703125,-0.296875,0.65625
1631632694281,0.703125,-0.296875,0.65625
1631632694312,0.703125,-0.28125,0.640625
1631632694343,0.703125,-0.28125,0.640625
1631632694375,0.703125,-0.28125,0.640625
1631632694406,0.703125,-0.296875,0.640625
1631632694437,0.703125,-0.28125,0.65625
1631632694468,0.703125,-0.28125,0.65625
1631632694500,0.703125,-0.296875,0.65625
1631632694531,0.703125,-0.28125,0.65625
1631632694562,0.703125,-0.28125,0.640625
1631632694593,0.703125,-0.28125,0.640625
1631632694625,0.703125,-0.28125,0.65625
1631632694656,0.703125,-0.28125,0.640625
1631632694687,0.703125,-0.296875,0.65625
1631632694718,0.703125,-0.296875,0.640625
1631632694750,0.703125,-0.296875,0.640625
1631632694781,0.703125,-0.28125,0.65625
1631632694812,0.703125,-0.296875,0.640625
1631632694843,0.703125,-0.28125,0.640625
1631632694875,0.703125,-0.28125,0.65625
1631632694906,0.703125,-0.296875,0.640625
1631632694937,0.703125,-0.28125,0.65625
1631632694968,0.703125,-0.296875,0.65625
1631632695000,0.703125,-0.28125,0.640625
1631632695031,0.703125,-0.28125,0.640625
1631632695062,0.703125,-0.296875,0.640625
1631632695093,0.703125,-0.28125,0.640625
1631632695125,0.703125,-0.28125,0.640625
1631632695156,0.703125,-0.28125,0.65625
1631632695187,0.703125,-0.28125,0.65625
1631632695218,0.703125,-0.296875,0.65625
1631632695250,0.703125,-0.296875,0.640625
1631632695281,0.703125,-0.28125,0.65625
1631632695312,0.703125,-0.28125,0.640625
1631632695343,0.703125,-0.28125,0.640625
1631632695375,0.703125,-0.28125,0.65625
1631632695406,0.703125,-0.28125,0.640625
1631632695437,0.703125,-0.28125,0.65625
1631632695468,0.703125,-0.28125,0.640625
1631632695500,0.703125,-0.28125,0.640625
1631632695531,0.703125,-0.28125,0.65625
1631632695562,0.703125,-0.28125,0.640625
1631632695593,0.703125,-0.28125,0.640625
1631632695625,0.703125,-0.28125,0.65625
1631632695656,0.703125,-0.296875,0.640625
1631632695687,0.703125,-0.28125,0.65625
1631632695718,0.703125,-0.296875,0.640625
1631632695750,0.703125,-0.28125,0.640625
1631632695781,0.703125,-0.296875,0.640625
1631632695812,0.703125,-0.28125,0.640625
1631632695843,0.703125,-0.296875,0.640625
1631632695875,0.703125,-0.28125,0.640625
1631632695906,0.703125,-0.28125,0.65625
1631632695937,0.703125,-0.28125,0.65625
1631632695968,0.703125,-0.296875,0.640625
1631632696000,0.703125,-0.28125,0.640625
1631632696031,0.703125,-0.296875,0.640625
1631632696062,0.71875,-0.28125,0.640625
1631632696093,0.703125,-0.28125,0.640625
1631632696125,0.71875,-0.28125,0.640625
1631632696156,0.703125,-0.296875,0.640625
1631632696187,0.71875,-0.28125,0.640625
1631632696218,0.703125,-0.296875,0.640625
1631632696250,0.703125,-0.28125,0.640625
1631632696281,0.703125,-0.296875,0.640625
1631632696312,0.71875,-0.28125,0.640625
1631632696343,0.703125,-0.28125,0.640625
1631632696375,0.703125,-0.28125,0.65625
1631632696406,0.71875,-0.296875,0.640625
1631632696437,0.703125,-0.28125,0.640625
1631632696468,0.703125,-0.28125,0.65625
1631632696500,0.703125,-0.28125,0.640625
1631632696531,0.703125,-0.28125,0.640625
1631632696562,0.71875,-0.28125,0.640625
1631632696593,0.71875,-0.28125,0.640625
1631632696625,0.703125,-0.28125,0.640625
1631632696656,0.703125,-0.28125,0.640625
1631632696687,0.703125,-0.28125,0.640625
1631632696718,0.703125,-0.296875,0.640625
1631632696750,0.703125,-0.296875,0.640625
1631632696781,0.703125,-0.28125,0.640625
1631632696812,0.703125,-0.28125,0.640625
1631632696843,0.703125,-0.28125,0.640625
1631632696875,0.703125,-0.28125,0.640625
1631632696906,0.703125,-0.28125,0.640625
1631632696937,0.703125,-0.28125,0.640625
1631632696968,0.703125,-0.28125,0.640625
1631632697000,0.703125,-0.296875,0.640625
1631632697031,0.703125,-0.28125,0.640625
1631632697062,0.703125,-0.28125,0.640625
1631632697093,0.71875,-0.296875,0.640625
1631632697125,0.703125,-0.28125,0.640625
1631632697156,0.703125,-0.28125,0.640625
1631632697187,0.703125,-0.296875,0.640625
1631632697218,0.703125,-0.28125,0.640625
1631632697250,0.703125,-0.28125,0.640625
1631632697281,0.703125,-0.28125,0.640625
1631632697312,0.703125,-0.28125,0.640625
1631632697343,0.703125,-0.28125,0.65625
1631632697375,0.703125,-0.28125,0.640625
1631632697406,0.703125,-0.28125,0.640625
1631632697437,0.703125,-0.28125,0.640625
1631632697468,0.703125,-0.28125,0.640625
1631632697500,0.703125,-0.28125,0.65625
1631632697531,0.703125,-0.28125,0.640625
1631632697562,0.703125,-0.28125,0.640625
1631632697593,0.703125,-0.28125,0.640625
1631632697625,0.703125,-0.28125,0.640625
1631632697656,0.703125,-0.28125,0.640625
1631632697687,0.703125,-0.28125,0.640625
1631632697718,0.703125,-0.28125,0.65625
1631632697750,0.71875,-0.28125,0.65625
1631632697781,0.71875,-0.296875,0.640625
1631632697812,0.71875,-0.28125,0.640625
1631632697843,0.703125,-0.28125,0.640625
1631632697875,0.703125,-0.28125,0.640625
1631632697906,0.703125,-0.28125,0.640625
1631632697937,0.703125,-0.28125,0.65625
1631632697968,0.703125,-0.28125,0.640625
1631632698000,0.703125,-0.296875,0.640625
1631632698031,0.71875,-0.28125,0.640625
1631632698062,0.703125,-0.28125,0.640625
1631632698093,0.703125,-0.296875,0.640625
1631632698125,0.703125,-0.28125,0.65625
1631632698156,0.703125,-0.28125,0.640625
1631632698187,0.703125,-0.28125,0.65625
1631632698218,0.703125,-0.28125,0.65625
1631632698250,0.703125,-0.28125,0.65625
1631632698281,0.703125,-0.28125,0.640625
1631632698312,0.703125,-0.296875,0.640625
1631632698343,0.703125,-0.28125,0.640625
1631632698375,0.703125,-0.28125,0.640625
1631632698406,0.703125,-0.296875,0.640625
1631632698437,0.703125,-0.296875,0.640625
1631632698468,0.703125,-0.296875,0.640625
1631632698500,0.703125,-0.296875,0.65625
1631632698531,0.703125,-0.296875,0.65625
1631632698562,0.703125,-0.28125,0.640625
1631632698593,0.703125,-0.28125,0.640625
1631632698625,0.703125,-0.28125,0.65625
1631632698656,0.703125,-0.28125,0.640625
1631632698687,0.703125,-0.296875,0.65625
1631632698718,0.71875,-0.28125,0.640625
1631632698750,0.703125,-0.28125,0.65625
1631632698781,0.703125,-0.28125,0.65625
1631632698812,0.703125,-0.28125,0.65625
1631632698843,0.703125,-0.28125,0.65625
1631632698875,0.703125,-0.28125,0.65625
1631632698906,0.703125,-0.296875,0.640625
1631632698937,0.703125,-0.28125,0.65625
1631632698968,0.703125,-0.296875,0.640625
1631632699000,0.703125,-0.28125,0.640625
1631632699031,0.703125,-0.28125,0.65625
1631632699062,0.703125,-0.28125,0.640625
1631632699093,0.703125,-0.296875,0.65625
1631632699125,0.703125,-0.28125,0.640625
1631632699156,0.703125,-0.28125,0.640625
1631632699187,0.703125,-0.28125,0.65625
1631632699218,0.703125,-0.296875,0.65625
1631632699250,0.703125,-0.296875,0.65625
1631632699281,0.703125,-0.28125,0.640625
1631632699312,0.703125,-0.296875,0.65625
1631632699343,0.703125,-0.296875,0.65625
1631632699375,0.703125,-0.28125,0.65625
1631632699406,0.703125,-0.28125,0.640625
1631632699437,0.703125,-0.296875,0.640625
1631632699468,0.703125,-0.28125,0.65625
1631632699500,0.703125,-0.296875,0.65625
1631632699531,0.703125,-0.28125,0.65625
1631632699562,0.703125,-0.28125,0.640625
1631632699593,0.703125,-0.28125,0.640625
1631632699625,0.703125,-0.296875,0.640625
1631632699656,0.703125,-0.28125,0.65625
1631632699687,0.703125,-0.28125,0.65625
1631632699718,0.703125,-0.28125,0.640625
1631632699750,0.703125,-0.28125,0.65625
1631632699781,0.703125,-0.28125,0.640625
1631632699812,0.703125,-0.28125,0.640625
1631632699843,0.703125,-0.28125,0.640625
1631632699875,0.703125,-0.296875,0.640625
1631632699906,0.703125,-0.28125,0.640625
1631632699937,0.703125,-0.296875,0.65625
1631632699968,0.703125,-0.28125,0.65625
1631632700000,0.703125,-0.28125,0.65625
1631632700031,0.703125,-0.28125,0.65625
1631632700062,0.703125,-0.296875,0.65625
1631632700093,0.703125,-0.296875,0.65625
1631632700125,0.703125,-0.28125,0.640625
1631632700156,0.71875,-0.28125,0.640625
1631632700187,0.703125,-0.28125,0.640625
1631632700218,0.703125,-0.28125,0.640625
1631632700250,0.703125,-0.28125,0.640625
1631632700281,0.703125,-0.28125,0.640625
1631632700312,0.703125,-0.28125,0.640625
1631632700343,0.703125,-0.28125,0.640625
1631632700375,0.703125,-0.28125,0.640625
1631632700406,0.703125,-0.28125,0.65625
1631632700437,0.703125,-0.28125,0.640625
1631632700468,0.703125,-0.28125,0.640625
1631632700500,0.71875,-0.28125,0.640625
1631632700531,0.703125,-0.28125,0.640625
1631632700562,0.703125,-0.28125,0.640625
1631632700593,0.703125,-0.28125,0.640625
1631632700625,0.703125,-0.28125,0.640625
1631632700656,0.703125,-0.296875,0.640625
1631632700687,0.703125,-0.28125,0.65625
1631632700718,0.703125,-0.28125,0.640625
1631632700750,0.703125,-0.28125,0.65625
1631632700781,0.703125,-0.28125,0.640625
1631632700812,0.703125,-0.28125,0.640625
1631632700843,0.703125,-0.28125,0.640625
1631632700875,0.703125,-0.28125,0.640625
1631632700906,0.703125,-0.28125,0.640625
1631632700937,0.703125,-0.28125,0.65625
1631632700968,0.703125,-0.28125,0.65625
1631632701000,0.703125,-0.296875,0.640625
1631632701031,0.703125,-0.28125,0.65625
1631632701062,0.703125,-0.28125,0.640625
1631632701093,0.703125,-0.28125,0.640625
1631632701125,0.703125,-0.28125,0.640625
1631632701156,0.703125,-0.28125,0.65625
1631632701187,0.703125,-0.28125,0.640625
1631632701218,0.703125,-0.28125,0.640625
1631632701250,0.703125,-0.28125,0.65625
1631632701281,0.703125,-0.28125,0.65625
1631632701312,0.703125,-0.28125,0.640625
1631632701343,0.703125,-0.28125,0.65625
1631632701375,0.703125,-0.28125,0.640625
1631632701406,0.703125,-0.28125,0.640625
1631632701437,0.703125,-0.28125,0.640625
1631632701468,0.703125,-0.296875,0.65625
1631632701500,0.703125,-0.28125,0.640625
1631632701531,0.703125,-0.28125,0.640625
1631632701562,0.703125,-0.28125,0.640625
1631632701593,0.703125,-0.296875,0.65625
1631632701625,0.703125,-0.28125,0.65625
1631632701656,0.703125,-0.28125,0.640625
1631632701687,0.703125,-0.28125,0.640625
1631632701718,0.703125,-0.296875,0.65625
1631632701750,0.703125,-0.28125,0.65625
1631632701781,0.703125,-0.28125,0.65625
1631632701812,0.703125,-0.28125,0.640625
1631632701843,0.703125,-0.28125,0.640625
1631632701875,0.703125,-0.296875,0.640625
1631632701906,0.703125,-0.28125,0.65625
1631632701937,0.703125,-0.296875,0.65625
1631632701968,0.703125,-0.28125,0.640625
1631632702000,0.703125,-0.28125,0.65625
1631632702031,0.703125,-0.28125,0.65625
1631632702062,0.703125,-0.28125,0.640625
1631632702093,0.703125,-0.28125,0.640625
1631632702125,0.703125,-0.296875,0.65625
1631632702156,0.703125,-0.28125,0.640625
1631632702187,0.703125,-0.28125,0.65625
1631632702218,0.703125,-0.296875,0.65625
1631632702250,0.703125,-0.28125,0.640625
1631632702281,0.703125,-0.28125,0.640625
1631632702312,0.703125,-0.28125,0.65625
1631632702343,0.703125,-0.296875,0.640625
1631632702375,0.703125,-0.28125,0.640625
1631632702406,0.703125,-0.28125,0.65625
1631632702437,0.703125,-0.28125,0.65625
1631632702468,0.703125,-0.28125,0.65625
1631632702500,0.703125,-0.28125,0.65625
1631632702531,0.703125,-0.28125,0.65625
1631632702562,0.703125,-0.28125,0.65625
1631632702593,0.703125,-0.28125,0.65625
1631632702625,0.703125,-0.28125,0.640625
1631632702656,0.703125,-0.28125,0.640625
1631632702687,0.703125,-0.28125,0.65625
1631632702718,0.703125,-0.28125,0.640625
1631632702750,0.703125,-0.28125,0.640625
1631632702781,0.703125,-0.28125,0.65625
1631632702812,0.703125,-0.28125,0.640625
1631632702843,0.703125,-0.296875,0.640625
1631632702875,0.703125,-0.28125,0.640625
1631632702906,0.703125,-0.28125,0.640625
1631632702937,0.703125,-0.28125,0.640625
1631632702968,0.703125,-0.28125,0.640625
1631632703000,0.703125,-0.28125,0.640625
1631632703031,0.703125,-0.296875,0.640625
1631632703062,0.703125,-0.28125,0.640625
1631632703093,0.703125,-0.28125,0.640625
1631632703125,0.703125,-0.28125,0.640625
1631632703156,0.703125,-0.28125,0.65625
1631632703187,0.703125,-0.28125,0.640625
1631632703218,0.703125,-0.28125,0.640625
1631632703250,0.703125,-0.296875,0.640625
1631632703281,0.703125,-0.28125,0.640625
1631632703312,0.703125,-0.28125,0.65625
1631632703343,0.71875,-0.28125,0.640625
1631632703375,0.703125,-0.28125,0.65625
1631632703406,0.71875,-0.28125,0.640625
1631632703437,0.703125,-0.28125,0.640625
1631632703468,0.703125,-0.28125,0.640625
1631632703500,0.703125,-0.28125,0.640625
1631632703531,0.703125,-0.28125,0.640625
1631632703562,0.703125,-0.28125,0.640625
1631632703593,0.703125,-0.28125,0.640625
1631632703625,0.703125,-0.28125,0.640625
1631632703656,0.71875,-0.28125,0.640625
1631632703687,0.703125,-0.28125,0.640625
1631632703718,0.703125,-0.28125,0.65625
1631632703750,0.703125,-0.296875,0.640625
1631632703781,0.703125,-0.296875,0.640625
1631632703812,0.703125,-0.296875,0.640625
1631632703843,0.703125,-0.28125,0.640625
1631632703875,0.703125,-0.28125,0.65625
1631632703906,0.703125,-0.28125,0.640625
1631632703937,0.703125,-0.28125,0.640625
1631632703968,0.703125,-0.296875,0.640625
1631632704000,0.703125,-0.296875,0.640625
1631632704031,0.703125,-0.28125,0.640625
1631632704062,0.703125,-0.28125,0.640625
1631632704093,0.703125,-0.28125,0.640625
1631632704125,0.703125,-0.28125,0.640625
1631632704156,0.703125,-0.28125,0.640625
1631632704187,0.703125,-0.28125,0.65625
1631632704218,0.703125,-0.296875,0.640625
1631632704250,0.703125,-0.28125,0.640625
1631632704281,0.703125,-0.28125,0.640625
1631632704312,0.703125,-0.28125,0.640625
1631632704343,0.703125,-0.296875,0.640625
1631632704375,0.703125,-0.28125,0.640625
1631632704406,0.703125,-0.28125,0.65625
1631632704437,0.703125,-0.28125,0.640625
1631632704468,0.703125,-0.28125,0.640625
1631632704500,0.703125,-0.28125,0.640625
1631632704531,0.703125,-0.28125,0.640625
