timestamp,ax,ay,az
1629370423000,-0.078125,0.15625,0.953125
1629370423031,-0.078125,0.171875,0.96875
1629370423062,-0.078125,0.1875,0.9375
1629370423093,-0.09375,0.1875,0.9375
1629370423125,-0.0625,0.1875,0.953125
1629370423156,-0.09375,0.1875,0.953125
1629370423187,-0.109375,0.1875,0.96875
1629370423218,-0.109375,0.171875,0.96875
1629370423250,-0.109375,0.171875,0.96875
1629370423281,-0.09375,0.171875,0.96875
1629370423312,-0.09375,0.171875,0.96875
1629370423343,-0.109375,0.1875,0.96875
1629370423375,-0.09375,0.171875,0.9375
1629370423406,-0.109375,0.171875,0.953125
1629370423437,-0.09375,0.171875,0.953125
1629370423468,-0.109375,0.171875,0.953125
1629370423500,-0.15625,0.21875,0.9375
1629370423531,-0.125,0.21875,0.96875
1629370423562,-0.140625,0.203125,0.96875
1629370423593,-0.109375,0.1875,0.96875
1629370423625,-0.109375,0.1875,0.953125
1629370423656,-0.125,0.203125,0.9375
1629370423687,-0.109375,0.21875,0.953125
1629370423718,-0.109375,0.203125,0.96875
1629370423750,-0.09375,0.1875,0.953125
1629370423781,-0.09375,0.203125,0.953125
1629370423812,-0.078125,0.203125,0.953125
1629370423843,-0.09375,0.203125,0.953125
1629370423875,-0.09375,0.21875,0.953125
1629370423906,-0.109375,0.203125,0.953125
1629370423937,-0.109375,0.1875,0.953125
1629370423968,-0.125,0.171875,0.953125
1629370424000,-0.140625,0.171875,0.953125
1629370424031,-0.15625,0.171875,0.953125
1629370424062,-0.125,0.1875,0.953125
1629370424093,-0.125,0.1875,0.953125
1629370424125,-0.125,0.1875,0.953125
1629370424156,-0.109375,0.171875,0.953125
1629370424187,-0.109375,0.171875,0.953125
1629370424218,-0.125,0.1875,0.953125
1629370424250,-0.125,0.171875,0.953125
1629370424281,-0.125,0.1875,0.953125
1629370424312,-0.125,0.1875,0.953125
1629370424343,-0.125,0.171875,0.953125
1629370424375,-0.125,0.171875,0.953125
1629370424406,-0.125,0.171875,0.953125
1629370424437,-0.125,0.171875,0.953125
1629370424468,-0.125,0.171875,0.953125
1629370424500,-0.125,0.171875,0.953125
1629370424531,-0.125,0.1875,0.953125
1629370424562,-0.140625,0.171875,0.953125
1629370424593,-0.125,0.1875,0.953125
1629370424625,-0.125,0.1875,0.953125
1629370424656,-0.125,0.171875,0.953125
1629370424687,-0.140625,0.1875,0.953125
1629370424718,-0.125,0.1875,0.953125
1629370424750,-0.125,0.1875,0.953125
1629370424781,-0.140625,0.1875,0.953125
1629370424812,-0.125,0.1875,0.953125
1629370424843,-0.140625,0.1875,0.953125
1629370424875,-0.140625,0.1875,0.953125
1629370424906,-0.140625,0.1875,0.953125
1629370424937,-0.140625,0.1875,0.953125
1629370424968,-0.140625,0.1875,0.953125
1629370425000,-0.140625,0.1875,0.953125
1629370425031,-0.140625,0.1875,0.953125
1629370425062,-0.140625,0.1875,0.953125
1629370425093,-0.125,0.1875,0.953125
1629370425125,-0.140625,0.1875,0.953125
1629370425156,-0.140625,0.171875,0.953125
1629370425187,-0.140625,0.1875,0.953125
1629370425218,-0.125,0.1875,0.953125
1629370425250,-0.140625,0.171875,0.953125
1629370425281,-0.140625,0.171875,0.953125
1629370425312,-0.125,0.171875,0.953125
1629370425343,-0.140625,0.171875,0.953125
1629370425375,-0.140625,0.171875,0.953125
1629370425406,-0.140625,0.171875,0.953125
1629370425437,-0.125,0.171875,0.953125
1629370425468,-0.140625,0.171875,0.953125
1629370425500,-0.140625,0.171875,0.953125
1629370425531,-0.140625,0.171875,0.953125
1629370425562,-0.140625,0.171875,0.953125
1629370425593,-0.125,0.171875,0.953125
1629370425625,-0.140625,0.171875,0.953125
1629370425656,-0.140625,0.171875,0.953125
1629370425687,-0.140625,0.171875,0.953125
1629370425718,-0.140625,0.171875,0.953125
1629370425750,-0.140625,0.171875,0.96875
1629370425781,-0.125,0.171875,0.953125
1629370425812,-0.140625,0.171875,0.953125
1629370425843,-0.140625,0.171875,0.953125
1629370425875,-0.140625,0.171875,0.953125
1629370425906,-0.125,0.171875,0.953125
1629370425937,-0.140625,0.171875,0.953125
1629370425968,-0.140625,0.171875,0.953125
1629370426000,-0.125,0.171875,0.953125
1629370426031,-0.125,0.171875,0.953125
1629370426062,-0.125,0.171875,0.953125
1629370426093,-0.125,0.171875,0.953125
1629370426125,-0.125,0.171875,0.953125
1629370426156,-0.125,0.171875,0.953125
1629370426187,-0.125,0.171875,0.953125
1629370426218,-0.125,0.171875,0.96875
1629370426250,-0.125,0.171875,0.953125
1629370426281,-0.125,0.171875,0.953125
1629370426312,-0.125,0.171875,0.96875
1629370426343,-0.125,0.171875,0.96875
1629370426375,-0.125,0.171875,0.953125
1629370426406,-0.125,0.171875,0.953125
1629370426437,-0.125,0.171875,0.953125
1629370426468,-0.125,0.171875,0.953125
1629370426500,-0.125,0.171875,0.953125
1629370426531,-0.125,0.171875,0.953125
1629370426562,-0.125,0.171875,0.953125
1629370426593,-0.125,0.171875,0.953125
1629370426625,-0.125,0.171875,0.953125
1629370426656,-0.125,0.171875,0.953125
1629370426687,-0.125,0.171875,0.953125
1629370426718,-0.125,0.171875,0.953125
1629370426750,-0.125,0.171875,0.953125
1629370426781,-0.125,0.171875,0.953125
1629370426812,-0.125,0.171875,0.953125
1629370426843,-0.125,0.171875,0.953125
1629370426875,-0.125,0.171875,0.953125
1629370426906,-0.125,0.171875,0.96875
1629370426937,-0.125,0.171875,0.953125
1629370426968,-0.125,0.171875,0.953125
1629370427000,-0.125,0.171875,0.953125
1629370427031,-0.125,0.171875,0.953125
1629370427062,-0.125,0.171875,0.953125
1629370427093,-0.125,0.171875,0.953125
1629370427125,-0.125,0.171875,0.953125
1629370427156,-0.140625,0.171875,0.953125
1629370427187,-0.140625,0.171875,0.953125
1629370427218,-0.140625,0.171875,0.96875
1629370427250,-0.125,0.171875,0.96875
1629370427281,-0.125,0.171875,0.953125
1629370427312,-0.140625,0.171875,0.953125
1629370427343,-0.125,0.171875,0.96875
1629370427375,-0.125,0.171875,0.953125
1629370427406,-0.125,0.171875,0.953125
1629370427437,-0.125,0.171875,0.953125
1629370427468,-0.125,0.171875,0.953125
1629370427500,-0.125,0.171875,0.953125
1629370427531,-0.140625,0.171875,0.953125
1629370427562,-0.140625,0.171875,0.953125
1629370427593,-0.125,0.171875,0.953125
1629370427625,-0.140625,0.171875,0.953125
1629370427656,-0.125,0.171875,0.953125
1629370427687,-0.140625,0.171875,0.953125
1629370427718,-0.140625,0.171875,0.953125
1629370427750,-0.140625,0.171875,0.953125
1629370427781,-0.140625,0.171875,0.953125
1629370427812,-0.140625,0.171875,0.953125
1629370427843,-0.140625,0.171875,0.953125
1629370427875,-0.140625,0.171875,0.953125
1629370427906,-0.140625,0.171875,0.953125
1629370427937,-0.140625,0.171875,0.953125
1629370427968,-0.140625,0.171875,0.953125
1629370428000,-0.140625,0.171875,0.953125
1629370428031,-0.140625,0.171875,0.953125
1629370428062,-0.140625,0.171875,0.953125
1629370428093,-0.140625,0.171875,0.953125
1629370428125,-0.140625,0.171875,0.953125
1629370428156,-0.140625,0.171875,0.953125
1629370428187,-0.140625,0.171875,0.953125
1629370428218,-0.140625,0.171875,0.953125
1629370428250,-0.140625,0.171875,0.953125
1629370428281,-0.125,0.171875,0.953125
1629370428312,-0.140625,0.171875,0.953125
1629370428343,-0.140625,0.171875,0.953125
1629370428375,-0.140625,0.171875,0.953125
1629370428406,-0.140625,0.171875,0.953125
1629370428437,-0.140625,0.171875,0.953125
1629370428468,-0.140625,0.171875,0.953125
1629370428500,-0.140625,0.171875,0.953125
1629370428531,-0.140625,0.171875,0.96875
1629370428562,-0.140625,0.171875,0.953125
1629370428593,-0.140625,0.171875,0.953125
1629370428625,-0.140625,0.171875,0.953125
1629370428656,-0.140625,0.171875,0.953125
1629370428687,-0.140625,0.171875,0.953125
1629370428718,-0.140625,0.171875,0.953125
1629370428750,-0.140625,0.171875,0.953125
1629370428781,-0.140625,0.171875,0.953125
1629370428812,-0.140625,0.171875,0.953125
1629370428843,-0.140625,0.171875,0.953125
1629370428875,-0.140625,0.171875,0.953125
1629370428906,-0.140625,0.171875,0.953125
1629370428937,-0.140625,0.171875,0.953125
1629370428968,-0.140625,0.171875,0.953125
1629370429000,-0.140625,0.171875,0.953125
1629370429031,-0.140625,0.171875,0.953125
1629370429062,-0.15625,0.15625,0.953125
1629370429093,-0.171875,0.171875,0.953125
1629370429125,-0.15625,0.171875,0.96875
1629370429156,-0.15625,0.140625,0.953125
1629370429187,-0.078125,0.203125,1.015625
1629370429218,-0.03125,0.25,0.984375
1629370429250,-0.0625,0.25,0.9375
1629370429281,-0.1875,0.21875,0.875
1629370429312,-0.1875,0.234375,0.84375
1629370429343,-0.03125,0.28125,0.953125
1629370429375,-0.125,0.15625,0.9375
1629370429406,-0.21875,0.28125,0.90625
1629370429437,-0.125,0.234375,0.921875
1629370429468,-0.125,0.125,0.953125
1629370429500,-0.125,0.09375,1.03125
1629370429531,-0.21875,0.0625,1.015625
1629370429562,-0.28125,0.09375,0.96875
1629370429593,-0.265625,0.125,0.9375
1629370429625,-0.21875,0.140625,0.9375
1629370429656,-0.15625,0.1875,0.9375
1629370429687,-0.15625,0.171875,0.9375
1629370429718,-0.203125,0.140625,0.921875
1629370429750,-0.25,0.125,0.9375
1629370429781,-0.265625,0.125,0.9375
1629370429812,-0.296875,0.140625,0.921875
1629370429843,-0.296875,0.125,0.921875
1629370429875,-0.3125,0.125,0.921875
1629370429906,-0.328125,0.109375,0.921875
1629370429937,-0.34375,0.125,0.921875
1629370429968,-0.359375,0.109375,0.90625
1629370430000,-0.328125,0.125,0.921875
1629370430031,-0.3125,0.140625,0.921875
1629370430062,-0.28125,0.140625,0.921875
1629370430093,-0.265625,0.140625,0.9375
1629370430125,-0.28125,0.140625,0.921875
1629370430156,-0.296875,0.109375,0.953125
1629370430187,-0.3125,0.125,0.9375
1629370430218,-0.3125,0.125,0.921875
1629370430250,-0.296875,0.125,0.90625
1629370430281,-0.296875,0.125,0.90625
1629370430312,-0.296875,0.125,0.90625
1629370430343,-0.296875,0.125,0.921875
1629370430375,-0.3125,0.109375,0.921875
1629370430406,-0.328125,0.125,0.921875
1629370430437,-0.34375,0.125,0.921875
1629370430468,-0.375,0.125,0.90625
1629370430500,-0.390625,0.140625,0.90625
1629370430531,-0.359375,0.140625,0.90625
1629370430562,-0.34375,0.140625,0.90625
1629370430593,-0.34375,0.140625,0.90625
1629370430625,-0.34375,0.140625,0.90625
1629370430656,-0.34375,0.125,0.90625
1629370430687,-0.375,0.125,0.90625
1629370430718,-0.375,0.125,0.890625
1629370430750,-0.34375,0.125,0.90625
1629370430781,-0.328125,0.125,0.90625
1629370430812,-0.34375,0.140625,0.90625
1629370430843,-0.34375,0.140625,0.90625
1629370430875,-0.359375,0.125,0.90625
1629370430906,-0.359375,0.140625,0.90625
1629370430937,-0.34375,0.140625,0.90625
1629370430968,-0.34375,0.15625,0.90625
1629370431000,-0.34375,0.15625,0.90625
1629370431031,-0.34375,0.15625,0.90625
1629370431062,-0.34375,0.140625,0.90625
1629370431093,-0.34375,0.140625,0.90625
1629370431125,-0.34375,0.140625,0.90625
1629370431156,-0.34375,0.140625,0.90625
1629370431187,-0.34375,0.125,0.90625
1629370431218,-0.34375,0.125,0.90625
1629370431250,-0.359375,0.125,0.90625
1629370431281,-0.359375,0.140625,0.90625
1629370431312,-0.359375,0.140625,0.90625
1629370431343,-0.359375,0.140625,0.90625
1629370431375,-0.359375,0.140625,0.90625
1629370431406,-0.359375,0.140625,0.90625
1629370431437,-0.375,0.140625,0.890625
1629370431468,-0.359375,0.15625,0.90625
1629370431500,-0.34375,0.15625,0.90625
1629370431531,-0.359375,0.140625,0.90625
1629370431562,-0.359375,0.140625,0.90625
1629370431593,-0.359375,0.125,0.90625
1629370431625,-0.359375,0.125,0.90625
1629370431656,-0.34375,0.140625,0.90625
1629370431687,-0.34375,0.140625,0.90625
1629370431718,-0.34375,0.140625,0.90625
1629370431750,-0.359375,0.140625,0.90625
1629370431781,-0.359375,0.140625,0.90625
1629370431812,-0.34375,0.140625,0.921875
1629370431843,-0.359375,0.125,0.90625
1629370431875,-0.359375,0.140625,0.90625
1629370431906,-0.359375,0.140625,0.90625
1629370431937,-0.359375,0.140625,0.90625
1629370431968,-0.359375,0.140625,0.90625
1629370432000,-0.359375,0.15625,0.90625
1629370432031,-0.359375,0.140625,0.90625
1629370432062,-0.359375,0.140625,0.90625
1629370432093,-0.34375,0.140625,0.90625
1629370432125,-0.34375,0.140625,0.90625
1629370432156,-0.359375,0.140625,0.90625
1629370432187,-0.359375,0.140625,0.90625
1629370432218,-0.34375,0.140625,0.90625
1629370432250,-0.34375,0.140625,0.90625
1629370432281,-0.34375,0.125,0.90625
1629370432312,-0.359375,0.125,0.90625
1629370432343,-0.359375,0.125,0.90625
1629370432375,-0.359375,0.140625,0.90625
1629370432406,-0.359375,0.140625,0.90625
1629370432437,-0.359375,0.140625,0.90625
1629370432468,-0.359375,0.140625,0.90625
1629370432500,-0.359375,0.140625,0.90625
1629370432531,-0.375,0.140625,0.890625
1629370432562,-0.375,0.140625,0.90625
1629370432593,-0.375,0.15625,0.890625
1629370432625,-0.359375,0.15625,0.90625
1629370432656,-0.375,0.15625,0.90625
1629370432687,-0.375,0.15625,0.890625
1629370432718,-0.359375,0.15625,0.890625
1629370432750,-0.359375,0.140625,0.890625
1629370432781,-0.359375,0.140625,0.90625
1629370432812,-0.359375,0.140625,0.90625
1629370432843,-0.375,0.125,0.90625
1629370432875,-0.375,0.140625,0.90625
1629370432906,-0.359375,0.140625,0.90625
1629370432937,-0.34375,0.125,0.90625
1629370432968,-0.34375,0.125,0.90625
1629370433000,-0.359375,0.125,0.90625
1629370433031,-0.375,0.125,0.90625
1629370433062,-0.390625,0.125,0.890625
1629370433093,-0.359375,0.125,0.890625
1629370433125,-0.359375,0.140625,0.90625
1629370433156,-0.375,0.140625,0.90625
1629370433187,-0.359375,0.140625,0.890625
1629370433218,-0.359375,0.140625,0.890625
1629370433250,-0.359375,0.125,0.90625
1629370433281,-0.375,0.125,0.90625
1629370433312,-0.375,0.125,0.90625
1629370433343,-0.375,0.125,0.90625
1629370433375,-0.375,0.125,0.90625
1629370433406,-0.375,0.125,0.90625
1629370433437,-0.359375,0.125,0.90625
1629370433468,-0.359375,0.125,0.90625
1629370433500,-0.375,0.125,0.90625
1629370433531,-0.375,0.140625,0.890625
1629370433562,-0.359375,0.140625,0.890625
1629370433593,-0.359375,0.140625,0.890625
1629370433625,-0.359375,0.140625,0.90625
1629370433656,-0.359375,0.140625,0.90625
1629370433687,-0.375,0.140625,0.890625
1629370433718,-0.359375,0.140625,0.90625
1629370433750,-0.359375,0.140625,0.90625
1629370433781,-0.359375,0.140625,0.90625
1629370433812,-0.375,0.140625,0.90625
1629370433843,-0.375,0.125,0.890625
1629370433875,-0.359375,0.140625,0.890625
1629370433906,-0.359375,0.140625,0.90625
1629370433937,-0.375,0.140625,0.890625
1629370433968,-0.375,0.140625,0.90625
1629370434000,-0.359375,0.140625,0.90625
1629370434031,-0.359375,0.140625,0.90625
1629370434062,-0.359375,0.140625,0.90625
1629370434093,-0.359375,0.140625,0.90625
1629370434125,-0.359375,0.140625,0.90625
1629370434156,-0.359375,0.140625,0.90625
1629370434187,-0.375,0.140625,0.90625
1629370434218,-0.359375,0.140625,0.90625
1629370434250,-0.359375,0.125,0.90625
1629370434281,-0.34375,0.125,0.90625
1629370434312,-0.359375,0.125,0.890625
1629370434343,-0.359375,0.109375,0.890625
1629370434375,-0.34375,0.125,0.921875
1629370434406,-0.34375,0.125,0.90625
1629370434437,-0.375,0.125,0.90625
1629370434468,-0.3125,0.140625,0.921875
1629370434500,-0.296875,0.140625,0.921875
1629370434531,-0.296875,0.15625,0.921875
1629370434562,-0.265625,0.171875,0.953125
1629370434593,-0.234375,0.171875,0.96875
1629370434625,-0.203125,0.1875,0.984375
1629370434656,-0.203125,0.1875,0.96875
1629370434687,-0.171875,0.21875,0.9375
1629370434718,-0.15625,0.1875,0.90625
1629370434750,-0.140625,0.1875,0.921875
1629370434781,-0.125,0.203125,0.953125
1629370434812,-0.125,0.234375,0.96875
1629370434843,-0.125,0.234375,0.9375
1629370434875,-0.125,0.25,0.921875
1629370434906,-0.140625,0.25,0.9375
1629370434937,-0.09375,0.296875,0.921875
1629370434968,-0.125,0.328125,0.828125
1629370435000,0.03125,0.28125,0.90625
1629370435031,-0.171875,0.296875,0.9375
1629370435062,-0.21875,0.234375,0.953125
1629370435093,-0.15625,0.21875,1.1875
1629370435125,-0.125,0.28125,0.9375
1629370435156,-0.171875,0.21875,0.8125
1629370435187,-0.234375,0.1875,0.90625
1629370435218,-0.1875,0.203125,1.0
1629370435250,-0.15625,0.203125,0.953125
1629370435281,-0.03125,0.25,0.953125
1629370435312,0.0,0.25,0.921875
1629370435343,-0.328125,0.203125,0.875
1629370435375,-0.359375,0.25,0.921875
1629370435406,-0.078125,0.203125,0.890625
1629370435437,-0.21875,0.234375,0.984375
1629370435468,-0.203125,0.234375,0.953125
1629370435500,-0.09375,0.1875,0.96875
1629370435531,-0.234375,0.234375,0.921875
1629370435562,-0.203125,0.140625,0.796875
1629370435593,-0.234375,0.25,0.828125
1629370435625,-0.1875,0.25,0.859375
1629370435656,-0.125,0.234375,0.875
1629370435687,-0.171875,0.21875,0.875
1629370435718,-0.171875,0.234375,0.921875
1629370435750,-0.15625,0.203125,0.875
1629370435781,-0.171875,0.203125,0.890625
1629370435812,-0.15625,0.234375,0.984375
1629370435843,-0.046875,0.265625,1.03125
1629370435875,-0.109375,0.25,1.015625
1629370435906,-0.125,0.234375,0.96875
1629370435937,-0.09375,0.25,0.96875
1629370435968,-0.015625,0.234375,0.9375
1629370436000,-0.015625,0.234375,0.9375
1629370436031,-0.03125,0.234375,0.953125
1629370436062,-0.046875,0.25,0.9375
1629370436093,-0.03125,0.234375,0.96875
1629370436125,0.0,0.25,0.96875
1629370436156,0.046875,0.265625,0.96875
1629370436187,0.046875,0.265625,0.984375
1629370436218,0.03125,0.234375,0.96875
1629370436250,0.0,0.234375,0.953125
1629370436281,-0.046875,0.25,0.953125
1629370436312,0.015625,0.265625,0.953125
1629370436343,0.03125,0.265625,0.96875
1629370436375,-0.03125,0.1875,0.96875
1629370436406,-0.171875,0.21875,0.9375
1629370436437,-0.125,0.21875,0.9375
1629370436468,-0.015625,0.1875,0.984375
1629370436500,-0.015625,0.171875,1.0
1629370436531,-0.140625,0.109375,0.96875
1629370436562,-0.140625,0.09375,0.953125
1629370436593,-0.125,0.109375,0.953125
1629370436625,-0.109375,0.140625,0.953125
1629370436656,-0.109375,0.15625,0.96875
1629370436687,-0.125,0.15625,0.953125
1629370436718,-0.109375,0.15625,0.953125
1629370436750,-0.125,0.140625,0.953125
1629370436781,-0.109375,0.15625,0.953125
1629370436812,-0.125,0.171875,0.953125
1629370436843,-0.15625,0.171875,0.953125
1629370436875,-0.140625,0.171875,0.953125
1629370436906,-0.140625,0.171875,0.953125
1629370436937,-0.140625,0.171875,0.953125
1629370436968,-0.140625,0.171875,0.953125
1629370437000,-0.15625,0.1875,0.953125
1629370437031,-0.140625,0.1875,0.96875
1629370437062,-0.15625,0.1875,0.953125
1629370437093,-0.140625,0.1875,0.953125
1629370437125,-0.15625,0.203125,0.953125
1629370437156,-0.140625,0.1875,0.9375
1629370437187,-0.140625,0.1875,0.953125
1629370437218,-0.140625,0.1875,0.953125
1629370437250,-0.15625,0.1875,0.953125
1629370437281,-0.15625,0.203125,0.953125
1629370437312,-0.15625,0.203125,0.9375
1629370437343,-0.140625,0.203125,0.953125
1629370437375,-0.15625,0.1875,0.953125
1629370437406,-0.140625,0.1875,0.953125
1629370437437,-0.15625,0.1875,0.953125
1629370437468,-0.140625,0.1875,0.953125
1629370437500,-0.140625,0.1875,0.953125
1629370437531,-0.140625,0.1875,0.953125
1629370437562,-0.140625,0.1875,0.953125
1629370437593,-0.140625,0.15625,0.953125
1629370437625,-0.140625,0.15625,0.953125
1629370437656,-0.140625,0.15625,0.953125
1629370437687,-0.140625,0.15625,0.953125
1629370437718,-0.15625,0.15625,0.953125
1629370437750,-0.140625,0.15625,0.953125
1629370437781,-0.140625,0.140625,0.96875
1629370437812,-0.15625,0.140625,0.953125
1629370437843,-0.15625,0.140625,0.953125
1629370437875,-0.15625,0.140625,0.953125
1629370437906,-0.140625,0.140625,0.953125
1629370437937,-0.15625,0.140625,0.953125
1629370437968,-0.140625,0.140625,0.953125
1629370438000,-0.140625,0.140625,0.953125
1629370438031,-0.140625,0.140625,0.953125
1629370438062,-0.15625,0.140625,0.953125
1629370438093,-0.140625,0.140625,0.953125
1629370438125,-0.15625,0.15625,0.953125
1629370438156,-0.15625,0.15625,0.953125
1629370438187,-0.15625,0.15625,0.953125
1629370438218,-0.15625,0.171875,0.953125
1629370438250,-0.15625,0.171875,0.953125
1629370438281,-0.15625,0.171875,0.953125
1629370438312,-0.15625,0.171875,0.953125
1629370438343,-0.15625,0.1875,0.953125
1629370438375,-0.171875,0.1875,0.953125
1629370438406,-0.15625,0.1875,0.953125
1629370438437,-0.171875,0.1875,0.953125
1629370438468,-0.171875,0.1875,0.953125
1629370438500,-0.15625,0.1875,0.953125
1629370438531,-0.171875,0.1875,0.953125
1629370438562,-0.15625,0.1875,0.953125
1629370438593,-0.1875,0.203125,0.953125
1629370438625,-0.171875,0.1875,0.953125
1629370438656,-0.171875,0.1875,0.953125
1629370438687,-0.171875,0.1875,0.953125
1629370438718,-0.171875,0.1875,0.953125
1629370438750,-0.171875,0.1875,0.953125
1629370438781,-0.171875,0.1875,0.953125
1629370438812,-0.171875,0.1875,0.953125
1629370438843,-0.171875,0.171875,0.953125
1629370438875,-0.171875,0.171875,0.953125
1629370438906,-0.171875,0.171875,0.953125
1629370438937,-0.171875,0.171875,0.953125
1629370438968,-0.15625,0.171875,0.953125
1629370439000,-0.171875,0.171875,0.953125
1629370439031,-0.15625,0.15625,0.953125
1629370439062,-0.15625,0.15625,0.953125
1629370439093,-0.15625,0.15625,0.953125
1629370439125,-0.15625,0.15625,0.953125
1629370439156,-0.15625,0.15625,0.953125
1629370439187,-0.15625,0.15625,0.953125
1629370439218,-0.15625,0.15625,0.953125
1629370439250,-0.15625,0.15625,0.953125
1629370439281,-0.15625,0.15625,0.953125
1629370439312,-0.15625,0.15625,0.953125
1629370439343,-0.15625,0.15625,0.953125
1629370439375,-0.15625,0.15625,0.953125
1629370439406,-0.15625,0.15625,0.953125
1629370439437,-0.15625,0.15625,0.953125
1629370439468,-0.15625,0.15625,0.953125
1629370439500,-0.171875,0.171875,0.953125
1629370439531,-0.15625,0.171875,0.953125
1629370439562,-0.15625,0.171875,0.953125
1629370439593,-0.15625,0.171875,0.953125
1629370439625,-0.15625,0.171875,0.953125
1629370439656,-0.15625,0.171875,0.953125
1629370439687,-0.15625,0.171875,0.953125
1629370439718,-0.15625,0.171875,0.953125
1629370439750,-0.171875,0.171875,0.953125
1629370439781,-0.15625,0.171875,0.953125
1629370439812,-0.15625,0.171875,0.953125
1629370439843,-0.15625,0.171875,0.953125
1629370439875,-0.15625,0.171875,0.953125
1629370439906,-0.15625,0.171875,0.953125
1629370439937,-0.15625,0.171875,0.953125
1629370439968,-0.15625,0.171875,0.953125
1629370440000,-0.15625,0.171875,0.953125
1629370440031,-0.15625,0.171875,0.953125
1629370440062,-0.15625,0.171875,0.953125
1629370440093,-0.15625,0.171875,0.953125
1629370440125,-0.15625,0.171875,0.953125
1629370440156,-0.15625,0.171875,0.953125
1629370440187,-0.15625,0.171875,0.953125
1629370440218,-0.15625,0.171875,0.953125
1629370440250,-0.15625,0.15625,0.953125
1629370440281,-0.15625,0.171875,0.953125
1629370440312,-0.15625,0.171875,0.953125
1629370440343,-0.15625,0.171875,0.953125
1629370440375,-0.15625,0.171875,0.953125
1629370440406,-0.15625,0.171875,0.953125
1629370440437,-0.15625,0.171875,0.953125
1629370440468,-0.15625,0.171875,0.953125
1629370440500,-0.15625,0.171875,0.953125
1629370440531,-0.15625,0.171875,0.953125
1629370440562,-0.15625,0.171875,0.953125
1629370440593,-0.15625,0.171875,0.953125
1629370440625,-0.15625,0.171875,0.953125
1629370440656,-0.15625,0.171875,0.953125
1629370440687,-0.15625,0.171875,0.953125
1629370440718,-0.15625,0.171875,0.953125
1629370440750,-0.15625,0.171875,0.953125
1629370440781,-0.15625,0.171875,0.953125
1629370440812,-0.15625,0.171875,0.953125
1629370440843,-0.15625,0.171875,0.953125
1629370440875,-0.15625,0.171875,0.953125
1629370440906,-0.15625,0.171875,0.953125
1629370440937,-0.15625,0.171875,0.953125
1629370440968,-0.15625,0.171875,0.953125
1629370441000,-0.15625,0.171875,0.953125
1629370441031,-0.15625,0.171875,0.953125
1629370441062,-0.15625,0.171875,0.953125
1629370441093,-0.15625,0.171875,0.953125
1629370441125,-0.15625,0.171875,0.953125
1629370441156,-0.15625,0.171875,0.953125
1629370441187,-0.15625,0.171875,0.953125
1629370441218,-0.15625,0.171875,0.953125
1629370441250,-0.15625,0.15625,0.953125
1629370441281,-0.15625,0.171875,0.953125
1629370441312,-0.15625,0.171875,0.953125
1629370441343,-0.15625,0.15625,0.953125
1629370441375,-0.15625,0.171875,0.953125
1629370441406,-0.15625,0.171875,0.953125
1629370441437,-0.15625,0.15625,0.953125
1629370441468,-0.15625,0.171875,0.953125
1629370441500,-0.15625,0.171875,0.953125
1629370441531,-0.15625,0.171875,0.953125
1629370441562,-0.15625,0.171875,0.953125
1629370441593,-0.15625,0.171875,0.953125
1629370441625,-0.15625,0.171875,0.953125
1629370441656,-0.15625,0.171875,0.953125
1629370441687,-0.15625,0.15625,0.953125
1629370441718,-0.15625,0.171875,0.953125
1629370441750,-0.15625,0.15625,0.953125
1629370441781,-0.15625,0.15625,0.953125
1629370441812,-0.15625,0.171875,0.953125
1629370441843,-0.15625,0.171875,0.953125
1629370441875,-0.15625,0.171875,0.953125
1629370441906,-0.15625,0.171875,0.953125
1629370441937,-0.15625,0.171875,0.953125
1629370441968,-0.15625,0.171875,0.953125
1629370442000,-0.15625,0.171875,0.953125
1629370442031,-0.15625,0.171875,0.953125
1629370442062,-0.15625,0.171875,0.953125
1629370442093,-0.15625,0.171875,0.953125
1629370442125,-0.15625,0.171875,0.953125
1629370442156,-0.171875,0.171875,0.953125
1629370442187,-0.171875,0.171875,0.953125
1629370442218,-0.15625,0.171875,0.953125
1629370442250,-0.171875,0.171875,0.953125
1629370442281,-0.15625,0.171875,0.953125
1629370442312,-0.15625,0.171875,0.953125
1629370442343,-0.15625,0.171875,0.953125
1629370442375,-0.15625,0.171875,0.953125
1629370442406,-0.15625,0.171875,0.953125
1629370442437,-0.15625,0.171875,0.953125
1629370442468,-0.15625,0.171875,0.953125
1629370442500,-0.15625,0.171875,0.953125
1629370442531,-0.15625,0.171875,0.953125
1629370442562,-0.171875,0.171875,0.953125
1629370442593,-0.171875,0.15625,0.953125
1629370442625,-0.15625,0.171875,0.953125
1629370442656,-0.171875,0.171875,0.953125
1629370442687,-0.171875,0.171875,0.953125
1629370442718,-0.171875,0.15625,0.953125
1629370442750,-0.171875,0.171875,0.953125
1629370442781,-0.171875,0.171875,0.953125
1629370442812,-0.171875,0.171875,0.953125
1629370442843,-0.171875,0.171875,0.953125
1629370442875,-0.171875,0.15625,0.953125
1629370442906,-0.15625,0.171875,0.953125
1629370442937,-0.15625,0.171875,0.953125
1629370442968,-0.171875,0.171875,0.953125
1629370443000,-0.15625,0.171875,0.953125
1629370443031,-0.15625,0.171875,0.953125
1629370443062,-0.15625,0.171875,0.953125
1629370443093,-0.171875,0.15625,0.953125
1629370443125,-0.171875,0.15625,0.953125
1629370443156,-0.15625,0.171875,0.953125
1629370443187,-0.171875,0.171875,0.953125
1629370443218,-0.15625,0.171875,0.953125
1629370443250,-0.15625,0.171875,0.953125
1629370443281,-0.15625,0.171875,0.953125
1629370443312,-0.15625,0.171875,0.953125
1629370443343,-0.171875,0.171875,0.953125
1629370443375,-0.171875,0.171875,0.953125
1629370443406,-0.171875,0.171875,0.953125
1629370443437,-0.171875,0.15625,0.953125
1629370443468,-0.15625,0.171875,0.953125
1629370443500,-0.171875,0.171875,0.953125
1629370443531,-0.171875,0.171875,0.953125
1629370443562,-0.171875,0.171875,0.953125
1629370443593,-0.171875,0.171875,0.953125
1629370443625,-0.15625,0.171875,0.953125
1629370443656,-0.171875,0.171875,0.953125
1629370443687,-0.15625,0.171875,0.953125
1629370443718,-0.15625,0.171875,0.953125
1629370443750,-0.15625,0.171875,0.953125
1629370443781,-0.15625,0.171875,0.953125
1629370443812,-0.15625,0.171875,0.953125
1629370443843,-0.15625,0.171875,0.953125
1629370443875,-0.15625,0.171875,0.953125
1629370443906,-0.15625,0.171875,0.953125
1629370443937,-0.15625,0.171875,0.953125
1629370443968,-0.15625,0.171875,0.953125
1629370444000,-0.15625,0.171875,0.953125
1629370444031,-0.171875,0.171875,0.953125
1629370444062,-0.171875,0.171875,0.953125
1629370444093,-0.15625,0.171875,0.953125
1629370444125,-0.15625,0.171875,0.953125
1629370444156,-0.15625,0.171875,0.953125
1629370444187,-0.15625,0.171875,0.953125
1629370444218,-0.15625,0.171875,0.953125
1629370444250,-0.15625,0.171875,0.953125
1629370444281,-0.15625,0.171875,0.953125
1629370444312,-0.15625,0.171875,0.953125
1629370444343,-0.15625,0.171875,0.953125
1629370444375,-0.15625,0.171875,0.953125
1629370444406,-0.15625,0.171875,0.953125
1629370444437,-0.15625,0.171875,0.953125
1629370444468,-0.15625,0.171875,0.953125
1629370444500,-0.15625,0.171875,0.953125
1629370444531,-0.15625,0.171875,0.953125
1629370444562,-0.15625,0.171875,0.953125
1629370444593,-0.15625,0.171875,0.953125
1629370444625,-0.15625,0.171875,0.953125
1629370444656,-0.15625,0.171875,0.953125
1629370444687,-0.15625,0.171875,0.953125
1629370444718,-0.15625,0.171875,0.953125
1629370444750,-0.15625,0.171875,0.953125
1629370444781,-0.15625,0.171875,0.953125
1629370444812,-0.15625,0.171875,0.953125
1629370444843,-0.15625,0.171875,0.953125
1629370444875,-0.15625,0.171875,0.953125
1629370444906,-0.15625,0.171875,0.953125
1629370444937,-0.15625,0.171875,0.953125
1629370444968,-0.15625,0.171875,0.953125
1629370445000,-0.15625,0.171875,0.953125
1629370445031,-0.15625,0.171875,0.953125
1629370445062,-0.15625,0.171875,0.953125
1629370445093,-0.15625,0.171875,0.953125
1629370445125,-0.15625,0.171875,0.953125
1629370445156,-0.15625,0.171875,0.953125
1629370445187,-0.15625,0.171875,0.953125
1629370445218,-0.15625,0.171875,0.953125
1629370445250,-0.15625,0.171875,0.953125
1629370445281,-0.15625,0.171875,0.953125
1629370445312,-0.15625,0.171875,0.953125
1629370445343,-0.15625,0.171875,0.953125
1629370445375,-0.15625,0.171875,0.953125
1629370445406,-0.15625,0.171875,0.953125
1629370445437,-0.15625,0.171875,0.953125
1629370445468,-0.15625,0.171875,0.953125
1629370445500,-0.15625,0.171875,0.953125
1629370445531,-0.15625,0.171875,0.953125
1629370445562,-0.15625,0.171875,0.953125
1629370445593,-0.15625,0.171875,0.953125
1629370445625,-0.15625,0.171875,0.953125
1629370445656,-0.15625,0.171875,0.953125
1629370445687,-0.15625,0.171875,0.953125
1629370445718,-0.15625,0.171875,0.953125
1629370445750,-0.15625,0.171875,0.953125
1629370445781,-0.15625,0.171875,0.953125
1629370445812,-0.15625,0.15625,0.953125
1629370445843,-0.15625,0.171875,0.953125
1629370445875,-0.15625,0.171875,0.953125
1629370445906,-0.15625,0.171875,0.953125
1629370445937,-0.15625,0.171875,0.953125
1629370445968,-0.15625,0.171875,0.953125
1629370446000,-0.15625,0.171875,0.953125
1629370446031,-0.15625,0.171875,0.953125
1629370446062,-0.15625,0.171875,0.953125
1629370446093,-0.15625,0.171875,0.953125
1629370446125,-0.15625,0.171875,0.953125
1629370446156,-0.15625,0.171875,0.953125
1629370446187,-0.15625,0.171875,0.953125
1629370446218,-0.15625,0.171875,0.953125
1629370446250,-0.15625,0.171875,0.953125
1629370446281,-0.15625,0.171875,0.953125
1629370446312,-0.15625,0.171875,0.953125
1629370446343,-0.15625,0.171875,0.953125
1629370446375,-0.15625,0.171875,0.953125
1629370446406,-0.15625,0.171875,0.953125
1629370446437,-0.15625,0.171875,0.953125
1629370446468,-0.15625,0.171875,0.953125
1629370446500,-0.15625,0.171875,0.953125
1629370446531,-0.15625,0.171875,0.953125
1629370446562,-0.15625,0.171875,0.953125
1629370446593,-0.15625,0.171875,0.953125
1629370446625,-0.15625,0.171875,0.953125
1629370446656,-0.15625,0.171875,0.953125
1629370446687,-0.15625,0.171875,0.953125
1629370446718,-0.15625,0.171875,0.953125
1629370446750,-0.15625,0.171875,0.953125
1629370446781,-0.15625,0.171875,0.953125
1629370446812,-0.171875,0.171875,0.953125
1629370446843,-0.171875,0.171875,0.953125
1629370446875,-0.15625,0.171875,0.953125
1629370446906,-0.171875,0.171875,0.953125
1629370446937,-0.171875,0.171875,0.953125
1629370446968,-0.171875,0.15625,0.953125
1629370447000,-0.15625,0.171875,0.953125
1629370447031,-0.15625,0.171875,0.953125
1629370447062,-0.15625,0.171875,0.953125
1629370447093,-0.15625,0.171875,0.953125
1629370447125,-0.15625,0.171875,0.953125
1629370447156,-0.15625,0.15625,0.953125
1629370447187,-0.15625,0.171875,0.953125
1629370447218,-0.15625,0.171875,0.953125
1629370447250,-0.15625,0.171875,0.953125
1629370447281,-0.15625,0.171875,0.953125
1629370447312,-0.15625,0.171875,0.953125
1629370447343,-0.15625,0.15625,0.953125
1629370447375,-0.15625,0.171875,0.953125
1629370447406,-0.15625,0.171875,0.953125
1629370447437,-0.15625,0.171875,0.953125
1629370447468,-0.15625,0.171875,0.953125
1629370447500,-0.15625,0.171875,0.953125
1629370447531,-0.15625,0.171875,0.953125
1629370447562,-0.15625,0.171875,0.953125
1629370447593,-0.171875,0.171875,0.953125
1629370447625,-0.1875,0.171875,0.9375
1629370447656,-0.15625,0.171875,0.953125
1629370447687,-0.15625,0.171875,0.953125
1629370447718,-0.15625,0.171875,0.953125
1629370447750,-0.15625,0.171875,0.953125
1629370447781,-0.15625,0.171875,0.953125
1629370447812,-0.15625,0.171875,0.953125
1629370447843,-0.15625,0.171875,0.953125
1629370447875,-0.15625,0.171875,0.953125
1629370447906,-0.15625,0.171875,0.953125
1629370447937,-0.15625,0.171875,0.953125
1629370447968,-0.15625,0.171875,0.953125
1629370448000,-0.15625,0.171875,0.953125
1629370448031,-0.15625,0.171875,0.953125
1629370448062,-0.15625,0.171875,0.953125
1629370448093,-0.15625,0.171875,0.953125
1629370448125,-0.15625,0.171875,0.953125
1629370448156,-0.15625,0.171875,0.953125
1629370448187,-0.15625,0.171875,0.953125
1629370448218,-0.140625,0.171875,0.953125
1629370448250,-0.15625,0.171875,0.953125
1629370448281,-0.15625,0.171875,0.953125
1629370448312,-0.15625,0.171875,0.953125
1629370448343,-0.140625,0.171875,0.953125
1629370448375,-0.15625,0.171875,0.953125
1629370448406,-0.140625,0.171875,0.953125
1629370448437,-0.15625,0.171875,0.953125
1629370448468,-0.140625,0.171875,0.953125
1629370448500,-0.15625,0.171875,0.953125
1629370448531,-0.15625,0.171875,0.953125
1629370448562,-0.15625,0.171875,0.953125
1629370448593,-0.140625,0.171875,0.953125
1629370448625,-0.15625,0.171875,0.953125
1629370448656,-0.15625,0.171875,0.953125
1629370448687,-0.15625,0.171875,0.953125
1629370448718,-0.15625,0.171875,0.953125
1629370448750,-0.140625,0.171875,0.953125
1629370448781,-0.15625,0.171875,0.953125
1629370448812,-0.15625,0.171875,0.953125
1629370448843,-0.15625,0.171875,0.953125
1629370448875,-0.140625,0.171875,0.953125
1629370448906,-0.15625,0.171875,0.953125
1629370448937,-0.15625,0.171875,0.953125
1629370448968,-0.15625,0.171875,0.953125
1629370449000,-0.15625,0.171875,0.953125
1629370449031,-0.15625,0.171875,0.953125
1629370449062,-0.15625,0.171875,0.953125
1629370449093,-0.15625,0.171875,0.953125
1629370449125,-0.15625,0.171875,0.953125
1629370449156,-0.15625,0.171875,0.953125
1629370449187,-0.15625,0.171875,0.953125
1629370449218,-0.15625,0.171875,0.953125
1629370449250,-0.15625,0.171875,0.953125
1629370449281,-0.15625,0.171875,0.953125
1629370449312,-0.15625,0.171875,0.953125
1629370449343,-0.15625,0.171875,0.953125
1629370449375,-0.15625,0.171875,0.953125
1629370449406,-0.15625,0.171875,0.953125
1629370449437,-0.15625,0.171875,0.953125
1629370449468,-0.15625,0.171875,0.953125
1629370449500,-0.15625,0.171875,0.953125
1629370449531,-0.15625,0.171875,0.953125
1629370449562,-0.15625,0.171875,0.953125
1629370449593,-0.15625,0.171875,0.953125
1629370449625,-0.15625,0.171875,0.953125
1629370449656,-0.15625,0.171875,0.953125
1629370449687,-0.15625,0.171875,0.953125
1629370449718,-0.15625,0.171875,0.953125
1629370449750,-0.15625,0.171875,0.953125
1629370449781,-0.15625,0.171875,0.953125
1629370449812,-0.15625,0.171875,0.953125
1629370449843,-0.15625,0.171875,0.953125
1629370449875,-0.15625,0.171875,0.953125
1629370449906,-0.15625,0.171875,0.953125
1629370449937,-0.15625,0.171875,0.953125
1629370449968,-0.140625,0.171875,0.953125
1629370450000,-0.15625,0.171875,0.953125
1629370450031,-0.15625,0.171875,0.953125
1629370450062,-0.15625,0.171875,0.953125
1629370450093,-0.15625,0.171875,0.953125
1629370450125,-0.15625,0.171875,0.953125
1629370450156,-0.15625,0.171875,0.953125
1629370450187,-0.15625,0.171875,0.953125
1629370450218,-0.15625,0.171875,0.953125
1629370450250,-0.15625,0.171875,0.953125
1629370450281,-0.15625,0.171875,0.953125
1629370450312,-0.15625,0.171875,0.953125
1629370450343,-0.15625,0.171875,0.953125
1629370450375,-0.15625,0.171875,0.953125
1629370450406,-0.15625,0.171875,0.953125
1629370450437,-0.15625,0.171875,0.953125
1629370450468,-0.15625,0.171875,0.953125
1629370450500,-0.15625,0.171875,0.953125
1629370450531,-0.15625,0.171875,0.953125
1629370450562,-0.15625,0.171875,0.953125
1629370450593,-0.15625,0.171875,0.953125
1629370450625,-0.15625,0.171875,0.953125
1629370450656,-0.15625,0.171875,0.953125
1629370450687,-0.15625,0.171875,0.953125
1629370450718,-0.15625,0.171875,0.953125
1629370450750,-0.15625,0.171875,0.953125
1629370450781,-0.15625,0.171875,0.953125
1629370450812,-0.15625,0.171875,0.953125
1629370450843,-0.15625,0.171875,0.953125
1629370450875,-0.15625,0.171875,0.953125
1629370450906,-0.15625,0.171875,0.953125
1629370450937,-0.15625,0.171875,0.953125
1629370450968,-0.15625,0.171875,0.953125
1629370451000,-0.15625,0.171875,0.953125
1629370451031,-0.15625,0.171875,0.953125
1629370451062,-0.15625,0.171875,0.953125
1629370451093,-0.15625,0.171875,0.953125
1629370451125,-0.15625,0.171875,0.953125
1629370451156,-0.15625,0.171875,0.953125
1629370451187,-0.15625,0.171875,0.953125
1629370451218,-0.15625,0.171875,0.953125
1629370451250,-0.15625,0.171875,0.953125
1629370451281,-0.15625,0.171875,0.953125
1629370451312,-0.15625,0.171875,0.953125
1629370451343,-0.15625,0.171875,0.953125
1629370451375,-0.15625,0.171875,0.953125
1629370451406,-0.15625,0.171875,0.953125
1629370451437,-0.15625,0.171875,0.953125
1629370451468,-0.15625,0.171875,0.953125
1629370451500,-0.15625,0.171875,0.953125
1629370451531,-0.140625,0.171875,0.953125
1629370451562,-0.15625,0.171875,0.953125
1629370451593,-0.15625,0.171875,0.953125
1629370451625,-0.140625,0.171875,0.953125
1629370451656,-0.15625,0.171875,0.953125
1629370451687,-0.140625,0.171875,0.953125
1629370451718,-0.140625,0.171875,0.953125
1629370451750,-0.15625,0.171875,0.953125
1629370451781,-0.15625,0.171875,0.953125
1629370451812,-0.140625,0.171875,0.953125
1629370451843,-0.15625,0.171875,0.953125
1629370451875,-0.140625,0.171875,0.953125
1629370451906,-0.140625,0.171875,0.953125
1629370451937,-0.140625,0.171875,0.953125
1629370451968,-0.140625,0.171875,0.953125
1629370452000,-0.140625,0.171875,0.953125
1629370452031,-0.15625,0.171875,0.953125
1629370452062,-0.140625,0.171875,0.953125
1629370452093,-0.140625,0.171875,0.953125
1629370452125,-0.140625,0.171875,0.953125
1629370452156,-0.15625,0.171875,0.953125
1629370452187,-0.140625,0.171875,0.953125
1629370452218,-0.15625,0.171875,0.953125
1629370452250,-0.140625,0.171875,0.953125
1629370452281,-0.15625,0.171875,0.953125
1629370452312,-0.15625,0.171875,0.953125
1629370452343,-0.15625,0.171875,0.953125
1629370452375,-0.140625,0.171875,0.953125
1629370452406,-0.140625,0.171875,0.953125
1629370452437,-0.140625,0.171875,0.953125
1629370452468,-0.140625,0.171875,0.953125
1629370452500,-0.15625,0.171875,0.953125
1629370452531,-0.140625,0.171875,0.953125
1629370452562,-0.140625,0.171875,0.953125
1629370452593,-0.15625,0.171875,0.953125
1629370452625,-0.140625,0.171875,0.953125
1629370452656,-0.140625,0.171875,0.953125
1629370452687,-0.140625,0.171875,0.953125
1629370452718,-0.15625,0.171875,0.953125
1629370452750,-0.15625,0.171875,0.953125
1629370452781,-0.140625,0.171875,0.953125
1629370452812,-0.140625,0.171875,0.953125
1629370452843,-0.15625,0.171875,0.953125
1629370452875,-0.15625,0.171875,0.953125
1629370452906,-0.15625,0.171875,0.953125
1629370452937,-0.15625,0.171875,0.953125
1629370452968,-0.15625,0.171875,0.953125
1629370453000,-0.15625,0.171875,0.953125
1629370453031,-0.15625,0.171875,0.953125
1629370453062,-0.15625,0.171875,0.953125
1629370453093,-0.15625,0.171875,0.953125
1629370453125,-0.15625,0.171875,0.953125
1629370453156,-0.15625,0.171875,0.953125
1629370453187,-0.15625,0.171875,0.953125
1629370453218,-0.15625,0.171875,0.953125
1629370453250,-0.15625,0.171875,0.953125
1629370453281,-0.15625,0.171875,0.953125
1629370453312,-0.15625,0.171875,0.953125
1629370453343,-0.15625,0.171875,0.953125
1629370453375,-0.15625,0.171875,0.953125
1629370453406,-0.15625,0.171875,0.953125
1629370453437,-0.15625,0.171875,0.953125
1629370453468,-0.15625,0.171875,0.953125
1629370453500,-0.15625,0.171875,0.953125
1629370453531,-0.15625,0.171875,0.953125
1629370453562,-0.15625,0.171875,0.953125
1629370453593,-0.15625,0.171875,0.953125
1629370453625,-0.15625,0.171875,0.953125
1629370453656,-0.15625,0.171875,0.953125
1629370453687,-0.15625,0.171875,0.953125
1629370453718,-0.15625,0.171875,0.953125
1629370453750,-0.15625,0.171875,0.953125
1629370453781,-0.15625,0.171875,0.953125
1629370453812,-0.15625,0.171875,0.953125
1629370453843,-0.15625,0.171875,0.953125
1629370453875,-0.15625,0.171875,0.953125
1629370453906,-0.15625,0.171875,0.953125
1629370453937,-0.15625,0.171875,0.953125
1629370453968,-0.15625,0.171875,0.953125
1629370454000,-0.15625,0.171875,0.953125
1629370454031,-0.15625,0.171875,0.953125
1629370454062,-0.171875,0.171875,0.953125
1629370454093,-0.171875,0.171875,0.953125
1629370454125,-0.15625,0.171875,0.953125
1629370454156,-0.15625,0.171875,0.953125
1629370454187,-0.171875,0.171875,0.953125
1629370454218,-0.171875,0.171875,0.953125
1629370454250,-0.171875,0.171875,0.953125
1629370454281,-0.171875,0.171875,0.953125
1629370454312,-0.171875,0.171875,0.953125
1629370454343,-0.171875,0.171875,0.953125
1629370454375,-0.171875,0.171875,0.953125
1629370454406,-0.171875,0.171875,0.953125
1629370454437,-0.15625,0.171875,0.953125
1629370454468,-0.171875,0.171875,0.953125
1629370454500,-0.171875,0.171875,0.953125
1629370454531,-0.171875,0.171875,0.953125
1629370454562,-0.171875,0.171875,0.953125
1629370454593,-0.171875,0.171875,0.953125
1629370454625,-0.171875,0.171875,0.953125
1629370454656,-0.171875,0.171875,0.953125
1629370454687,-0.15625,0.171875,0.953125
1629370454718,-0.15625,0.171875,0.953125
1629370454750,-0.15625,0.171875,0.953125
1629370454781,-0.171875,0.171875,0.953125
1629370454812,-0.15625,0.171875,0.953125
1629370454843,-0.15625,0.171875,0.953125
1629370454875,-0.15625,0.171875,0.953125
1629370454906,-0.15625,0.171875,0.953125
1629370454937,-0.15625,0.171875,0.953125
1629370454968,-0.15625,0.171875,0.953125
1629370455000,-0.15625,0.171875,0.953125
1629370455031,-0.15625,0.171875,0.953125
1629370455062,-0.15625,0.171875,0.953125
1629370455093,-0.15625,0.171875,0.953125
1629370455125,-0.15625,0.171875,0.953125
1629370455156,-0.15625,0.171875,0.953125
1629370455187,-0.15625,0.171875,0.953125
1629370455218,-0.15625,0.171875,0.953125
1629370455250,-0.15625,0.171875,0.953125
1629370455281,-0.15625,0.171875,0.953125
1629370455312,-0.15625,0.171875,0.953125
1629370455343,-0.15625,0.171875,0.953125
1629370455375,-0.15625,0.171875,0.953125
1629370455406,-0.15625,0.171875,0.953125
1629370455437,-0.15625,0.171875,0.953125
1629370455468,-0.15625,0.171875,0.953125
1629370455500,-0.15625,0.171875,0.953125
1629370455531,-0.15625,0.171875,0.953125
1629370455562,-0.15625,0.171875,0.953125
1629370455593,-0.15625,0.171875,0.953125
1629370455625,-0.15625,0.171875,0.953125
1629370455656,-0.140625,0.171875,0.953125
1629370455687,-0.15625,0.171875,0.953125
1629370455718,-0.15625,0.171875,0.953125
1629370455750,-0.15625,0.171875,0.953125
1629370455781,-0.15625,0.171875,0.953125
1629370455812,-0.15625,0.171875,0.953125
1629370455843,-0.140625,0.171875,0.953125
1629370455875,-0.140625,0.171875,0.953125
1629370455906,-0.140625,0.1875,0.953125
1629370455937,-0.140625,0.171875,0.953125
1629370455968,-0.15625,0.171875,0.953125
1629370456000,-0.140625,0.171875,0.953125
1629370456031,-0.15625,0.171875,0.953125
1629370456062,-0.15625,0.171875,0.953125
1629370456093,-0.15625,0.1875,0.953125
1629370456125,-0.140625,0.171875,0.953125
1629370456156,-0.15625,0.171875,0.953125
1629370456187,-0.15625,0.171875,0.953125
1629370456218,-0.15625,0.171875,0.953125
1629370456250,-0.15625,0.1875,0.953125
1629370456281,-0.140625,0.171875,0.953125
1629370456312,-0.15625,0.171875,0.953125
1629370456343,-0.140625,0.1875,0.953125
1629370456375,-0.15625,0.171875,0.953125
1629370456406,-0.15625,0.171875,0.953125
1629370456437,-0.140625,0.171875,0.953125
1629370456468,-0.15625,0.171875,0.953125
1629370456500,-0.15625,0.171875,0.953125
1629370456531,-0.140625,0.171875,0.953125
1629370456562,-0.15625,0.171875,0.953125
1629370456593,-0.15625,0.171875,0.953125
1629370456625,-0.15625,0.171875,0.953125
1629370456656,-0.140625,0.171875,0.953125
1629370456687,-0.15625,0.171875,0.953125
1629370456718,-0.15625,0.171875,0.953125
1629370456750,-0.15625,0.171875,0.953125
1629370456781,-0.15625,0.171875,0.953125
1629370456812,-0.15625,0.171875,0.953125
1629370456843,-0.15625,0.171875,0.953125
1629370456875,-0.15625,0.171875,0.953125
1629370456906,-0.15625,0.171875,0.953125
1629370456937,-0.15625,0.171875,0.953125
1629370456968,-0.15625,0.171875,0.953125
1629370457000,-0.15625,0.171875,0.953125
1629370457031,-0.15625,0.171875,0.953125
1629370457062,-0.15625,0.171875,0.953125
1629370457093,-0.15625,0.171875,0.953125
1629370457125,-0.15625,0.171875,0.953125
1629370457156,-0.15625,0.171875,0.953125
1629370457187,-0.140625,0.171875,0.953125
1629370457218,-0.171875,0.1875,0.953125
1629370457250,-0.171875,0.171875,0.953125
1629370457281,-0.140625,0.171875,0.96875
1629370457312,-0.140625,0.171875,0.953125
1629370457343,-0.109375,0.171875,0.953125
1629370457375,-0.09375,0.171875,0.953125
1629370457406,-0.09375,0.15625,0.953125
1629370457437,-0.078125,0.15625,0.96875
1629370457468,-0.09375,0.15625,0.96875
1629370457500,-0.0625,0.171875,0.96875
1629370457531,-0.0625,0.15625,0.96875
1629370457562,-0.046875,0.171875,0.96875
1629370457593,-0.0625,0.171875,0.96875
1629370457625,-0.078125,0.15625,0.953125
1629370457656,-0.046875,0.15625,0.96875
1629370457687,-0.078125,0.15625,0.96875
1629370457718,-0.0625,0.15625,0.96875
1629370457750,-0.0625,0.15625,0.96875
1629370457781,-0.109375,0.140625,0.9375
1629370457812,0.046875,0.15625,0.96875
1629370457843,0.09375,0.15625,0.984375
1629370457875,-0.046875,0.15625,0.96875
1629370457906,-0.03125,0.140625,0.96875
1629370457937,-0.015625,0.140625,0.96875
1629370457968,0.015625,0.140625,0.96875
1629370458000,0.125,0.140625,1.0
1629370458031,0.09375,0.171875,1.046875
1629370458062,-0.453125,0.078125,0.859375
1629370458093,0.015625,0.171875,0.984375
1629370458125,-0.078125,0.140625,0.96875
1629370458156,-0.015625,0.171875,1.015625
1629370458187,-0.34375,0.125,0.890625
1629370458218,-0.078125,0.171875,0.96875
1629370458250,-0.109375,0.15625,0.96875
1629370458281,-0.1875,0.15625,0.953125
1629370458312,-0.125,0.15625,0.953125
1629370458343,-0.140625,0.15625,0.96875
1629370458375,-0.171875,0.171875,0.953125
1629370458406,-0.171875,0.15625,0.9375
1629370458437,-0.140625,0.15625,0.953125
1629370458468,-0.140625,0.15625,0.953125
1629370458500,-0.15625,0.15625,0.953125
1629370458531,-0.15625,0.15625,0.953125
1629370458562,-0.15625,0.15625,0.953125
1629370458593,-0.171875,0.15625,0.953125
1629370458625,-0.15625,0.15625,0.953125
1629370458656,-0.15625,0.15625,0.953125
1629370458687,-0.15625,0.15625,0.96875
1629370458718,-0.15625,0.15625,0.953125
1629370458750,-0.15625,0.15625,0.953125
1629370458781,-0.15625,0.15625,0.953125
1629370458812,-0.171875,0.15625,0.953125
1629370458843,-0.15625,0.15625,0.953125
1629370458875,-0.15625,0.15625,0.953125
1629370458906,-0.140625,0.15625,0.96875
1629370458937,-0.1875,0.140625,0.953125
1629370458968,-0.171875,0.140625,0.953125
1629370459000,-0.15625,0.140625,0.953125
1629370459031,-0.15625,0.140625,0.96875
1629370459062,-0.15625,0.140625,0.953125
1629370459093,-0.140625,0.140625,0.953125
1629370459125,-0.15625,0.140625,0.953125
1629370459156,-0.15625,0.140625,0.953125
1629370459187,-0.140625,0.140625,0.953125
1629370459218,-0.140625,0.125,0.953125
1629370459250,-0.140625,0.125,0.953125
1629370459281,-0.140625,0.125,0.953125
1629370459312,-0.15625,0.125,0.953125
1629370459343,-0.15625,0.125,0.96875
1629370459375,-0.15625,0.125,0.953125
1629370459406,-0.140625,0.140625,0.953125
1629370459437,-0.15625,0.140625,0.953125
1629370459468,-0.15625,0.140625,0.953125
1629370459500,-0.140625,0.140625,0.96875
1629370459531,-0.140625,0.140625,0.953125
1629370459562,-0.140625,0.140625,0.953125
1629370459593,-0.140625,0.140625,0.953125
1629370459625,-0.15625,0.140625,0.953125
1629370459656,-0.140625,0.15625,0.953125
1629370459687,-0.15625,0.15625,0.953125
1629370459718,-0.140625,0.15625,0.953125
1629370459750,-0.15625,0.15625,0.953125
1629370459781,-0.140625,0.15625,0.953125
1629370459812,-0.140625,0.15625,0.96875
1629370459843,-0.15625,0.15625,0.953125
1629370459875,-0.140625,0.15625,0.953125
1629370459906,-0.140625,0.15625,0.953125
1629370459937,-0.140625,0.15625,0.953125
1629370459968,-0.140625,0.15625,0.953125
1629370460000,-0.140625,0.15625,0.953125
1629370460031,-0.140625,0.15625,0.953125
1629370460062,-0.140625,0.15625,0.953125
1629370460093,-0.140625,0.15625,0.953125
1629370460125,-0.140625,0.15625,0.953125
1629370460156,-0.140625,0.15625,0.96875
1629370460187,-0.15625,0.140625,0.953125
1629370460218,-0.140625,0.140625,0.953125
1629370460250,-0.140625,0.140625,0.953125
1629370460281,-0.140625,0.140625,0.953125
1629370460312,-0.140625,0.140625,0.953125
1629370460343,-0.15625,0.140625,0.953125
1629370460375,-0.140625,0.140625,0.953125
1629370460406,-0.140625,0.140625,0.953125
1629370460437,-0.140625,0.140625,0.96875
1629370460468,-0.15625,0.140625,0.96875
1629370460500,-0.15625,0.140625,0.953125
1629370460531,-0.15625,0.140625,0.953125
1629370460562,-0.15625,0.140625,0.953125
1629370460593,-0.140625,0.140625,0.953125
1629370460625,-0.15625,0.140625,0.953125
1629370460656,-0.15625,0.140625,0.953125
1629370460687,-0.140625,0.140625,0.953125
1629370460718,-0.140625,0.140625,0.953125
1629370460750,-0.15625,0.140625,0.953125
1629370460781,-0.15625,0.140625,0.953125
1629370460812,-0.140625,0.140625,0.953125
1629370460843,-0.15625,0.140625,0.953125
1629370460875,-0.15625,0.140625,0.953125
1629370460906,-0.15625,0.140625,0.953125
1629370460937,-0.15625,0.140625,0.953125
1629370460968,-0.15625,0.140625,0.96875
1629370461000,-0.15625,0.140625,0.953125
1629370461031,-0.15625,0.140625,0.953125
1629370461062,-0.15625,0.140625,0.953125
1629370461093,-0.15625,0.140625,0.96875
1629370461125,-0.15625,0.15625,0.953125
1629370461156,-0.15625,0.140625,0.953125
1629370461187,-0.15625,0.140625,0.953125
1629370461218,-0.15625,0.140625,0.953125
1629370461250,-0.15625,0.15625,0.953125
1629370461281,-0.15625,0.15625,0.953125
1629370461312,-0.15625,0.15625,0.953125
1629370461343,-0.15625,0.140625,0.953125
1629370461375,-0.15625,0.140625,0.953125
1629370461406,-0.15625,0.140625,0.953125
1629370461437,-0.15625,0.140625,0.953125
1629370461468,-0.15625,0.140625,0.953125
1629370461500,-0.15625,0.15625,0.953125
1629370461531,-0.15625,0.140625,0.953125
1629370461562,-0.171875,0.140625,0.953125
1629370461593,-0.15625,0.140625,0.953125
1629370461625,-0.171875,0.140625,0.953125
1629370461656,-0.15625,0.140625,0.953125
1629370461687,-0.15625,0.140625,0.953125
1629370461718,-0.15625,0.140625,0.953125
1629370461750,-0.15625,0.140625,0.953125
1629370461781,-0.171875,0.140625,0.953125
1629370461812,-0.15625,0.140625,0.953125
1629370461843,-0.15625,0.140625,0.953125
1629370461875,-0.171875,0.140625,0.953125
1629370461906,-0.15625,0.140625,0.953125
1629370461937,-0.15625,0.15625,0.953125
1629370461968,-0.171875,0.140625,0.953125
1629370462000,-0.171875,0.140625,0.953125
1629370462031,-0.15625,0.140625,0.953125
1629370462062,-0.15625,0.15625,0.953125
1629370462093,-0.15625,0.15625,0.953125
1629370462125,-0.15625,0.140625,0.953125
1629370462156,-0.15625,0.140625,0.953125
1629370462187,-0.15625,0.15625,0.96875
1629370462218,-0.15625,0.15625,0.953125
1629370462250,-0.15625,0.140625,0.953125
1629370462281,-0.15625,0.140625,0.953125
1629370462312,-0.15625,0.15625,0.953125
1629370462343,-0.15625,0.15625,0.953125
1629370462375,-0.15625,0.140625,0.953125
1629370462406,-0.15625,0.140625,0.953125
1629370462437,-0.15625,0.15625,0.953125
1629370462468,-0.15625,0.140625,0.953125
1629370462500,-0.15625,0.15625,0.953125
1629370462531,-0.15625,0.15625,0.953125
1629370462562,-0.15625,0.140625,0.953125
1629370462593,-0.15625,0.15625,0.953125
1629370462625,-0.15625,0.15625,0.953125
1629370462656,-0.15625,0.15625,0.953125
1629370462687,-0.15625,0.15625,0.953125
1629370462718,-0.140625,0.140625,0.953125
1629370462750,-0.15625,0.15625,0.953125
1629370462781,-0.140625,0.15625,0.953125
1629370462812,-0.15625,0.15625,0.953125
1629370462843,-0.15625,0.15625,0.953125
1629370462875,-0.15625,0.15625,0.953125
1629370462906,-0.15625,0.15625,0.953125
1629370462937,-0.15625,0.15625,0.953125
1629370462968,-0.15625,0.15625,0.953125
1629370463000,-0.15625,0.15625,0.953125
1629370463031,-0.140625,0.15625,0.953125
1629370463062,-0.140625,0.15625,0.953125
1629370463093,-0.15625,0.15625,0.953125
1629370463125,-0.15625,0.15625,0.953125
1629370463156,-0.140625,0.15625,0.953125
1629370463187,-0.140625,0.15625,0.953125
1629370463218,-0.15625,0.15625,0.953125
1629370463250,-0.140625,0.15625,0.953125
1629370463281,-0.15625,0.15625,0.953125
1629370463312,-0.15625,0.15625,0.953125
1629370463343,-0.15625,0.15625,0.953125
1629370463375,-0.140625,0.15625,0.953125
1629370463406,-0.140625,0.15625,0.953125
1629370463437,-0.15625,0.15625,0.953125
1629370463468,-0.15625,0.15625,0.953125
1629370463500,-0.140625,0.15625,0.96875
1629370463531,-0.15625,0.15625,0.953125
1629370463562,-0.140625,0.15625,0.953125
1629370463593,-0.140625,0.15625,0.96875
1629370463625,-0.15625,0.15625,0.953125
1629370463656,-0.140625,0.15625,0.953125
1629370463687,-0.140625,0.15625,0.953125
1629370463718,-0.15625,0.15625,0.953125
1629370463750,-0.15625,0.15625,0.953125
1629370463781,-0.15625,0.15625,0.953125
1629370463812,-0.15625,0.15625,0.953125
1629370463843,-0.15625,0.15625,0.953125
1629370463875,-0.140625,0.15625,0.953125
1629370463906,-0.15625,0.15625,0.953125
1629370463937,-0.15625,0.15625,0.953125
1629370463968,-0.15625,0.15625,0.953125
1629370464000,-0.15625,0.15625,0.953125
1629370464031,-0.15625,0.15625,0.953125
1629370464062,-0.15625,0.15625,0.953125
1629370464093,-0.15625,0.15625,0.953125
1629370464125,-0.15625,0.15625,0.953125
1629370464156,-0.15625,0.15625,0.953125
1629370464187,-0.15625,0.140625,0.953125
1629370464218,-0.15625,0.15625,0.953125
1629370464250,-0.15625,0.15625,0.953125
1629370464281,-0.15625,0.15625,0.953125
1629370464312,-0.15625,0.15625,0.96875
1629370464343,-0.15625,0.15625,0.953125
1629370464375,-0.15625,0.140625,0.953125
1629370464406,-0.15625,0.15625,0.953125
1629370464437,-0.15625,0.15625,0.953125
1629370464468,-0.15625,0.15625,0.953125
1629370464500,-0.15625,0.15625,0.953125
1629370464531,-0.15625,0.15625,0.953125
1629370464562,-0.15625,0.140625,0.953125
1629370464593,-0.15625,0.15625,0.953125
1629370464625,-0.15625,0.15625,0.953125
1629370464656,-0.15625,0.15625,0.953125
1629370464687,-0.15625,0.140625,0.953125
1629370464718,-0.15625,0.15625,0.96875
1629370464750,-0.15625,0.15625,0.953125
1629370464781,-0.15625,0.15625,0.953125
1629370464812,-0.15625,0.15625,0.953125
1629370464843,-0.15625,0.140625,0.953125
1629370464875,-0.15625,0.140625,0.953125
1629370464906,-0.15625,0.140625,0.953125
1629370464937,-0.15625,0.140625,0.953125
1629370464968,-0.15625,0.140625,0.953125
1629370465000,-0.15625,0.15625,0.953125
1629370465031,-0.15625,0.140625,0.953125
1629370465062,-0.15625,0.140625,0.953125
1629370465093,-0.15625,0.15625,0.953125
1629370465125,-0.15625,0.140625,0.953125
1629370465156,-0.15625,0.140625,0.953125
1629370465187,-0.15625,0.140625,0.953125
1629370465218,-0.15625,0.15625,0.953125
1629370465250,-0.171875,0.140625,0.953125
1629370465281,-0.171875,0.140625,0.953125
1629370465312,-0.15625,0.140625,0.953125
1629370465343,-0.15625,0.140625,0.953125
1629370465375,-0.15625,0.140625,0.953125
1629370465406,-0.15625,0.140625,0.953125
1629370465437,-0.15625,0.140625,0.953125
1629370465468,-0.15625,0.140625,0.953125
1629370465500,-0.171875,0.140625,0.953125
1629370465531,-0.15625,0.15625,0.953125
1629370465562,-0.15625,0.140625,0.953125
1629370465593,-0.15625,0.140625,0.953125
1629370465625,-0.15625,0.140625,0.953125
1629370465656,-0.15625,0.140625,0.953125
1629370465687,-0.171875,0.140625,0.953125
1629370465718,-0.15625,0.15625,0.953125
1629370465750,-0.15625,0.15625,0.953125
1629370465781,-0.15625,0.140625,0.953125
1629370465812,-0.15625,0.140625,0.953125
1629370465843,-0.15625,0.15625,0.953125
1629370465875,-0.15625,0.140625,0.953125
1629370465906,-0.15625,0.15625,0.953125
1629370465937,-0.15625,0.15625,0.953125
1629370465968,-0.15625,0.140625,0.953125
1629370466000,-0.15625,0.15625,0.953125
1629370466031,-0.15625,0.15625,0.953125
1629370466062,-0.15625,0.15625,0.953125
1629370466093,-0.15625,0.15625,0.953125
1629370466125,-0.15625,0.140625,0.953125
1629370466156,-0.15625,0.15625,0.953125
1629370466187,-0.15625,0.15625,0.953125
1629370466218,-0.15625,0.15625,0.953125
1629370466250,-0.15625,0.15625,0.953125
1629370466281,-0.15625,0.15625,0.953125
1629370466312,-0.15625,0.15625,0.953125
1629370466343,-0.15625,0.15625,0.953125
1629370466375,-0.15625,0.15625,0.953125
1629370466406,-0.140625,0.15625,0.953125
1629370466437,-0.15625,0.15625,0.953125
1629370466468,-0.140625,0.15625,0.953125
1629370466500,-0.15625,0.15625,0.953125
1629370466531,-0.15625,0.15625,0.953125
1629370466562,-0.140625,0.15625,0.953125
1629370466593,-0.15625,0.15625,0.953125
1629370466625,-0.140625,0.15625,0.953125
1629370466656,-0.140625,0.15625,0.953125
1629370466687,-0.140625,0.15625,0.953125
1629370466718,-0.15625,0.15625,0.953125
1629370466750,-0.140625,0.15625,0.953125
1629370466781,-0.15625,0.15625,0.953125
1629370466812,-0.15625,0.15625,0.953125
1629370466843,-0.140625,0.15625,0.953125
1629370466875,-0.15625,0.15625,0.953125
1629370466906,-0.140625,0.15625,0.953125
1629370466937,-0.140625,0.15625,0.953125
1629370466968,-0.140625,0.15625,0.953125
1629370467000,-0.140625,0.15625,0.953125
1629370467031,-0.140625,0.15625,0.953125
1629370467062,-0.140625,0.15625,0.953125
1629370467093,-0.140625,0.15625,0.953125
1629370467125,-0.140625,0.15625,0.953125
1629370467156,-0.140625,0.15625,0.953125
1629370467187,-0.15625,0.15625,0.953125
1629370467218,-0.140625,0.15625,0.953125
1629370467250,-0.140625,0.15625,0.953125
1629370467281,-0.140625,0.15625,0.953125
1629370467312,-0.140625,0.15625,0.953125
1629370467343,-0.140625,0.15625,0.953125
1629370467375,-0.15625,0.15625,0.953125
1629370467406,-0.140625,0.15625,0.953125
1629370467437,-0.15625,0.15625,0.953125
1629370467468,-0.15625,0.15625,0.953125
1629370467500,-0.140625,0.15625,0.953125
1629370467531,-0.140625,0.15625,0.953125
1629370467562,-0.15625,0.15625,0.953125
1629370467593,-0.15625,0.15625,0.953125
1629370467625,-0.140625,0.15625,0.953125
1629370467656,-0.140625,0.15625,0.953125
1629370467687,-0.140625,0.15625,0.953125
1629370467718,-0.15625,0.15625,0.953125
1629370467750,-0.15625,0.15625,0.953125
1629370467781,-0.15625,0.15625,0.953125
1629370467812,-0.140625,0.15625,0.953125
1629370467843,-0.15625,0.15625,0.953125
1629370467875,-0.140625,0.15625,0.96875
1629370467906,-0.140625,0.15625,0.953125
1629370467937,-0.15625,0.15625,0.953125
1629370467968,-0.15625,0.15625,0.953125
1629370468000,-0.15625,0.15625,0.953125
1629370468031,-0.15625,0.15625,0.953125
1629370468062,-0.15625,0.15625,0.953125
1629370468093,-0.15625,0.15625,0.953125
1629370468125,-0.15625,0.15625,0.953125
1629370468156,-0.15625,0.140625,0.953125
1629370468187,-0.15625,0.15625,0.953125
1629370468218,-0.15625,0.140625,0.953125
1629370468250,-0.15625,0.15625,0.953125
1629370468281,-0.15625,0.15625,0.953125
1629370468312,-0.15625,0.15625,0.953125
1629370468343,-0.15625,0.15625,0.953125
1629370468375,-0.15625,0.15625,0.953125
1629370468406,-0.15625,0.15625,0.953125
1629370468437,-0.15625,0.140625,0.953125
1629370468468,-0.15625,0.140625,0.953125
1629370468500,-0.15625,0.140625,0.953125
1629370468531,-0.15625,0.15625,0.953125
1629370468562,-0.15625,0.15625,0.953125
1629370468593,-0.15625,0.140625,0.953125
1629370468625,-0.15625,0.140625,0.953125
1629370468656,-0.15625,0.15625,0.96875
1629370468687,-0.15625,0.140625,0.953125
1629370468718,-0.15625,0.140625,0.953125
1629370468750,-0.15625,0.140625,0.953125
1629370468781,-0.15625,0.140625,0.953125
1629370468812,-0.15625,0.140625,0.953125
1629370468843,-0.15625,0.140625,0.953125
1629370468875,-0.15625,0.140625,0.953125
1629370468906,-0.171875,0.140625,0.953125
1629370468937,-0.15625,0.140625,0.953125
1629370468968,-0.15625,0.140625,0.953125
1629370469000,-0.15625,0.140625,0.953125
1629370469031,-0.15625,0.140625,0.953125
1629370469062,-0.171875,0.140625,0.953125
1629370469093,-0.15625,0.140625,0.953125
1629370469125,-0.15625,0.140625,0.953125
1629370469156,-0.15625,0.140625,0.953125
1629370469187,-0.15625,0.15625,0.953125
1629370469218,-0.15625,0.140625,0.953125
1629370469250,-0.171875,0.140625,0.953125
1629370469281,-0.171875,0.140625,0.953125
1629370469312,-0.15625,0.140625,0.953125
1629370469343,-0.15625,0.140625,0.953125
1629370469375,-0.15625,0.140625,0.953125
1629370469406,-0.15625,0.140625,0.953125
1629370469437,-0.15625,0.140625,0.953125
1629370469468,-0.15625,0.140625,0.953125
1629370469500,-0.15625,0.140625,0.953125
1629370469531,-0.15625,0.140625,0.953125
1629370469562,-0.15625,0.140625,0.953125
1629370469593,-0.171875,0.15625,0.953125
1629370469625,-0.15625,0.140625,0.953125
1629370469656,-0.15625,0.140625,0.953125
1629370469687,-0.15625,0.140625,0.953125
1629370469718,-0.15625,0.15625,0.953125
1629370469750,-0.15625,0.140625,0.96875
1629370469781,-0.15625,0.140625,0.953125
1629370469812,-0.15625,0.140625,0.953125
1629370469843,-0.15625,0.140625,0.953125
1629370469875,-0.15625,0.15625,0.953125
1629370469906,-0.15625,0.15625,0.953125
1629370469937,-0.15625,0.15625,0.953125
1629370469968,-0.15625,0.140625,0.953125
1629370470000,-0.15625,0.15625,0.953125
1629370470031,-0.140625,0.15625,0.953125
1629370470062,-0.15625,0.15625,0.953125
1629370470093,-0.15625,0.15625,0.953125
1629370470125,-0.15625,0.15625,0.953125
1629370470156,-0.15625,0.15625,0.953125
1629370470187,-0.140625,0.15625,0.953125
1629370470218,-0.15625,0.15625,0.953125
1629370470250,-0.15625,0.15625,0.953125
1629370470281,-0.15625,0.15625,0.953125
1629370470312,-0.15625,0.15625,0.953125
1629370470343,-0.15625,0.15625,0.953125
1629370470375,-0.15625,0.15625,0.953125
1629370470406,-0.15625,0.15625,0.953125
1629370470437,-0.15625,0.15625,0.953125
1629370470468,-0.140625,0.15625,0.953125
1629370470500,-0.140625,0.15625,0.953125
1629370470531,-0.140625,0.15625,0.96875
1629370470562,-0.140625,0.15625,0.953125
1629370470593,-0.15625,0.15625,0.953125
1629370470625,-0.140625,0.15625,0.953125
1629370470656,-0.140625,0.15625,0.953125
1629370470687,-0.140625,0.15625,0.953125
1629370470718,-0.140625,0.15625,0.953125
1629370470750,-0.140625,0.15625,0.953125
1629370470781,-0.140625,0.15625,0.953125
1629370470812,-0.140625,0.15625,0.953125
1629370470843,-0.140625,0.15625,0.953125
1629370470875,-0.140625,0.15625,0.953125
1629370470906,-0.140625,0.15625,0.953125
1629370470937,-0.15625,0.15625,0.953125
1629370470968,-0.15625,0.15625,0.953125
1629370471000,-0.140625,0.15625,0.953125
1629370471031,-0.140625,0.15625,0.953125
1629370471062,-0.15625,0.15625,0.953125
1629370471093,-0.140625,0.15625,0.96875
1629370471125,-0.15625,0.15625,0.953125
1629370471156,-0.15625,0.15625,0.953125
1629370471187,-0.140625,0.15625,0.953125
1629370471218,-0.140625,0.15625,0.953125
1629370471250,-0.140625,0.15625,0.953125
1629370471281,-0.15625,0.15625,0.953125
1629370471312,-0.15625,0.15625,0.953125
1629370471343,-0.15625,0.15625,0.953125
1629370471375,-0.15625,0.15625,0.953125
1629370471406,-0.15625,0.15625,0.953125
1629370471437,-0.15625,0.15625,0.953125
1629370471468,-0.140625,0.15625,0.953125
1629370471500,-0.15625,0.15625,0.953125
1629370471531,-0.15625,0.15625,0.953125
1629370471562,-0.15625,0.15625,0.953125
1629370471593,-0.15625,0.15625,0.953125
1629370471625,-0.15625,0.15625,0.953125
1629370471656,-0.15625,0.15625,0.953125
1629370471687,-0.15625,0.15625,0.953125
1629370471718,-0.15625,0.15625,0.953125
1629370471750,-0.15625,0.15625,0.953125
1629370471781,-0.15625,0.15625,0.953125
1629370471812,-0.15625,0.15625,0.953125
1629370471843,-0.15625,0.15625,0.953125
1629370471875,-0.15625,0.15625,0.953125
1629370471906,-0.15625,0.15625,0.953125
1629370471937,-0.15625,0.15625,0.953125
1629370471968,-0.15625,0.15625,0.953125
1629370472000,-0.15625,0.15625,0.953125
1629370472031,-0.15625,0.15625,0.953125
1629370472062,-0.15625,0.15625,0.953125
1629370472093,-0.15625,0.140625,0.953125
1629370472125,-0.15625,0.15625,0.953125
1629370472156,-0.15625,0.15625,0.953125
1629370472187,-0.15625,0.15625,0.953125
1629370472218,-0.15625,0.140625,0.953125
1629370472250,-0.15625,0.15625,0.953125
1629370472281,-0.15625,0.140625,0.953125
1629370472312,-0.15625,0.15625,0.953125
1629370472343,-0.15625,0.15625,0.953125
1629370472375,-0.15625,0.15625,0.953125
1629370472406,-0.15625,0.15625,0.953125
1629370472437,-0.15625,0.140625,0.953125
1629370472468,-0.15625,0.140625,0.953125
1629370472500,-0.15625,0.140625,0.953125
1629370472531,-0.15625,0.140625,0.953125
1629370472562,-0.15625,0.140625,0.953125
1629370472593,-0.15625,0.15625,0.953125
1629370472625,-0.15625,0.15625,0.953125
1629370472656,-0.15625,0.140625,0.953125
1629370472687,-0.15625,0.140625,0.953125
1629370472718,-0.171875,0.140625,0.953125
1629370472750,-0.15625,0.15625,0.953125
1629370472781,-0.15625,0.140625,0.953125
1629370472812,-0.15625,0.140625,0.953125
1629370472843,-0.171875,0.140625,0.953125
1629370472875,-0.15625,0.15625,0.953125
1629370472906,-0.15625,0.140625,0.953125
1629370472937,-0.15625,0.140625,0.953125
1629370472968,-0.15625,0.140625,0.953125
1629370473000,-0.15625,0.140625,0.953125
1629370473031,-0.15625,0.15625,0.953125
1629370473062,-0.15625,0.140625,0.953125
1629370473093,-0.15625,0.15625,0.953125
1629370473125,-0.15625,0.140625,0.953125
1629370473156,-0.15625,0.140625,0.953125
1629370473187,-0.15625,0.15625,0.953125
1629370473218,-0.15625,0.140625,0.953125
1629370473250,-0.15625,0.140625,0.953125
1629370473281,-0.15625,0.140625,0.953125
1629370473312,-0.15625,0.15625,0.953125
1629370473343,-0.15625,0.140625,0.953125
1629370473375,-0.15625,0.140625,0.953125
1629370473406,-0.15625,0.140625,0.953125
1629370473437,-0.15625,0.15625,0.953125
1629370473468,-0.15625,0.140625,0.953125
1629370473500,-0.15625,0.15625,0.953125
1629370473531,-0.15625,0.15625,0.953125
1629370473562,-0.15625,0.15625,0.953125
1629370473593,-0.15625,0.140625,0.953125
1629370473625,-0.15625,0.15625,0.953125
1629370473656,-0.15625,0.15625,0.953125
1629370473687,-0.15625,0.140625,0.953125
1629370473718,-0.15625,0.15625,0.953125
1629370473750,-0.15625,0.140625,0.953125
1629370473781,-0.15625,0.15625,0.953125
1629370473812,-0.140625,0.15625,0.953125
1629370473843,-0.15625,0.15625,0.953125
1629370473875,-0.140625,0.15625,0.953125
1629370473906,-0.15625,0.15625,0.953125
1629370473937,-0.15625,0.15625,0.953125
1629370473968,-0.15625,0.15625,0.953125
1629370474000,-0.15625,0.15625,0.953125
1629370474031,-0.140625,0.15625,0.953125
1629370474062,-0.15625,0.15625,0.953125
1629370474093,-0.15625,0.15625,0.953125
1629370474125,-0.140625,0.15625,0.953125
1629370474156,-0.15625,0.15625,0.953125
1629370474187,-0.15625,0.15625,0.953125
1629370474218,-0.15625,0.15625,0.953125
1629370474250,-0.140625,0.15625,0.953125
1629370474281,-0.15625,0.15625,0.953125
1629370474312,-0.140625,0.15625,0.953125
1629370474343,-0.15625,0.15625,0.953125
1629370474375,-0.15625,0.15625,0.953125
1629370474406,-0.15625,0.15625,0.953125
1629370474437,-0.15625,0.15625,0.953125
1629370474468,-0.140625,0.15625,0.953125
1629370474500,-0.15625,0.15625,0.953125
1629370474531,-0.15625,0.15625,0.953125
1629370474562,-0.140625,0.15625,0.953125
1629370474593,-0.15625,0.15625,0.96875
1629370474625,-0.15625,0.15625,0.953125
1629370474656,-0.15625,0.15625,0.953125
1629370474687,-0.15625,0.15625,0.953125
1629370474718,-0.15625,0.15625,0.953125
1629370474750,-0.15625,0.15625,0.953125
1629370474781,-0.15625,0.15625,0.953125
1629370474812,-0.15625,0.15625,0.953125
1629370474843,-0.15625,0.15625,0.953125
1629370474875,-0.15625,0.15625,0.953125
1629370474906,-0.15625,0.15625,0.953125
1629370474937,-0.15625,0.15625,0.953125
1629370474968,-0.15625,0.15625,0.953125
1629370475000,-0.140625,0.15625,0.953125
1629370475031,-0.15625,0.15625,0.953125
1629370475062,-0.15625,0.15625,0.953125
1629370475093,-0.140625,0.15625,0.953125
1629370475125,-0.140625,0.15625,0.953125
1629370475156,-0.15625,0.15625,0.953125
1629370475187,-0.15625,0.15625,0.953125
1629370475218,-0.15625,0.140625,0.953125
1629370475250,-0.15625,0.140625,0.953125
1629370475281,-0.15625,0.15625,0.96875
1629370475312,-0.15625,0.15625,0.953125
1629370475343,-0.15625,0.15625,0.953125
1629370475375,-0.15625,0.15625,0.953125
1629370475406,-0.15625,0.15625,0.953125
1629370475437,-0.15625,0.15625,0.953125
1629370475468,-0.15625,0.15625,0.953125
1629370475500,-0.15625,0.15625,0.953125
1629370475531,-0.15625,0.15625,0.953125
1629370475562,-0.15625,0.15625,0.953125
1629370475593,-0.15625,0.15625,0.953125
1629370475625,-0.15625,0.140625,0.953125
1629370475656,-0.15625,0.15625,0.953125
1629370475687,-0.15625,0.140625,0.953125
1629370475718,-0.15625,0.15625,0.953125
1629370475750,-0.15625,0.15625,0.953125
1629370475781,-0.15625,0.15625,0.953125
1629370475812,-0.15625,0.15625,0.953125
1629370475843,-0.15625,0.15625,0.953125
1629370475875,-0.15625,0.15625,0.953125
1629370475906,-0.171875,0.15625,0.953125
1629370475937,-0.15625,0.15625,0.953125
1629370475968,-0.171875,0.140625,0.953125
1629370476000,-0.171875,0.15625,0.96875
1629370476031,-0.15625,0.140625,0.953125
1629370476062,-0.15625,0.140625,0.953125
1629370476093,-0.15625,0.140625,0.953125
1629370476125,-0.15625,0.140625,0.953125
1629370476156,-0.15625,0.15625,0.953125
1629370476187,-0.15625,0.140625,0.953125
1629370476218,-0.171875,0.140625,0.953125
1629370476250,-0.15625,0.140625,0.953125
1629370476281,-0.15625,0.140625,0.953125
1629370476312,-0.15625,0.140625,0.953125
1629370476343,-0.171875,0.140625,0.953125
1629370476375,-0.171875,0.15625,0.953125
1629370476406,-0.171875,0.15625,0.953125
1629370476437,-0.171875,0.15625,0.953125
1629370476468,-0.171875,0.140625,0.953125
1629370476500,-0.171875,0.15625,0.953125
1629370476531,-0.171875,0.15625,0.953125
1629370476562,-0.15625,0.140625,0.953125
1629370476593,-0.15625,0.140625,0.953125
1629370476625,-0.171875,0.15625,0.953125
1629370476656,-0.171875,0.140625,0.953125
1629370476687,-0.15625,0.140625,0.953125
1629370476718,-0.171875,0.140625,0.953125
1629370476750,-0.171875,0.140625,0.953125
1629370476781,-0.15625,0.15625,0.953125
1629370476812,-0.171875,0.15625,0.953125
1629370476843,-0.15625,0.15625,0.953125
1629370476875,-0.171875,0.140625,0.953125
1629370476906,-0.15625,0.15625,0.953125
1629370476937,-0.15625,0.15625,0.953125
1629370476968,-0.15625,0.15625,0.953125
1629370477000,-0.15625,0.140625,0.953125
1629370477031,-0.15625,0.15625,0.953125
1629370477062,-0.171875,0.15625,0.953125
1629370477093,-0.15625,0.15625,0.953125
1629370477125,-0.15625,0.15625,0.953125
1629370477156,-0.15625,0.15625,0.953125
1629370477187,-0.15625,0.140625,0.953125
1629370477218,-0.15625,0.15625,0.953125
1629370477250,-0.15625,0.15625,0.953125
1629370477281,-0.15625,0.15625,0.953125
1629370477312,-0.15625,0.15625,0.953125
1629370477343,-0.15625,0.140625,0.953125
1629370477375,-0.15625,0.15625,0.953125
1629370477406,-0.15625,0.15625,0.96875
1629370477437,-0.15625,0.15625,0.953125
1629370477468,-0.15625,0.15625,0.953125
1629370477500,-0.15625,0.15625,0.953125
1629370477531,-0.15625,0.15625,0.953125
1629370477562,-0.15625,0.15625,0.953125
1629370477593,-0.15625,0.15625,0.953125
1629370477625,-0.15625,0.15625,0.953125
1629370477656,-0.15625,0.15625,0.953125
1629370477687,-0.15625,0.15625,0.953125
1629370477718,-0.15625,0.15625,0.953125
1629370477750,-0.15625,0.15625,0.953125
1629370477781,-0.15625,0.15625,0.953125
1629370477812,-0.140625,0.15625,0.953125
1629370477843,-0.15625,0.15625,0.953125
1629370477875,-0.15625,0.15625,0.953125
1629370477906,-0.15625,0.15625,0.953125
1629370477937,-0.15625,0.15625,0.953125
1629370477968,-0.15625,0.15625,0.953125
1629370478000,-0.15625,0.15625,0.953125
1629370478031,-0.15625,0.15625,0.953125
1629370478062,-0.140625,0.15625,0.953125
1629370478093,-0.15625,0.15625,0.953125
1629370478125,-0.15625,0.15625,0.953125
1629370478156,-0.15625,0.15625,0.953125
1629370478187,-0.15625,0.15625,0.953125
1629370478218,-0.140625,0.15625,0.953125
1629370478250,-0.140625,0.15625,0.953125
1629370478281,-0.15625,0.15625,0.953125
1629370478312,-0.15625,0.15625,0.953125
1629370478343,-0.15625,0.15625,0.953125
1629370478375,-0.15625,0.15625,0.953125
1629370478406,-0.15625,0.15625,0.953125
1629370478437,-0.140625,0.15625,0.953125
1629370478468,-0.140625,0.15625,0.96875
1629370478500,-0.15625,0.15625,0.953125
1629370478531,-0.15625,0.15625,0.953125
1629370478562,-0.15625,0.15625,0.953125
1629370478593,-0.15625,0.15625,0.953125
1629370478625,-0.15625,0.15625,0.953125
1629370478656,-0.140625,0.15625,0.953125
1629370478687,-0.15625,0.15625,0.953125
1629370478718,-0.15625,0.15625,0.953125
1629370478750,-0.15625,0.140625,0.953125
1629370478781,-0.15625,0.140625,0.953125
1629370478812,-0.15625,0.15625,0.953125
1629370478843,-0.15625,0.140625,0.953125
1629370478875,-0.15625,0.15625,0.953125
1629370478906,-0.15625,0.15625,0.953125
1629370478937,-0.15625,0.15625,0.953125
1629370478968,-0.15625,0.140625,0.953125
1629370479000,-0.15625,0.140625,0.953125
1629370479031,-0.15625,0.140625,0.953125
1629370479062,-0.15625,0.15625,0.953125
1629370479093,-0.15625,0.140625,0.953125
1629370479125,-0.15625,0.140625,0.953125
1629370479156,-0.15625,0.140625,0.953125
1629370479187,-0.15625,0.140625,0.953125
1629370479218,-0.15625,0.140625,0.953125
1629370479250,-0.15625,0.140625,0.953125
1629370479281,-0.15625,0.140625,0.953125
1629370479312,-0.15625,0.140625,0.953125
1629370479343,-0.15625,0.140625,0.953125
1629370479375,-0.15625,0.140625,0.953125
1629370479406,-0.15625,0.15625,0.953125
1629370479437,-0.15625,0.140625,0.953125
1629370479468,-0.15625,0.140625,0.953125
1629370479500,-0.15625,0.15625,0.953125
1629370479531,-0.15625,0.140625,0.953125
1629370479562,-0.15625,0.140625,0.96875
1629370479593,-0.15625,0.140625,0.953125
1629370479625,-0.15625,0.15625,0.953125
1629370479656,-0.15625,0.140625,0.953125
1629370479687,-0.15625,0.15625,0.953125
1629370479718,-0.15625,0.140625,0.953125
1629370479750,-0.15625,0.140625,0.953125
1629370479781,-0.15625,0.140625,0.953125
1629370479812,-0.15625,0.140625,0.953125
1629370479843,-0.15625,0.140625,0.953125
1629370479875,-0.15625,0.140625,0.953125
1629370479906,-0.15625,0.140625,0.953125
1629370479937,-0.15625,0.140625,0.953125
1629370479968,-0.15625,0.140625,0.953125
1629370480000,-0.15625,0.140625,0.953125
1629370480031,-0.15625,0.140625,0.953125
1629370480062,-0.171875,0.140625,0.953125
1629370480093,-0.171875,0.140625,0.953125
1629370480125,-0.171875,0.140625,0.953125
1629370480156,-0.15625,0.140625,0.96875
1629370480187,-0.15625,0.140625,0.953125
1629370480218,-0.15625,0.140625,0.953125
1629370480250,-0.171875,0.140625,0.953125
1629370480281,-0.171875,0.140625,0.96875
1629370480312,-0.15625,0.140625,0.953125
1629370480343,-0.171875,0.140625,0.953125
1629370480375,-0.15625,0.140625,0.953125
1629370480406,-0.15625,0.140625,0.953125
1629370480437,-0.171875,0.140625,0.953125
1629370480468,-0.15625,0.140625,0.953125
1629370480500,-0.171875,0.140625,0.953125
1629370480531,-0.15625,0.15625,0.953125
1629370480562,-0.171875,0.140625,0.953125
1629370480593,-0.15625,0.140625,0.953125
1629370480625,-0.15625,0.15625,0.953125
1629370480656,-0.15625,0.140625,0.953125
1629370480687,-0.15625,0.140625,0.953125
1629370480718,-0.15625,0.15625,0.953125
1629370480750,-0.15625,0.140625,0.953125
1629370480781,-0.15625,0.140625,0.953125
1629370480812,-0.15625,0.140625,0.953125
1629370480843,-0.15625,0.140625,0.953125
1629370480875,-0.15625,0.140625,0.953125
1629370480906,-0.15625,0.140625,0.953125
1629370480937,-0.15625,0.140625,0.953125
1629370480968,-0.15625,0.140625,0.953125
1629370481000,-0.15625,0.140625,0.953125
1629370481031,-0.15625,0.15625,0.953125
1629370481062,-0.15625,0.140625,0.953125
1629370481093,-0.15625,0.140625,0.953125
1629370481125,-0.15625,0.15625,0.953125
1629370481156,-0.15625,0.15625,0.96875
1629370481187,-0.15625,0.140625,0.953125
1629370481218,-0.15625,0.15625,0.953125
1629370481250,-0.15625,0.15625,0.953125
1629370481281,-0.140625,0.15625,0.953125
1629370481312,-0.15625,0.15625,0.953125
1629370481343,-0.15625,0.140625,0.953125
1629370481375,-0.15625,0.15625,0.953125
1629370481406,-0.15625,0.15625,0.953125
1629370481437,-0.15625,0.140625,0.953125
1629370481468,-0.15625,0.15625,0.953125
1629370481500,-0.15625,0.15625,0.953125
1629370481531,-0.15625,0.15625,0.953125
1629370481562,-0.15625,0.15625,0.953125
1629370481593,-0.15625,0.15625,0.953125
1629370481625,-0.15625,0.15625,0.953125
1629370481656,-0.15625,0.15625,0.953125
1629370481687,-0.140625,0.15625,0.953125
1629370481718,-0.15625,0.15625,0.953125
1629370481750,-0.15625,0.15625,0.953125
1629370481781,-0.15625,0.15625,0.953125
1629370481812,-0.15625,0.15625,0.953125
1629370481843,-0.15625,0.15625,0.953125
1629370481875,-0.140625,0.15625,0.953125
1629370481906,-0.15625,0.15625,0.953125
1629370481937,-0.15625,0.15625,0.953125
1629370481968,-0.15625,0.15625,0.953125
1629370482000,-0.15625,0.15625,0.953125
1629370482031,-0.15625,0.15625,0.953125
1629370482062,-0.15625,0.15625,0.96875
1629370482093,-0.15625,0.15625,0.953125
1629370482125,-0.15625,0.15625,0.953125
1629370482156,-0.15625,0.15625,0.953125
1629370482187,-0.15625,0.15625,0.953125
1629370482218,-0.15625,0.15625,0.953125
1629370482250,-0.15625,0.15625,0.953125
1629370482281,-0.15625,0.15625,0.953125
1629370482312,-0.15625,0.15625,0.953125
1629370482343,-0.15625,0.15625,0.953125
1629370482375,-0.15625,0.15625,0.953125
1629370482406,-0.15625,0.15625,0.953125
1629370482437,-0.15625,0.15625,0.953125
1629370482468,-0.15625,0.15625,0.953125
1629370482500,-0.15625,0.15625,0.953125
1629370482531,-0.15625,0.15625,0.953125
1629370482562,-0.15625,0.15625,0.953125
1629370482593,-0.15625,0.15625,0.953125
1629370482625,-0.15625,0.140625,0.953125
1629370482656,-0.15625,0.15625,0.953125
1629370482687,-0.15625,0.140625,0.953125
1629370482718,-0.15625,0.140625,0.953125
1629370482750,-0.15625,0.15625,0.953125
1629370482781,-0.15625,0.15625,0.953125
1629370482812,-0.15625,0.15625,0.953125
1629370482843,-0.15625,0.15625,0.953125
1629370482875,-0.15625,0.15625,0.953125
1629370482906,-0.15625,0.15625,0.953125
1629370482937,-0.15625,0.15625,0.953125
1629370482968,-0.15625,0.15625,0.953125
1629370483000,-0.15625,0.15625,0.953125
1629370483031,-0.15625,0.15625,0.953125
1629370483062,-0.15625,0.140625,0.953125
1629370483093,-0.15625,0.140625,0.953125
1629370483125,-0.15625,0.140625,0.953125
1629370483156,-0.15625,0.15625,0.953125
1629370483187,-0.15625,0.15625,0.953125
1629370483218,-0.15625,0.140625,0.953125
1629370483250,-0.15625,0.140625,0.953125
1629370483281,-0.15625,0.15625,0.953125
1629370483312,-0.15625,0.140625,0.953125
1629370483343,-0.15625,0.140625,0.953125
1629370483375,-0.15625,0.140625,0.953125
1629370483406,-0.15625,0.140625,0.953125
1629370483437,-0.15625,0.140625,0.953125
1629370483468,-0.15625,0.140625,0.953125
1629370483500,-0.15625,0.140625,0.953125
1629370483531,-0.171875,0.140625,0.953125
1629370483562,-0.15625,0.140625,0.953125
1629370483593,-0.15625,0.140625,0.953125
1629370483625,-0.15625,0.140625,0.953125
1629370483656,-0.15625,0.140625,0.953125
1629370483687,-0.171875,0.140625,0.953125
1629370483718,-0.15625,0.15625,0.953125
1629370483750,-0.15625,0.140625,0.953125
1629370483781,-0.15625,0.140625,0.953125
1629370483812,-0.15625,0.15625,0.953125
1629370483843,-0.15625,0.15625,0.953125
1629370483875,-0.171875,0.140625,0.953125
1629370483906,-0.15625,0.140625,0.953125
1629370483937,-0.15625,0.140625,0.953125
1629370483968,-0.15625,0.140625,0.953125
1629370484000,-0.171875,0.140625,0.953125
1629370484031,-0.15625,0.140625,0.953125
1629370484062,-0.15625,0.140625,0.953125
1629370484093,-0.15625,0.140625,0.953125
1629370484125,-0.15625,0.140625,0.953125
1629370484156,-0.15625,0.140625,0.953125
1629370484187,-0.15625,0.140625,0.953125
1629370484218,-0.15625,0.140625,0.953125
1629370484250,-0.15625,0.140625,0.953125
1629370484281,-0.15625,0.15625,0.953125
1629370484312,-0.15625,0.15625,0.953125
1629370484343,-0.15625,0.140625,0.953125
1629370484375,-0.15625,0.15625,0.953125
1629370484406,-0.15625,0.15625,0.953125
1629370484437,-0.15625,0.140625,0.953125
1629370484468,-0.15625,0.140625,0.953125
1629370484500,-0.15625,0.15625,0.953125
1629370484531,-0.15625,0.140625,0.953125
1629370484562,-0.15625,0.140625,0.953125
1629370484593,-0.15625,0.15625,0.96875
1629370484625,-0.15625,0.15625,0.953125
1629370484656,-0.15625,0.140625,0.953125
1629370484687,-0.15625,0.15625,0.953125
1629370484718,-0.15625,0.15625,0.953125
1629370484750,-0.15625,0.140625,0.953125
1629370484781,-0.15625,0.15625,0.953125
1629370484812,-0.15625,0.15625,0.953125
1629370484843,-0.15625,0.15625,0.953125
1629370484875,-0.15625,0.15625,0.953125
1629370484906,-0.15625,0.15625,0.953125
1629370484937,-0.15625,0.140625,0.953125
1629370484968,-0.15625,0.15625,0.953125
1629370485000,-0.140625,0.15625,0.953125
1629370485031,-0.15625,0.15625,0.953125
1629370485062,-0.15625,0.15625,0.953125
1629370485093,-0.140625,0.15625,0.953125
1629370485125,-0.15625,0.15625,0.953125
1629370485156,-0.15625,0.15625,0.953125
1629370485187,-0.15625,0.15625,0.953125
1629370485218,-0.15625,0.15625,0.953125
1629370485250,-0.15625,0.15625,0.953125
1629370485281,-0.15625,0.15625,0.953125
1629370485312,-0.140625,0.15625,0.953125
1629370485343,-0.15625,0.15625,0.953125
1629370485375,-0.15625,0.15625,0.953125
1629370485406,-0.140625,0.15625,0.953125
1629370485437,-0.15625,0.15625,0.953125
1629370485468,-0.140625,0.15625,0.953125
1629370485500,-0.140625,0.15625,0.953125
1629370485531,-0.140625,0.15625,0.953125
1629370485562,-0.140625,0.15625,0.953125
1629370485593,-0.15625,0.15625,0.953125
1629370485625,-0.15625,0.15625,0.953125
1629370485656,-0.15625,0.15625,0.953125
1629370485687,-0.15625,0.15625,0.953125
1629370485718,-0.15625,0.15625,0.953125
1629370485750,-0.140625,0.15625,0.953125
1629370485781,-0.15625,0.15625,0.953125
1629370485812,-0.15625,0.15625,0.953125
1629370485843,-0.140625,0.15625,0.953125
1629370485875,-0.140625,0.15625,0.953125
1629370485906,-0.15625,0.15625,0.953125
1629370485937,-0.15625,0.15625,0.953125
1629370485968,-0.15625,0.15625,0.953125
1629370486000,-0.15625,0.15625,0.953125
1629370486031,-0.15625,0.15625,0.953125
1629370486062,-0.15625,0.15625,0.953125
1629370486093,-0.15625,0.15625,0.953125
1629370486125,-0.140625,0.15625,0.953125
1629370486156,-0.15625,0.15625,0.953125
1629370486187,-0.15625,0.15625,0.953125
1629370486218,-0.15625,0.15625,0.953125
1629370486250,-0.15625,0.15625,0.953125
1629370486281,-0.15625,0.15625,0.953125
1629370486312,-0.15625,0.140625,0.953125
1629370486343,-0.15625,0.15625,0.953125
1629370486375,-0.15625,0.15625,0.953125
1629370486406,-0.15625,0.15625,0.953125
1629370486437,-0.15625,0.140625,0.953125
1629370486468,-0.15625,0.15625,0.953125
1629370486500,-0.15625,0.15625,0.953125
1629370486531,-0.15625,0.140625,0.953125
1629370486562,-0.15625,0.15625,0.953125
1629370486593,-0.15625,0.15625,0.953125
1629370486625,-0.15625,0.15625,0.953125
1629370486656,-0.15625,0.15625,0.953125
1629370486687,-0.15625,0.15625,0.953125
1629370486718,-0.15625,0.15625,0.953125
1629370486750,-0.15625,0.15625,0.953125
1629370486781,-0.15625,0.15625,0.953125
1629370486812,-0.15625,0.140625,0.953125
1629370486843,-0.15625,0.15625,0.953125
1629370486875,-0.15625,0.15625,0.953125
1629370486906,-0.15625,0.15625,0.953125
1629370486937,-0.15625,0.15625,0.953125
1629370486968,-0.15625,0.140625,0.953125
1629370487000,-0.15625,0.15625,0.953125
1629370487031,-0.15625,0.15625,0.953125
1629370487062,-0.15625,0.15625,0.953125
1629370487093,-0.15625,0.140625,0.953125
1629370487125,-0.15625,0.15625,0.953125
1629370487156,-0.15625,0.15625,0.953125
1629370487187,-0.15625,0.15625,0.953125
1629370487218,-0.15625,0.140625,0.953125
1629370487250,-0.15625,0.15625,0.953125
1629370487281,-0.15625,0.140625,0.953125
1629370487312,-0.15625,0.140625,0.953125
1629370487343,-0.15625,0.140625,0.953125
1629370487375,-0.15625,0.140625,0.953125
1629370487406,-0.15625,0.140625,0.953125
1629370487437,-0.15625,0.15625,0.953125
1629370487468,-0.15625,0.140625,0.953125
1629370487500,-0.15625,0.140625,0.953125
1629370487531,-0.15625,0.140625,0.953125
1629370487562,-0.15625,0.140625,0.953125
1629370487593,-0.15625,0.140625,0.953125
1629370487625,-0.15625,0.140625,0.953125
1629370487656,-0.15625,0.140625,0.953125
1629370487687,-0.15625,0.140625,0.953125
1629370487718,-0.15625,0.140625,0.953125
1629370487750,-0.15625,0.140625,0.953125
1629370487781,-0.15625,0.140625,0.953125
1629370487812,-0.15625,0.140625,0.953125
1629370487843,-0.15625,0.15625,0.96875
1629370487875,-0.15625,0.140625,0.953125
1629370487906,-0.15625,0.140625,0.953125
1629370487937,-0.15625,0.140625,0.953125
1629370487968,-0.15625,0.140625,0.953125
1629370488000,-0.15625,0.140625,0.953125
1629370488031,-0.15625,0.140625,0.953125
1629370488062,-0.15625,0.15625,0.953125
1629370488093,-0.15625,0.140625,0.953125
1629370488125,-0.15625,0.15625,0.953125
1629370488156,-0.15625,0.140625,0.953125
1629370488187,-0.15625,0.140625,0.953125
1629370488218,-0.15625,0.140625,0.953125
1629370488250,-0.15625,0.140625,0.953125
1629370488281,-0.15625,0.140625,0.953125
1629370488312,-0.15625,0.140625,0.953125
1629370488343,-0.15625,0.140625,0.953125
1629370488375,-0.15625,0.15625,0.953125
1629370488406,-0.15625,0.15625,0.953125
1629370488437,-0.15625,0.140625,0.953125
1629370488468,-0.15625,0.15625,0.953125
1629370488500,-0.15625,0.140625,0.953125
1629370488531,-0.15625,0.140625,0.953125
1629370488562,-0.15625,0.140625,0.953125
1629370488593,-0.15625,0.140625,0.953125
1629370488625,-0.15625,0.15625,0.953125
1629370488656,-0.15625,0.15625,0.953125
1629370488687,-0.15625,0.15625,0.953125
1629370488718,-0.15625,0.15625,0.953125
1629370488750,-0.15625,0.15625,0.953125
1629370488781,-0.15625,0.140625,0.953125
1629370488812,-0.140625,0.15625,0.953125
1629370488843,-0.140625,0.15625,0.953125
1629370488875,-0.15625,0.15625,0.953125
1629370488906,-0.15625,0.15625,0.953125
1629370488937,-0.140625,0.15625,0.953125
1629370488968,-0.15625,0.15625,0.953125
1629370489000,-0.140625,0.15625,0.953125
1629370489031,-0.140625,0.15625,0.953125
1629370489062,-0.140625,0.15625,0.953125
1629370489093,-0.140625,0.15625,0.953125
1629370489125,-0.140625,0.15625,0.953125
1629370489156,-0.15625,0.15625,0.953125
1629370489187,-0.140625,0.15625,0.953125
1629370489218,-0.15625,0.15625,0.953125
1629370489250,-0.15625,0.15625,0.953125
1629370489281,-0.140625,0.15625,0.953125
1629370489312,-0.15625,0.15625,0.953125
1629370489343,-0.140625,0.15625,0.953125
1629370489375,-0.140625,0.15625,0.953125
1629370489406,-0.140625,0.15625,0.953125
1629370489437,-0.140625,0.15625,0.953125
1629370489468,-0.140625,0.15625,0.953125
1629370489500,-0.140625,0.15625,0.953125
1629370489531,-0.140625,0.15625,0.953125
1629370489562,-0.140625,0.15625,0.96875
1629370489593,-0.15625,0.15625,0.953125
1629370489625,-0.140625,0.15625,0.953125
1629370489656,-0.140625,0.15625,0.953125
1629370489687,-0.140625,0.15625,0.953125
1629370489718,-0.140625,0.15625,0.953125
1629370489750,-0.140625,0.15625,0.953125
1629370489781,-0.15625,0.15625,0.953125
1629370489812,-0.140625,0.15625,0.953125
1629370489843,-0.140625,0.15625,0.953125
1629370489875,-0.15625,0.15625,0.953125
1629370489906,-0.15625,0.15625,0.953125
1629370489937,-0.15625,0.15625,0.953125
1629370489968,-0.15625,0.15625,0.953125
1629370490000,-0.15625,0.15625,0.953125
1629370490031,-0.15625,0.15625,0.953125
1629370490062,-0.15625,0.15625,0.953125
1629370490093,-0.15625,0.15625,0.953125
1629370490125,-0.15625,0.15625,0.953125
1629370490156,-0.15625,0.15625,0.953125
1629370490187,-0.15625,0.15625,0.953125
1629370490218,-0.15625,0.15625,0.953125
1629370490250,-0.15625,0.15625,0.953125
1629370490281,-0.15625,0.15625,0.953125
1629370490312,-0.15625,0.15625,0.953125
1629370490343,-0.15625,0.15625,0.953125
1629370490375,-0.15625,0.15625,0.953125
1629370490406,-0.15625,0.140625,0.953125
1629370490437,-0.15625,0.15625,0.953125
1629370490468,-0.15625,0.15625,0.953125
1629370490500,-0.15625,0.15625,0.953125
1629370490531,-0.15625,0.15625,0.953125
1629370490562,-0.15625,0.15625,0.953125
1629370490593,-0.15625,0.140625,0.953125
1629370490625,-0.15625,0.15625,0.953125
1629370490656,-0.15625,0.15625,0.953125
1629370490687,-0.15625,0.140625,0.953125
1629370490718,-0.15625,0.140625,0.953125
1629370490750,-0.15625,0.140625,0.953125
1629370490781,-0.15625,0.140625,0.953125
1629370490812,-0.15625,0.140625,0.953125
1629370490843,-0.15625,0.140625,0.953125
1629370490875,-0.15625,0.140625,0.953125
1629370490906,-0.15625,0.140625,0.953125
1629370490937,-0.15625,0.140625,0.953125
1629370490968,-0.15625,0.140625,0.953125
1629370491000,-0.15625,0.140625,0.953125
1629370491031,-0.15625,0.15625,0.953125
1629370491062,-0.15625,0.140625,0.953125
1629370491093,-0.15625,0.140625,0.953125
1629370491125,-0.171875,0.140625,0.953125
1629370491156,-0.15625,0.140625,0.953125
1629370491187,-0.171875,0.140625,0.953125
1629370491218,-0.171875,0.140625,0.953125
1629370491250,-0.15625,0.140625,0.953125
1629370491281,-0.15625,0.15625,0.953125
1629370491312,-0.171875,0.140625,0.953125
1629370491343,-0.171875,0.140625,0.953125
1629370491375,-0.15625,0.140625,0.953125
1629370491406,-0.171875,0.140625,0.953125
1629370491437,-0.15625,0.140625,0.953125
1629370491468,-0.15625,0.15625,0.953125
1629370491500,-0.171875,0.15625,0.953125
1629370491531,-0.15625,0.15625,0.953125
1629370491562,-0.15625,0.15625,0.953125
1629370491593,-0.171875,0.15625,0.953125
1629370491625,-0.15625,0.15625,0.953125
1629370491656,-0.15625,0.15625,0.953125
1629370491687,-0.15625,0.15625,0.953125
1629370491718,-0.15625,0.15625,0.953125
1629370491750,-0.15625,0.15625,0.953125
1629370491781,-0.15625,0.15625,0.953125
1629370491812,-0.15625,0.15625,0.953125
1629370491843,-0.15625,0.15625,0.953125
1629370491875,-0.15625,0.15625,0.953125
1629370491906,-0.15625,0.15625,0.953125
1629370491937,-0.15625,0.15625,0.953125
1629370491968,-0.15625,0.171875,0.953125
1629370492000,-0.15625,0.15625,0.953125
1629370492031,-0.15625,0.171875,0.953125
1629370492062,-0.15625,0.171875,0.953125
1629370492093,-0.171875,0.171875,0.953125
1629370492125,-0.15625,0.171875,0.953125
1629370492156,-0.15625,0.171875,0.953125
1629370492187,-0.15625,0.171875,0.9375
1629370492218,-0.15625,0.171875,0.953125
1629370492250,-0.171875,0.171875,0.953125
1629370492281,-0.171875,0.171875,0.953125
1629370492312,-0.171875,0.171875,0.953125
1629370492343,-0.15625,0.171875,0.953125
1629370492375,-0.15625,0.171875,0.953125
1629370492406,-0.15625,0.1875,0.953125
1629370492437,-0.15625,0.171875,0.953125
1629370492468,-0.15625,0.171875,0.953125
1629370492500,-0.15625,0.1875,0.953125
1629370492531,-0.171875,0.171875,0.953125
1629370492562,-0.171875,0.171875,0.9375
1629370492593,-0.15625,0.1875,0.953125
1629370492625,-0.171875,0.171875,0.953125
1629370492656,-0.171875,0.1875,0.953125
1629370492687,-0.171875,0.1875,0.953125
1629370492718,-0.171875,0.1875,0.953125
1629370492750,-0.171875,0.1875,0.953125
1629370492781,-0.171875,0.1875,0.9375
1629370492812,-0.171875,0.1875,0.9375
1629370492843,-0.171875,0.1875,0.953125
1629370492875,-0.171875,0.1875,0.953125
1629370492906,-0.171875,0.1875,0.953125
1629370492937,-0.171875,0.1875,0.953125
1629370492968,-0.171875,0.1875,0.953125
1629370493000,-0.171875,0.1875,0.953125
1629370493031,-0.171875,0.1875,0.953125
1629370493062,-0.171875,0.1875,0.953125
1629370493093,-0.171875,0.1875,0.9375
1629370493125,-0.171875,0.1875,0.953125
1629370493156,-0.171875,0.1875,0.953125
1629370493187,-0.171875,0.1875,0.953125
1629370493218,-0.171875,0.1875,0.953125
1629370493250,-0.171875,0.1875,0.9375
1629370493281,-0.171875,0.1875,0.9375
1629370493312,-0.171875,0.1875,0.953125
1629370493343,-0.171875,0.1875,0.953125
1629370493375,-0.171875,0.171875,0.953125
1629370493406,-0.171875,0.171875,0.953125
1629370493437,-0.171875,0.171875,0.953125
1629370493468,-0.171875,0.1875,0.953125
1629370493500,-0.171875,0.171875,0.953125
1629370493531,-0.171875,0.171875,0.953125
1629370493562,-0.171875,0.171875,0.953125
1629370493593,-0.171875,0.171875,0.953125
1629370493625,-0.171875,0.171875,0.953125
1629370493656,-0.15625,0.171875,0.953125
1629370493687,-0.171875,0.15625,0.953125
1629370493718,-0.15625,0.15625,0.953125
1629370493750,-0.171875,0.15625,0.953125
1629370493781,-0.171875,0.15625,0.953125
1629370493812,-0.15625,0.15625,0.953125
1629370493843,-0.15625,0.140625,0.953125
1629370493875,-0.15625,0.140625,0.953125
1629370493906,-0.15625,0.140625,0.953125
1629370493937,-0.15625,0.140625,0.953125
1629370493968,-0.15625,0.140625,0.953125
1629370494000,-0.15625,0.140625,0.953125
1629370494031,-0.15625,0.125,0.953125
1629370494062,-0.15625,0.125,0.953125
1629370494093,-0.15625,0.125,0.953125
1629370494125,-0.15625,0.125,0.953125
1629370494156,-0.15625,0.125,0.953125
1629370494187,-0.15625,0.125,0.953125
1629370494218,-0.15625,0.125,0.953125
1629370494250,-0.15625,0.125,0.953125
1629370494281,-0.15625,0.125,0.953125
1629370494312,-0.15625,0.125,0.953125
1629370494343,-0.15625,0.125,0.953125
1629370494375,-0.15625,0.125,0.953125
1629370494406,-0.15625,0.125,0.96875
1629370494437,-0.15625,0.125,0.953125
1629370494468,-0.15625,0.125,0.953125
1629370494500,-0.15625,0.125,0.953125
1629370494531,-0.15625,0.125,0.953125
1629370494562,-0.15625,0.125,0.953125
1629370494593,-0.15625,0.125,0.96875
1629370494625,-0.15625,0.125,0.953125
1629370494656,-0.15625,0.140625,0.96875
1629370494687,-0.15625,0.125,0.953125
1629370494718,-0.15625,0.140625,0.953125
1629370494750,-0.15625,0.140625,0.953125
1629370494781,-0.15625,0.140625,0.953125
1629370494812,-0.15625,0.140625,0.953125
1629370494843,-0.15625,0.140625,0.953125
1629370494875,-0.15625,0.140625,0.953125
1629370494906,-0.15625,0.140625,0.953125
1629370494937,-0.171875,0.140625,0.953125
1629370494968,-0.171875,0.140625,0.953125
1629370495000,-0.171875,0.140625,0.953125
1629370495031,-0.15625,0.140625,0.953125
1629370495062,-0.171875,0.140625,0.953125
1629370495093,-0.171875,0.125,0.953125
1629370495125,-0.15625,0.140625,0.953125
1629370495156,-0.15625,0.140625,0.953125
1629370495187,-0.15625,0.140625,0.953125
1629370495218,-0.171875,0.140625,0.953125
1629370495250,-0.171875,0.140625,0.953125
1629370495281,-0.15625,0.140625,0.953125
1629370495312,-0.15625,0.140625,0.953125
1629370495343,-0.15625,0.140625,0.953125
1629370495375,-0.15625,0.140625,0.953125
1629370495406,-0.15625,0.140625,0.953125
1629370495437,-0.15625,0.140625,0.953125
1629370495468,-0.15625,0.140625,0.953125
1629370495500,-0.15625,0.140625,0.953125
1629370495531,-0.15625,0.140625,0.953125
1629370495562,-0.15625,0.140625,0.953125
1629370495593,-0.15625,0.140625,0.953125
1629370495625,-0.15625,0.140625,0.953125
1629370495656,-0.15625,0.140625,0.953125
1629370495687,-0.15625,0.140625,0.953125
1629370495718,-0.15625,0.140625,0.953125
1629370495750,-0.15625,0.140625,0.96875
1629370495781,-0.15625,0.15625,0.953125
1629370495812,-0.15625,0.140625,0.953125
1629370495843,-0.15625,0.140625,0.953125
1629370495875,-0.15625,0.15625,0.953125
1629370495906,-0.15625,0.15625,0.953125
1629370495937,-0.15625,0.140625,0.953125
1629370495968,-0.15625,0.140625,0.953125
1629370496000,-0.15625,0.140625,0.953125
1629370496031,-0.15625,0.140625,0.953125
1629370496062,-0.15625,0.140625,0.953125
1629370496093,-0.15625,0.140625,0.953125
1629370496125,-0.15625,0.140625,0.953125
1629370496156,-0.140625,0.140625,0.953125
1629370496187,-0.15625,0.140625,0.953125
1629370496218,-0.15625,0.15625,0.953125
1629370496250,-0.15625,0.140625,0.953125
1629370496281,-0.15625,0.15625,0.953125
1629370496312,-0.15625,0.15625,0.953125
1629370496343,-0.15625,0.15625,0.953125
1629370496375,-0.15625,0.15625,0.953125
1629370496406,-0.15625,0.15625,0.953125
1629370496437,-0.15625,0.15625,0.953125
1629370496468,-0.15625,0.15625,0.953125
1629370496500,-0.15625,0.15625,0.953125
1629370496531,-0.15625,0.15625,0.953125
1629370496562,-0.140625,0.15625,0.953125
1629370496593,-0.140625,0.15625,0.953125
1629370496625,-0.15625,0.15625,0.953125
1629370496656,-0.15625,0.15625,0.96875
1629370496687,-0.15625,0.15625,0.96875
1629370496718,-0.15625,0.15625,0.953125
1629370496750,-0.140625,0.15625,0.953125
1629370496781,-0.15625,0.15625,0.953125
1629370496812,-0.15625,0.15625,0.953125
1629370496843,-0.15625,0.15625,0.953125
1629370496875,-0.15625,0.15625,0.953125
1629370496906,-0.15625,0.15625,0.953125
1629370496937,-0.15625,0.15625,0.953125
1629370496968,-0.15625,0.15625,0.953125
1629370497000,-0.15625,0.15625,0.953125
1629370497031,-0.15625,0.15625,0.953125
1629370497062,-0.15625,0.15625,0.953125
1629370497093,-0.15625,0.15625,0.953125
1629370497125,-0.15625,0.15625,0.953125
1629370497156,-0.15625,0.140625,0.953125
1629370497187,-0.15625,0.140625,0.953125
1629370497218,-0.15625,0.140625,0.953125
1629370497250,-0.15625,0.15625,0.953125
1629370497281,-0.15625,0.140625,0.953125
1629370497312,-0.15625,0.140625,0.953125
1629370497343,-0.15625,0.140625,0.953125
1629370497375,-0.15625,0.15625,0.953125
1629370497406,-0.15625,0.140625,0.953125
1629370497437,-0.15625,0.140625,0.953125
1629370497468,-0.15625,0.15625,0.953125
1629370497500,-0.15625,0.15625,0.953125
1629370497531,-0.15625,0.15625,0.953125
1629370497562,-0.15625,0.15625,0.953125
1629370497593,-0.15625,0.140625,0.953125
1629370497625,-0.15625,0.15625,0.953125
1629370497656,-0.15625,0.140625,0.953125
1629370497687,-0.15625,0.140625,0.953125
1629370497718,-0.15625,0.15625,0.953125
1629370497750,-0.15625,0.15625,0.953125
1629370497781,-0.15625,0.140625,0.953125
1629370497812,-0.15625,0.140625,0.953125
1629370497843,-0.15625,0.15625,0.953125
1629370497875,-0.15625,0.15625,0.953125
1629370497906,-0.15625,0.140625,0.953125
1629370497937,-0.15625,0.15625,0.953125
1629370497968,-0.15625,0.15625,0.953125
1629370498000,-0.15625,0.140625,0.953125
1629370498031,-0.15625,0.140625,0.953125
1629370498062,-0.171875,0.15625,0.953125
1629370498093,-0.171875,0.140625,0.953125
1629370498125,-0.171875,0.140625,0.953125
1629370498156,-0.171875,0.140625,0.953125
1629370498187,-0.15625,0.140625,0.953125
1629370498218,-0.15625,0.140625,0.953125
1629370498250,-0.15625,0.140625,0.953125
1629370498281,-0.15625,0.140625,0.953125
1629370498312,-0.171875,0.140625,0.953125
1629370498343,-0.171875,0.140625,0.953125
1629370498375,-0.171875,0.140625,0.953125
1629370498406,-0.15625,0.140625,0.953125
1629370498437,-0.15625,0.140625,0.953125
1629370498468,-0.171875,0.140625,0.953125
1629370498500,-0.171875,0.140625,0.953125
1629370498531,-0.171875,0.140625,0.953125
1629370498562,-0.15625,0.140625,0.953125
1629370498593,-0.171875,0.140625,0.953125
1629370498625,-0.171875,0.140625,0.953125
1629370498656,-0.171875,0.140625,0.953125
1629370498687,-0.171875,0.140625,0.953125
1629370498718,-0.15625,0.140625,0.953125
1629370498750,-0.171875,0.140625,0.953125
1629370498781,-0.171875,0.140625,0.953125
1629370498812,-0.171875,0.140625,0.953125
1629370498843,-0.171875,0.140625,0.953125
1629370498875,-0.171875,0.140625,0.953125
1629370498906,-0.171875,0.140625,0.953125
1629370498937,-0.15625,0.140625,0.953125
1629370498968,-0.15625,0.140625,0.953125
1629370499000,-0.15625,0.140625,0.953125
1629370499031,-0.15625,0.140625,0.953125
1629370499062,-0.15625,0.140625,0.953125
1629370499093,-0.15625,0.140625,0.953125
1629370499125,-0.15625,0.140625,0.953125
1629370499156,-0.15625,0.140625,0.953125
1629370499187,-0.171875,0.15625,0.953125
1629370499218,-0.15625,0.140625,0.953125
1629370499250,-0.15625,0.140625,0.953125
1629370499281,-0.15625,0.15625,0.953125
1629370499312,-0.15625,0.140625,0.953125
1629370499343,-0.15625,0.140625,0.953125
1629370499375,-0.15625,0.140625,0.953125
1629370499406,-0.15625,0.140625,0.953125
1629370499437,-0.15625,0.15625,0.953125
1629370499468,-0.15625,0.15625,0.953125
1629370499500,-0.15625,0.140625,0.953125
1629370499531,-0.15625,0.15625,0.953125
1629370499562,-0.15625,0.15625,0.953125
1629370499593,-0.15625,0.140625,0.953125
1629370499625,-0.15625,0.140625,0.953125
1629370499656,-0.15625,0.15625,0.953125
1629370499687,-0.15625,0.15625,0.953125
1629370499718,-0.15625,0.140625,0.953125
1629370499750,-0.15625,0.140625,0.953125
1629370499781,-0.15625,0.15625,0.953125
1629370499812,-0.15625,0.15625,0.953125
1629370499843,-0.15625,0.15625,0.953125
1629370499875,-0.15625,0.15625,0.953125
1629370499906,-0.140625,0.15625,0.953125
1629370499937,-0.15625,0.15625,0.96875
1629370499968,-0.15625,0.15625,0.953125
1629370500000,-0.140625,0.15625,0.953125
1629370500031,-0.15625,0.15625,0.953125
1629370500062,-0.15625,0.15625,0.953125
1629370500093,-0.15625,0.15625,0.953125
1629370500125,-0.15625,0.15625,0.953125
1629370500156,-0.140625,0.15625,0.953125
1629370500187,-0.15625,0.15625,0.953125
1629370500218,-0.15625,0.15625,0.953125
1629370500250,-0.15625,0.15625,0.953125
1629370500281,-0.15625,0.15625,0.953125
1629370500312,-0.140625,0.15625,0.953125
1629370500343,-0.15625,0.15625,0.953125
1629370500375,-0.15625,0.15625,0.953125
1629370500406,-0.140625,0.15625,0.953125
1629370500437,-0.15625,0.15625,0.96875
1629370500468,-0.15625,0.15625,0.953125
1629370500500,-0.15625,0.15625,0.953125
1629370500531,-0.15625,0.15625,0.953125
1629370500562,-0.15625,0.15625,0.953125
1629370500593,-0.15625,0.15625,0.953125
1629370500625,-0.15625,0.15625,0.953125
1629370500656,-0.15625,0.15625,0.953125
1629370500687,-0.15625,0.15625,0.953125
1629370500718,-0.15625,0.15625,0.953125
1629370500750,-0.15625,0.15625,0.953125
1629370500781,-0.15625,0.15625,0.953125
1629370500812,-0.15625,0.15625,0.953125
1629370500843,-0.15625,0.15625,0.953125
1629370500875,-0.15625,0.15625,0.953125
1629370500906,-0.15625,0.15625,0.953125
1629370500937,-0.15625,0.15625,0.953125
1629370500968,-0.15625,0.15625,0.953125
1629370501000,-0.15625,0.15625,0.953125
1629370501031,-0.15625,0.15625,0.953125
1629370501062,-0.15625,0.15625,0.953125
1629370501093,-0.15625,0.15625,0.953125
1629370501125,-0.15625,0.15625,0.953125
1629370501156,-0.15625,0.15625,0.953125
1629370501187,-0.15625,0.15625,0.953125
1629370501218,-0.15625,0.140625,0.953125
1629370501250,-0.15625,0.15625,0.953125
1629370501281,-0.15625,0.15625,0.953125
1629370501312,-0.15625,0.15625,0.953125
1629370501343,-0.15625,0.15625,0.953125
1629370501375,-0.15625,0.15625,0.953125
1629370501406,-0.15625,0.15625,0.953125
1629370501437,-0.15625,0.15625,0.953125
1629370501468,-0.15625,0.15625,0.953125
1629370501500,-0.15625,0.15625,0.953125
1629370501531,-0.15625,0.15625,0.953125
1629370501562,-0.15625,0.15625,0.953125
1629370501593,-0.15625,0.140625,0.953125
1629370501625,-0.15625,0.140625,0.953125
1629370501656,-0.15625,0.15625,0.953125
1629370501687,-0.15625,0.140625,0.953125
1629370501718,-0.15625,0.140625,0.953125
1629370501750,-0.15625,0.140625,0.953125
1629370501781,-0.15625,0.140625,0.953125
1629370501812,-0.15625,0.140625,0.953125
1629370501843,-0.15625,0.140625,0.953125
1629370501875,-0.15625,0.140625,0.953125
1629370501906,-0.15625,0.140625,0.953125
1629370501937,-0.15625,0.140625,0.953125
1629370501968,-0.15625,0.140625,0.953125
1629370502000,-0.15625,0.140625,0.953125
1629370502031,-0.15625,0.140625,0.96875
1629370502062,-0.15625,0.140625,0.953125
1629370502093,-0.15625,0.140625,0.953125
1629370502125,-0.15625,0.140625,0.953125
1629370502156,-0.15625,0.15625,0.953125
1629370502187,-0.15625,0.140625,0.953125
1629370502218,-0.15625,0.140625,0.953125
1629370502250,-0.15625,0.140625,0.953125
1629370502281,-0.15625,0.140625,0.953125
1629370502312,-0.171875,0.140625,0.953125
1629370502343,-0.15625,0.140625,0.953125
1629370502375,-0.15625,0.140625,0.953125
1629370502406,-0.15625,0.140625,0.96875
1629370502437,-0.15625,0.140625,0.953125
1629370502468,-0.15625,0.140625,0.953125
1629370502500,-0.15625,0.140625,0.953125
1629370502531,-0.15625,0.140625,0.96875
1629370502562,-0.171875,0.140625,0.953125
1629370502593,-0.15625,0.140625,0.953125
1629370502625,-0.15625,0.140625,0.953125
1629370502656,-0.15625,0.15625,0.953125
1629370502687,-0.15625,0.140625,0.953125
1629370502718,-0.171875,0.140625,0.953125
1629370502750,-0.15625,0.140625,0.96875
1629370502781,-0.15625,0.140625,0.953125
1629370502812,-0.15625,0.140625,0.953125
1629370502843,-0.15625,0.140625,0.96875
1629370502875,-0.15625,0.140625,0.953125
1629370502906,-0.15625,0.125,0.96875
1629370502937,-0.15625,0.125,0.96875
1629370502968,-0.15625,0.109375,0.953125
1629370503000,-0.15625,0.109375,0.953125
1629370503031,-0.15625,0.109375,0.953125
1629370503062,-0.15625,0.125,0.953125
1629370503093,-0.15625,0.125,0.953125
1629370503125,-0.15625,0.109375,0.96875
1629370503156,-0.15625,0.125,0.96875
1629370503187,-0.15625,0.125,0.96875
1629370503218,-0.15625,0.125,0.953125
1629370503250,-0.15625,0.125,0.96875
1629370503281,-0.140625,0.140625,0.953125
1629370503312,-0.140625,0.125,0.953125
1629370503343,-0.15625,0.125,0.953125
1629370503375,-0.140625,0.140625,0.953125
1629370503406,-0.15625,0.140625,0.96875
1629370503437,-0.15625,0.140625,0.96875
1629370503468,-0.15625,0.140625,0.953125
1629370503500,-0.15625,0.140625,0.953125
1629370503531,-0.15625,0.140625,0.953125
1629370503562,-0.15625,0.125,0.953125
1629370503593,-0.15625,0.125,0.953125
1629370503625,-0.15625,0.125,0.953125
1629370503656,-0.140625,0.125,0.96875
1629370503687,-0.15625,0.125,0.953125
1629370503718,-0.140625,0.125,0.96875
1629370503750,-0.15625,0.125,0.96875
1629370503781,-0.15625,0.125,0.96875
1629370503812,-0.15625,0.140625,0.953125
1629370503843,-0.15625,0.140625,0.953125
1629370503875,-0.15625,0.140625,0.96875
1629370503906,-0.15625,0.125,0.953125
1629370503937,-0.15625,0.125,0.953125
1629370503968,-0.15625,0.125,0.953125
1629370504000,-0.15625,0.125,0.953125
1629370504031,-0.15625,0.125,0.953125
1629370504062,-0.171875,0.125,0.96875
1629370504093,-0.15625,0.125,0.96875
1629370504125,-0.15625,0.125,0.96875
1629370504156,-0.15625,0.125,0.953125
1629370504187,-0.15625,0.125,0.96875
1629370504218,-0.15625,0.125,0.96875
1629370504250,-0.15625,0.125,0.953125
1629370504281,-0.171875,0.125,0.953125
1629370504312,-0.15625,0.125,0.96875
1629370504343,-0.15625,0.125,0.96875
1629370504375,-0.15625,0.109375,0.953125
1629370504406,-0.15625,0.109375,0.96875
1629370504437,-0.15625,0.109375,0.953125
1629370504468,-0.15625,0.125,0.953125
1629370504500,-0.15625,0.125,0.96875
1629370504531,-0.15625,0.125,0.96875
1629370504562,-0.15625,0.125,0.96875
1629370504593,-0.15625,0.125,0.953125
1629370504625,-0.15625,0.125,0.953125
1629370504656,-0.15625,0.125,0.953125
1629370504687,-0.15625,0.125,0.953125
1629370504718,-0.15625,0.125,0.96875
1629370504750,-0.15625,0.125,0.953125
1629370504781,-0.15625,0.125,0.953125
1629370504812,-0.15625,0.125,0.953125
1629370504843,-0.15625,0.125,0.953125
1629370504875,-0.15625,0.125,0.953125
1629370504906,-0.15625,0.125,0.953125
1629370504937,-0.15625,0.125,0.96875
1629370504968,-0.15625,0.125,0.953125
1629370505000,-0.15625,0.125,0.953125
1629370505031,-0.15625,0.125,0.953125
1629370505062,-0.15625,0.125,0.953125
1629370505093,-0.15625,0.125,0.953125
1629370505125,-0.15625,0.109375,0.953125
1629370505156,-0.15625,0.125,0.953125
1629370505187,-0.15625,0.125,0.96875
1629370505218,-0.15625,0.125,0.953125
1629370505250,-0.171875,0.125,0.953125
1629370505281,-0.15625,0.125,0.953125
1629370505312,-0.15625,0.125,0.953125
1629370505343,-0.15625,0.125,0.953125
1629370505375,-0.15625,0.125,0.953125
1629370505406,-0.15625,0.125,0.96875
1629370505437,-0.15625,0.125,0.953125
1629370505468,-0.15625,0.125,0.953125
1629370505500,-0.15625,0.125,0.96875
1629370505531,-0.15625,0.125,0.96875
1629370505562,-0.15625,0.125,0.953125
1629370505593,-0.15625,0.125,0.953125
1629370505625,-0.15625,0.125,0.96875
1629370505656,-0.15625,0.125,0.953125
1629370505687,-0.171875,0.125,0.953125
1629370505718,-0.15625,0.125,0.953125
1629370505750,-0.171875,0.109375,0.953125
1629370505781,-0.15625,0.125,0.96875
1629370505812,-0.15625,0.125,0.953125
1629370505843,-0.15625,0.125,0.953125
1629370505875,-0.15625,0.109375,0.953125
1629370505906,-0.171875,0.125,0.953125
1629370505937,-0.15625,0.125,0.96875
1629370505968,-0.15625,0.125,0.96875
1629370506000,-0.15625,0.125,0.953125
1629370506031,-0.15625,0.125,0.953125
1629370506062,-0.15625,0.125,0.953125
1629370506093,-0.15625,0.125,0.953125
1629370506125,-0.15625,0.125,0.953125
1629370506156,-0.171875,0.125,0.96875
1629370506187,-0.15625,0.125,0.953125
1629370506218,-0.15625,0.125,0.96875
1629370506250,-0.171875,0.125,0.96875
1629370506281,-0.15625,0.125,0.953125
1629370506312,-0.15625,0.125,0.953125
1629370506343,-0.15625,0.125,0.96875
1629370506375,-0.15625,0.125,0.953125
1629370506406,-0.171875,0.125,0.953125
1629370506437,-0.171875,0.125,0.953125
1629370506468,-0.15625,0.125,0.953125
1629370506500,-0.171875,0.125,0.953125
1629370506531,-0.171875,0.125,0.953125
1629370506562,-0.171875,0.125,0.953125
1629370506593,-0.171875,0.125,0.953125
1629370506625,-0.15625,0.125,0.953125
1629370506656,-0.171875,0.125,0.953125
1629370506687,-0.171875,0.125,0.953125
1629370506718,-0.171875,0.125,0.953125
1629370506750,-0.171875,0.125,0.953125
1629370506781,-0.171875,0.125,0.953125
1629370506812,-0.171875,0.125,0.953125
1629370506843,-0.15625,0.125,0.953125
1629370506875,-0.171875,0.125,0.953125
1629370506906,-0.171875,0.125,0.953125
1629370506937,-0.171875,0.125,0.96875
1629370506968,-0.171875,0.125,0.96875
1629370507000,-0.15625,0.125,0.953125
1629370507031,-0.171875,0.125,0.953125
1629370507062,-0.171875,0.125,0.953125
1629370507093,-0.171875,0.125,0.953125
1629370507125,-0.171875,0.125,0.953125
1629370507156,-0.15625,0.125,0.953125
1629370507187,-0.171875,0.125,0.953125
1629370507218,-0.15625,0.125,0.953125
1629370507250,-0.15625,0.125,0.96875
1629370507281,-0.171875,0.125,0.953125
1629370507312,-0.171875,0.125,0.953125
1629370507343,-0.15625,0.125,0.953125
1629370507375,-0.15625,0.125,0.953125
1629370507406,-0.15625,0.125,0.953125
1629370507437,-0.15625,0.125,0.953125
1629370507468,-0.15625,0.125,0.953125
1629370507500,-0.15625,0.125,0.953125
1629370507531,-0.15625,0.125,0.953125
1629370507562,-0.15625,0.125,0.96875
1629370507593,-0.171875,0.125,0.953125
1629370507625,-0.15625,0.125,0.953125
1629370507656,-0.15625,0.125,0.96875
1629370507687,-0.15625,0.125,0.953125
1629370507718,-0.15625,0.125,0.953125
1629370507750,-0.15625,0.125,0.953125
1629370507781,-0.15625,0.125,0.953125
1629370507812,-0.15625,0.125,0.953125
1629370507843,-0.15625,0.125,0.953125
1629370507875,-0.15625,0.125,0.953125
1629370507906,-0.15625,0.125,0.953125
1629370507937,-0.15625,0.125,0.96875
1629370507968,-0.15625,0.125,0.953125
1629370508000,-0.15625,0.125,0.953125
1629370508031,-0.15625,0.125,0.953125
1629370508062,-0.15625,0.125,0.96875
1629370508093,-0.15625,0.125,0.96875
1629370508125,-0.15625,0.125,0.953125
1629370508156,-0.15625,0.125,0.953125
1629370508187,-0.15625,0.125,0.953125
1629370508218,-0.15625,0.125,0.953125
1629370508250,-0.15625,0.125,0.96875
1629370508281,-0.15625,0.140625,0.96875
1629370508312,-0.15625,0.125,0.953125
1629370508343,-0.15625,0.125,0.96875
1629370508375,-0.15625,0.140625,0.96875
1629370508406,-0.15625,0.140625,0.953125
1629370508437,-0.15625,0.125,0.953125
1629370508468,-0.15625,0.125,0.953125
1629370508500,-0.15625,0.125,0.953125
1629370508531,-0.15625,0.125,0.953125
1629370508562,-0.15625,0.125,0.953125
1629370508593,-0.15625,0.125,0.953125
1629370508625,-0.15625,0.125,0.953125
1629370508656,-0.15625,0.125,0.953125
1629370508687,-0.15625,0.140625,0.953125
1629370508718,-0.15625,0.140625,0.953125
1629370508750,-0.15625,0.125,0.96875
1629370508781,-0.15625,0.125,0.953125
1629370508812,-0.15625,0.125,0.96875
1629370508843,-0.15625,0.125,0.96875
1629370508875,-0.15625,0.125,0.953125
1629370508906,-0.15625,0.125,0.953125
1629370508937,-0.171875,0.125,0.953125
1629370508968,-0.15625,0.125,0.953125
1629370509000,-0.15625,0.125,0.953125
1629370509031,-0.15625,0.125,0.953125
1629370509062,-0.171875,0.125,0.96875
1629370509093,-0.15625,0.125,0.953125
1629370509125,-0.15625,0.125,0.953125
1629370509156,-0.15625,0.125,0.953125
1629370509187,-0.15625,0.125,0.953125
1629370509218,-0.15625,0.125,0.953125
1629370509250,-0.15625,0.125,0.953125
1629370509281,-0.15625,0.125,0.953125
1629370509312,-0.15625,0.125,0.953125
1629370509343,-0.15625,0.125,0.953125
1629370509375,-0.171875,0.125,0.953125
1629370509406,-0.171875,0.125,0.953125
1629370509437,-0.15625,0.125,0.953125
1629370509468,-0.171875,0.125,0.953125
1629370509500,-0.171875,0.125,0.953125
1629370509531,-0.171875,0.125,0.953125
1629370509562,-0.15625,0.125,0.953125
1629370509593,-0.171875,0.125,0.953125
1629370509625,-0.171875,0.125,0.953125
1629370509656,-0.171875,0.125,0.953125
1629370509687,-0.171875,0.125,0.96875
1629370509718,-0.171875,0.125,0.96875
1629370509750,-0.171875,0.125,0.953125
1629370509781,-0.171875,0.125,0.953125
1629370509812,-0.171875,0.125,0.953125
1629370509843,-0.171875,0.125,0.953125
1629370509875,-0.171875,0.125,0.953125
1629370509906,-0.171875,0.125,0.953125
1629370509937,-0.171875,0.125,0.953125
1629370509968,-0.171875,0.125,0.953125
1629370510000,-0.15625,0.125,0.953125
1629370510031,-0.15625,0.140625,0.953125
1629370510062,-0.15625,0.140625,0.953125
1629370510093,-0.171875,0.140625,0.96875
1629370510125,-0.171875,0.125,0.953125
1629370510156,-0.171875,0.140625,0.953125
1629370510187,-0.171875,0.140625,0.953125
1629370510218,-0.171875,0.140625,0.953125
1629370510250,-0.171875,0.140625,0.953125
1629370510281,-0.171875,0.140625,0.953125
1629370510312,-0.171875,0.140625,0.953125
1629370510343,-0.171875,0.140625,0.953125
1629370510375,-0.171875,0.140625,0.953125
1629370510406,-0.171875,0.140625,0.953125
1629370510437,-0.171875,0.140625,0.953125
1629370510468,-0.171875,0.140625,0.953125
1629370510500,-0.171875,0.125,0.953125
1629370510531,-0.171875,0.140625,0.953125
1629370510562,-0.171875,0.140625,0.953125
1629370510593,-0.171875,0.140625,0.953125
1629370510625,-0.171875,0.125,0.953125
1629370510656,-0.171875,0.125,0.953125
1629370510687,-0.171875,0.125,0.953125
1629370510718,-0.171875,0.140625,0.953125
1629370510750,-0.15625,0.125,0.953125
1629370510781,-0.171875,0.125,0.953125
1629370510812,-0.171875,0.125,0.953125
1629370510843,-0.15625,0.140625,0.953125
1629370510875,-0.171875,0.125,0.96875
1629370510906,-0.171875,0.140625,0.953125
1629370510937,-0.171875,0.125,0.953125
1629370510968,-0.171875,0.140625,0.953125
1629370511000,-0.171875,0.140625,0.953125
1629370511031,-0.171875,0.140625,0.953125
1629370511062,-0.171875,0.140625,0.953125
1629370511093,-0.15625,0.140625,0.953125
1629370511125,-0.171875,0.140625,0.953125
1629370511156,-0.171875,0.140625,0.953125
1629370511187,-0.171875,0.140625,0.953125
1629370511218,-0.171875,0.125,0.953125
1629370511250,-0.171875,0.125,0.953125
1629370511281,-0.15625,0.140625,0.953125
1629370511312,-0.15625,0.140625,0.953125
1629370511343,-0.171875,0.140625,0.953125
1629370511375,-0.15625,0.140625,0.953125
1629370511406,-0.171875,0.140625,0.953125
1629370511437,-0.15625,0.140625,0.953125
1629370511468,-0.15625,0.140625,0.953125
1629370511500,-0.171875,0.140625,0.953125
1629370511531,-0.15625,0.140625,0.96875
1629370511562,-0.171875,0.125,0.953125
1629370511593,-0.15625,0.125,0.953125
1629370511625,-0.15625,0.125,0.953125
1629370511656,-0.15625,0.125,0.953125
1629370511687,-0.15625,0.125,0.953125
1629370511718,-0.15625,0.125,0.953125
1629370511750,-0.15625,0.125,0.953125
1629370511781,-0.15625,0.125,0.953125
1629370511812,-0.15625,0.140625,0.96875
1629370511843,-0.15625,0.140625,0.953125
1629370511875,-0.171875,0.140625,0.953125
1629370511906,-0.15625,0.140625,0.953125
1629370511937,-0.171875,0.140625,0.953125
1629370511968,-0.15625,0.140625,0.953125
1629370512000,-0.15625,0.140625,0.953125
1629370512031,-0.15625,0.140625,0.953125
1629370512062,-0.15625,0.140625,0.953125
1629370512093,-0.15625,0.125,0.953125
1629370512125,-0.15625,0.140625,0.96875
1629370512156,-0.15625,0.125,0.96875
1629370512187,-0.15625,0.125,0.96875
1629370512218,-0.15625,0.125,0.96875
1629370512250,-0.15625,0.125,0.96875
1629370512281,-0.15625,0.125,0.953125
1629370512312,-0.15625,0.125,0.953125
1629370512343,-0.140625,0.125,0.953125
1629370512375,-0.15625,0.109375,0.953125
1629370512406,-0.140625,0.109375,0.953125
1629370512437,-0.140625,0.109375,0.953125
1629370512468,-0.140625,0.125,0.953125
1629370512500,-0.140625,0.125,0.953125
1629370512531,-0.140625,0.109375,0.953125
1629370512562,-0.15625,0.125,0.96875
1629370512593,-0.15625,0.125,0.953125
1629370512625,-0.15625,0.125,0.953125
1629370512656,-0.15625,0.125,0.953125
1629370512687,-0.15625,0.125,0.953125
1629370512718,-0.171875,0.140625,0.953125
1629370512750,-0.171875,0.140625,0.96875
1629370512781,-0.171875,0.140625,0.953125
1629370512812,-0.15625,0.140625,0.953125
1629370512843,-0.15625,0.140625,0.953125
1629370512875,-0.15625,0.15625,0.953125
1629370512906,-0.15625,0.140625,0.953125
1629370512937,-0.15625,0.140625,0.953125
1629370512968,-0.140625,0.140625,0.953125
1629370513000,-0.140625,0.140625,0.96875
1629370513031,-0.140625,0.140625,0.953125
1629370513062,-0.140625,0.140625,0.953125
1629370513093,-0.140625,0.140625,0.96875
1629370513125,-0.140625,0.140625,0.953125
1629370513156,-0.15625,0.140625,0.953125
1629370513187,-0.15625,0.125,0.953125
1629370513218,-0.15625,0.140625,0.953125
1629370513250,-0.15625,0.125,0.953125
1629370513281,-0.15625,0.125,0.953125
1629370513312,-0.15625,0.140625,0.953125
1629370513343,-0.15625,0.140625,0.953125
1629370513375,-0.15625,0.140625,0.953125
1629370513406,-0.15625,0.140625,0.953125
1629370513437,-0.15625,0.140625,0.953125
1629370513468,-0.15625,0.140625,0.953125
1629370513500,-0.15625,0.125,0.953125
1629370513531,-0.15625,0.125,0.953125
1629370513562,-0.171875,0.125,0.953125
1629370513593,-0.171875,0.125,0.953125
1629370513625,-0.171875,0.125,0.953125
1629370513656,-0.171875,0.125,0.953125
1629370513687,-0.171875,0.125,0.953125
1629370513718,-0.171875,0.125,0.953125
1629370513750,-0.171875,0.125,0.953125
1629370513781,-0.171875,0.125,0.953125
1629370513812,-0.171875,0.125,0.953125
1629370513843,-0.15625,0.140625,0.953125
1629370513875,-0.15625,0.140625,0.953125
1629370513906,-0.171875,0.125,0.953125
1629370513937,-0.15625,0.140625,0.953125
1629370513968,-0.15625,0.140625,0.953125
1629370514000,-0.15625,0.125,0.953125
1629370514031,-0.15625,0.140625,0.953125
1629370514062,-0.15625,0.125,0.96875
1629370514093,-0.15625,0.140625,0.953125
1629370514125,-0.171875,0.125,0.953125
1629370514156,-0.171875,0.125,0.953125
1629370514187,-0.171875,0.125,0.953125
1629370514218,-0.171875,0.125,0.953125
1629370514250,-0.171875,0.125,0.953125
1629370514281,-0.171875,0.125,0.96875
1629370514312,-0.171875,0.125,0.953125
1629370514343,-0.171875,0.125,0.953125
1629370514375,-0.171875,0.125,0.953125
1629370514406,-0.171875,0.125,0.953125
1629370514437,-0.171875,0.125,0.953125
1629370514468,-0.171875,0.125,0.953125
1629370514500,-0.171875,0.125,0.953125
1629370514531,-0.171875,0.125,0.953125
1629370514562,-0.171875,0.125,0.953125
1629370514593,-0.171875,0.125,0.953125
1629370514625,-0.171875,0.125,0.953125
1629370514656,-0.171875,0.125,0.953125
1629370514687,-0.171875,0.125,0.953125
1629370514718,-0.171875,0.125,0.953125
1629370514750,-0.171875,0.140625,0.953125
1629370514781,-0.171875,0.125,0.953125
1629370514812,-0.171875,0.125,0.953125
1629370514843,-0.171875,0.125,0.953125
1629370514875,-0.171875,0.125,0.953125
1629370514906,-0.171875,0.125,0.953125
1629370514937,-0.171875,0.125,0.96875
1629370514968,-0.171875,0.125,0.953125
1629370515000,-0.171875,0.125,0.953125
1629370515031,-0.171875,0.125,0.953125
1629370515062,-0.171875,0.125,0.953125
1629370515093,-0.171875,0.125,0.96875
1629370515125,-0.171875,0.125,0.953125
1629370515156,-0.171875,0.125,0.953125
1629370515187,-0.171875,0.125,0.953125
1629370515218,-0.171875,0.125,0.953125
1629370515250,-0.171875,0.125,0.953125
1629370515281,-0.171875,0.125,0.953125
1629370515312,-0.171875,0.125,0.953125
1629370515343,-0.171875,0.125,0.953125
1629370515375,-0.171875,0.125,0.953125
1629370515406,-0.15625,0.125,0.953125
1629370515437,-0.171875,0.125,0.953125
1629370515468,-0.15625,0.125,0.953125
1629370515500,-0.15625,0.140625,0.953125
1629370515531,-0.171875,0.140625,0.953125
1629370515562,-0.15625,0.125,0.953125
1629370515593,-0.15625,0.125,0.953125
1629370515625,-0.171875,0.125,0.953125
1629370515656,-0.171875,0.125,0.953125
1629370515687,-0.15625,0.125,0.953125
1629370515718,-0.171875,0.125,0.953125
1629370515750,-0.15625,0.140625,0.953125
1629370515781,-0.15625,0.125,0.953125
1629370515812,-0.15625,0.140625,0.953125
1629370515843,-0.15625,0.125,0.96875
1629370515875,-0.15625,0.140625,0.96875
1629370515906,-0.15625,0.125,0.953125
1629370515937,-0.15625,0.140625,0.953125
1629370515968,-0.15625,0.140625,0.953125
1629370516000,-0.15625,0.125,0.953125
1629370516031,-0.15625,0.125,0.953125
1629370516062,-0.15625,0.140625,0.953125
