timestamp,ax,ay,az
1629897192375,-0.796875,0.328125,0.484375
1629897192406,-0.796875,0.328125,0.484375
1629897192437,-0.796875,0.328125,0.484375
1629897192468,-0.796875,0.328125,0.484375
1629897192500,-0.796875,0.328125,0.484375
1629897192531,-0.796875,0.328125,0.484375
1629897192562,-0.796875,0.328125,0.484375
1629897192593,-0.796875,0.328125,0.5
1629897192625,-0.8125,0.328125,0.484375
1629897192656,-0.796875,0.328125,0.484375
1629897192687,-0.796875,0.328125,0.484375
1629897192718,-0.796875,0.328125,0.484375
1629897192750,-0.796875,0.328125,0.484375
1629897192781,-0.796875,0.328125,0.484375
1629897192812,-0.796875,0.328125,0.484375
1629897192843,-0.796875,0.328125,0.484375
1629897192875,-0.796875,0.328125,0.484375
1629897192906,-0.796875,0.328125,0.484375
1629897192937,-0.796875,0.328125,0.484375
1629897192968,-0.8125,0.328125,0.484375
1629897193000,-0.8125,0.328125,0.484375
1629897193031,-0.796875,0.328125,0.484375
1629897193062,-0.796875,0.328125,0.484375
1629897193093,-0.796875,0.328125,0.484375
1629897193125,-0.796875,0.328125,0.484375
1629897193156,-0.796875,0.328125,0.484375
1629897193187,-0.796875,0.328125,0.484375
1629897193218,-0.796875,0.328125,0.484375
1629897193250,-0.796875,0.328125,0.484375
1629897193281,-0.796875,0.328125,0.484375
1629897193312,-0.796875,0.328125,0.484375
1629897193343,-0.796875,0.328125,0.484375
1629897193375,-0.796875,0.328125,0.484375
1629897193406,-0.796875,0.328125,0.484375
1629897193437,-0.796875,0.328125,0.484375
1629897193468,-0.796875,0.328125,0.484375
1629897193500,-0.796875,0.328125,0.484375
1629897193531,-0.796875,0.328125,0.484375
1629897193562,-0.796875,0.328125,0.484375
1629897193593,-0.796875,0.328125,0.484375
1629897193625,-0.796875,0.328125,0.46875
1629897193656,-0.796875,0.328125,0.484375
1629897193687,-0.796875,0.328125,0.484375
1629897193718,-0.796875,0.328125,0.5
1629897193750,-0.796875,0.328125,0.484375
1629897193781,-0.796875,0.328125,0.484375
1629897193812,-0.796875,0.328125,0.484375
1629897193843,-0.796875,0.328125,0.484375
1629897193875,-0.796875,0.328125,0.484375
1629897193906,-0.796875,0.328125,0.484375
1629897193937,-0.796875,0.328125,0.484375
1629897193968,-0.796875,0.328125,0.484375
1629897194000,-0.796875,0.328125,0.484375
1629897194031,-0.796875,0.328125,0.484375
1629897194062,-0.78125,0.328125,0.484375
1629897194093,-0.8125,0.328125,0.484375
1629897194125,-0.8125,0.328125,0.515625
1629897194156,-0.8125,0.328125,0.484375
1629897194187,-0.8125,0.328125,0.484375
1629897194218,-0.8125,0.34375,0.46875
1629897194250,-0.8125,0.34375,0.46875
1629897194281,-0.8125,0.34375,0.46875
1629897194312,-0.8125,0.328125,0.46875
1629897194343,-0.8125,0.328125,0.46875
1629897194375,-0.8125,0.3125,0.46875
1629897194406,-0.796875,0.328125,0.515625
1629897194437,-0.796875,0.328125,0.5
1629897194468,-0.8125,0.34375,0.5
1629897194500,-0.796875,0.328125,0.5
1629897194531,-0.78125,0.3125,0.5
1629897194562,-0.8125,0.3125,0.5
1629897194593,-0.84375,0.328125,0.5
1629897194625,-0.828125,0.3125,0.5
1629897194656,-0.78125,0.328125,0.515625
1629897194687,-0.859375,0.3125,0.484375
1629897194718,-0.84375,0.296875,0.546875
1629897194750,-0.796875,0.3125,0.515625
1629897194781,-0.78125,0.265625,0.390625
1629897194812,-0.75,0.265625,0.40625
1629897194843,-0.9375,0.296875,0.265625
1629897194875,-0.828125,0.234375,0.140625
1629897194906,-0.953125,0.25,-0.03125
1629897194937,-0.96875,0.140625,-0.125
1629897194968,-1.0625,0.265625,0.03125
1629897195000,-1.046875,0.171875,-0.015625
1629897195031,-1.015625,0.25,-0.015625
1629897195062,-0.953125,0.265625,0.015625
1629897195093,-0.921875,0.328125,-0.015625
1629897195125,-0.9375,0.28125,-0.09375
1629897195156,-0.96875,0.25,-0.15625
1629897195187,-0.953125,0.21875,-0.203125
1629897195218,-0.953125,0.21875,-0.234375
1629897195250,-0.984375,0.234375,-0.234375
1629897195281,-0.96875,0.25,-0.234375
1629897195312,-0.96875,0.265625,-0.21875
1629897195343,-0.953125,0.28125,-0.171875
1629897195375,-0.953125,0.28125,-0.15625
1629897195406,-0.9375,0.265625,-0.125
1629897195437,-0.96875,0.25,-0.109375
1629897195468,-0.96875,0.25,-0.109375
1629897195500,-0.953125,0.25,-0.09375
1629897195531,-0.9375,0.265625,-0.109375
1629897195562,-0.953125,0.25,-0.078125
1629897195593,-0.953125,0.25,-0.0625
1629897195625,-0.953125,0.25,-0.078125
1629897195656,-0.96875,0.265625,-0.078125
1629897195687,-0.96875,0.265625,-0.0625
1629897195718,-0.953125,0.265625,-0.046875
1629897195750,-0.96875,0.28125,-0.0625
1629897195781,-0.984375,0.296875,-0.0625
1629897195812,-0.96875,0.296875,-0.0625
1629897195843,-0.953125,0.296875,-0.046875
1629897195875,-0.953125,0.296875,-0.046875
1629897195906,-0.953125,0.296875,-0.046875
1629897195937,-0.953125,0.296875,-0.046875
1629897195968,-0.953125,0.296875,-0.046875
1629897196000,-0.953125,0.28125,-0.046875
1629897196031,-0.96875,0.28125,-0.0625
1629897196062,-0.96875,0.28125,-0.0625
1629897196093,-0.953125,0.28125,-0.0625
1629897196125,-0.953125,0.28125,-0.046875
1629897196156,-0.953125,0.296875,-0.046875
1629897196187,-0.953125,0.296875,-0.046875
1629897196218,-0.953125,0.296875,-0.046875
1629897196250,-0.953125,0.296875,-0.046875
1629897196281,-0.953125,0.28125,-0.046875
1629897196312,-0.953125,0.28125,-0.0625
1629897196343,-0.96875,0.296875,-0.046875
1629897196375,-0.953125,0.296875,-0.03125
1629897196406,-0.953125,0.28125,-0.046875
1629897196437,-0.953125,0.296875,-0.0625
1629897196468,-0.9375,0.296875,-0.046875
1629897196500,-0.953125,0.296875,-0.046875
1629897196531,-0.953125,0.28125,-0.046875
1629897196562,-0.984375,0.28125,-0.09375
1629897196593,-0.96875,0.28125,-0.078125
1629897196625,-0.953125,0.296875,-0.046875
1629897196656,-0.9375,0.296875,-0.046875
1629897196687,-0.953125,0.28125,-0.0625
1629897196718,-0.953125,0.28125,-0.046875
1629897196750,-0.96875,0.296875,-0.0625
1629897196781,-0.953125,0.28125,-0.046875
1629897196812,-0.953125,0.28125,-0.0625
1629897196843,-0.953125,0.28125,-0.0625
1629897196875,-0.953125,0.28125,-0.0625
1629897196906,-0.953125,0.28125,-0.0625
1629897196937,-0.96875,0.28125,-0.0625
1629897196968,-0.953125,0.28125,-0.0625
1629897197000,-0.953125,0.28125,-0.078125
1629897197031,-0.953125,0.28125,-0.0625
1629897197062,-0.953125,0.28125,-0.0625
1629897197093,-0.953125,0.28125,-0.0625
1629897197125,-0.953125,0.28125,-0.0625
1629897197156,-0.953125,0.28125,-0.078125
1629897197187,-0.953125,0.28125,-0.0625
1629897197218,-0.96875,0.28125,-0.0625
1629897197250,-0.953125,0.28125,-0.0625
1629897197281,-0.953125,0.28125,-0.0625
1629897197312,-0.953125,0.28125,-0.0625
1629897197343,-0.953125,0.265625,-0.0625
1629897197375,-0.953125,0.28125,-0.0625
1629897197406,-0.953125,0.28125,-0.0625
1629897197437,-0.96875,0.265625,-0.0625
1629897197468,-0.953125,0.28125,-0.0625
1629897197500,-0.96875,0.28125,-0.0625
1629897197531,-0.96875,0.28125,-0.0625
1629897197562,-0.953125,0.28125,-0.0625
1629897197593,-0.953125,0.265625,-0.078125
1629897197625,-0.96875,0.265625,-0.078125
1629897197656,-0.96875,0.265625,-0.078125
1629897197687,-0.96875,0.265625,-0.0625
1629897197718,-0.953125,0.265625,-0.078125
1629897197750,-0.953125,0.265625,-0.078125
1629897197781,-0.953125,0.265625,-0.0625
1629897197812,-0.96875,0.265625,-0.078125
1629897197843,-0.953125,0.265625,-0.078125
1629897197875,-0.96875,0.265625,-0.078125
1629897197906,-0.953125,0.265625,-0.078125
1629897197937,-0.953125,0.265625,-0.0625
1629897197968,-0.96875,0.265625,-0.078125
1629897198000,-0.96875,0.265625,-0.078125
1629897198031,-0.96875,0.265625,-0.0625
1629897198062,-0.953125,0.265625,-0.0625
1629897198093,-0.96875,0.265625,-0.078125
1629897198125,-0.96875,0.265625,-0.078125
1629897198156,-0.96875,0.265625,-0.078125
1629897198187,-0.96875,0.265625,-0.078125
1629897198218,-0.953125,0.265625,-0.078125
1629897198250,-0.984375,0.265625,-0.078125
1629897198281,-0.953125,0.265625,-0.0625
1629897198312,-0.96875,0.28125,-0.046875
1629897198343,-0.96875,0.265625,-0.078125
1629897198375,-0.96875,0.265625,-0.0625
1629897198406,-0.96875,0.265625,-0.0625
1629897198437,-0.96875,0.265625,-0.0625
1629897198468,-0.96875,0.265625,-0.0625
1629897198500,-0.96875,0.265625,-0.0625
1629897198531,-0.96875,0.265625,-0.0625
1629897198562,-0.96875,0.265625,-0.0625
1629897198593,-0.96875,0.265625,-0.0625
1629897198625,-0.96875,0.265625,-0.0625
1629897198656,-0.953125,0.265625,-0.046875
1629897198687,-0.953125,0.265625,-0.0625
1629897198718,-0.96875,0.265625,-0.0625
1629897198750,-0.96875,0.265625,-0.078125
1629897198781,-0.96875,0.265625,-0.0625
1629897198812,-0.96875,0.265625,-0.0625
1629897198843,-0.96875,0.265625,-0.046875
1629897198875,-0.96875,0.265625,-0.078125
1629897198906,-0.96875,0.265625,-0.0625
1629897198937,-0.953125,0.265625,-0.046875
1629897198968,-0.96875,0.265625,-0.0625
1629897199000,-0.96875,0.265625,-0.0625
1629897199031,-0.953125,0.265625,-0.0625
1629897199062,-0.96875,0.265625,-0.0625
1629897199093,-0.96875,0.265625,-0.0625
1629897199125,-0.96875,0.265625,-0.0625
1629897199156,-0.953125,0.265625,-0.0625
1629897199187,-0.953125,0.265625,-0.046875
1629897199218,-0.96875,0.265625,-0.0625
1629897199250,-0.96875,0.265625,-0.0625
1629897199281,-0.96875,0.265625,-0.0625
1629897199312,-0.96875,0.265625,-0.0625
1629897199343,-0.953125,0.265625,-0.0625
1629897199375,-0.953125,0.265625,-0.0625
1629897199406,-0.96875,0.265625,-0.0625
1629897199437,-0.96875,0.265625,-0.078125
1629897199468,-0.96875,0.265625,-0.0625
1629897199500,-0.953125,0.265625,-0.0625
1629897199531,-0.96875,0.265625,-0.0625
1629897199562,-0.96875,0.265625,-0.078125
1629897199593,-0.96875,0.265625,-0.078125
1629897199625,-0.96875,0.25,-0.078125
1629897199656,-0.96875,0.25,-0.078125
1629897199687,-0.96875,0.265625,-0.078125
1629897199718,-0.96875,0.265625,-0.0625
1629897199750,-0.96875,0.25,-0.078125
1629897199781,-0.96875,0.265625,-0.078125
1629897199812,-0.96875,0.265625,-0.078125
1629897199843,-0.96875,0.265625,-0.078125
1629897199875,-0.96875,0.265625,-0.078125
1629897199906,-0.953125,0.265625,-0.0625
1629897199937,-0.953125,0.265625,-0.0625
1629897199968,-0.96875,0.265625,-0.0625
1629897200000,-0.953125,0.265625,-0.0625
1629897200031,-0.96875,0.25,-0.0625
1629897200062,-0.96875,0.265625,-0.0625
1629897200093,-0.953125,0.265625,-0.046875
1629897200125,-0.96875,0.265625,-0.0625
1629897200156,-0.96875,0.265625,-0.0625
1629897200187,-0.96875,0.265625,-0.046875
1629897200218,-0.96875,0.265625,-0.046875
1629897200250,-0.96875,0.265625,-0.046875
1629897200281,-0.96875,0.265625,-0.046875
1629897200312,-0.96875,0.265625,-0.046875
1629897200343,-0.96875,0.265625,-0.046875
1629897200375,-0.96875,0.265625,-0.046875
1629897200406,-0.96875,0.265625,-0.046875
1629897200437,-0.96875,0.265625,-0.0625
1629897200468,-0.953125,0.265625,-0.046875
1629897200500,-0.96875,0.265625,-0.046875
1629897200531,-0.96875,0.265625,-0.0625
1629897200562,-0.96875,0.265625,-0.0625
1629897200593,-0.96875,0.265625,-0.0625
1629897200625,-0.96875,0.265625,-0.0625
1629897200656,-0.953125,0.265625,-0.0625
1629897200687,-0.96875,0.265625,-0.0625
1629897200718,-0.96875,0.28125,-0.0625
1629897200750,-0.953125,0.265625,-0.0625
1629897200781,-0.953125,0.265625,-0.046875
1629897200812,-0.953125,0.265625,-0.0625
1629897200843,-0.96875,0.265625,-0.0625
1629897200875,-0.96875,0.265625,-0.0625
1629897200906,-0.96875,0.265625,-0.0625
1629897200937,-0.953125,0.265625,-0.0625
1629897200968,-0.953125,0.265625,-0.0625
1629897201000,-0.96875,0.265625,-0.0625
1629897201031,-0.96875,0.28125,-0.0625
1629897201062,-0.96875,0.28125,-0.0625
1629897201093,-0.953125,0.265625,-0.0625
1629897201125,-0.953125,0.28125,-0.0625
1629897201156,-0.953125,0.265625,-0.0625
1629897201187,-0.96875,0.265625,-0.0625
1629897201218,-0.96875,0.265625,-0.0625
1629897201250,-0.96875,0.265625,-0.0625
1629897201281,-0.96875,0.265625,-0.0625
1629897201312,-0.96875,0.265625,-0.0625
1629897201343,-0.96875,0.265625,-0.0625
1629897201375,-0.96875,0.265625,-0.0625
1629897201406,-0.96875,0.265625,-0.0625
1629897201437,-0.96875,0.265625,-0.0625
1629897201468,-0.96875,0.265625,-0.0625
1629897201500,-0.953125,0.265625,-0.0625
1629897201531,-0.96875,0.265625,-0.0625
1629897201562,-0.953125,0.265625,-0.0625
1629897201593,-0.953125,0.265625,-0.0625
1629897201625,-0.96875,0.265625,-0.0625
1629897201656,-0.96875,0.265625,-0.0625
1629897201687,-0.96875,0.265625,-0.0625
1629897201718,-0.96875,0.265625,-0.0625
1629897201750,-0.96875,0.265625,-0.046875
1629897201781,-0.96875,0.265625,-0.0625
1629897201812,-0.96875,0.265625,-0.0625
1629897201843,-0.953125,0.265625,-0.0625
1629897201875,-0.96875,0.265625,-0.0625
1629897201906,-0.96875,0.265625,-0.0625
1629897201937,-0.953125,0.265625,-0.0625
1629897201968,-0.96875,0.265625,-0.0625
1629897202000,-0.96875,0.265625,-0.0625
1629897202031,-0.96875,0.265625,-0.0625
1629897202062,-0.96875,0.265625,-0.0625
1629897202093,-0.96875,0.265625,-0.0625
1629897202125,-0.96875,0.265625,-0.0625
1629897202156,-0.96875,0.265625,-0.0625
1629897202187,-0.96875,0.265625,-0.0625
1629897202218,-0.96875,0.265625,-0.0625
1629897202250,-0.96875,0.265625,-0.0625
1629897202281,-0.96875,0.265625,-0.0625
1629897202312,-0.96875,0.265625,-0.0625
1629897202343,-0.921875,0.28125,-0.03125
1629897202375,-0.9375,0.265625,-0.0625
1629897202406,-0.96875,0.25,-0.0625
1629897202437,-0.96875,0.265625,-0.046875
1629897202468,-0.96875,0.265625,-0.0625
1629897202500,-0.96875,0.25,-0.046875
1629897202531,-0.96875,0.265625,-0.046875
1629897202562,-0.96875,0.265625,-0.046875
1629897202593,-0.96875,0.265625,-0.046875
1629897202625,-0.96875,0.265625,-0.046875
1629897202656,-0.96875,0.265625,-0.046875
1629897202687,-0.96875,0.265625,-0.046875
1629897202718,-0.96875,0.265625,-0.046875
1629897202750,-0.96875,0.265625,-0.046875
1629897202781,-0.96875,0.265625,-0.0625
1629897202812,-0.96875,0.265625,-0.046875
1629897202843,-0.96875,0.25,-0.046875
1629897202875,-0.96875,0.265625,-0.046875
1629897202906,-0.96875,0.25,-0.0625
1629897202937,-0.96875,0.25,-0.046875
1629897202968,-0.96875,0.25,-0.046875
1629897203000,-0.96875,0.265625,-0.0625
1629897203031,-0.96875,0.265625,-0.046875
1629897203062,-0.96875,0.25,-0.046875
1629897203093,-0.96875,0.265625,-0.046875
1629897203125,-0.96875,0.265625,-0.046875
1629897203156,-0.96875,0.265625,-0.046875
1629897203187,-0.96875,0.25,-0.046875
1629897203218,-0.96875,0.265625,-0.046875
1629897203250,-0.96875,0.265625,-0.046875
1629897203281,-0.96875,0.25,-0.046875
1629897203312,-0.96875,0.265625,-0.046875
1629897203343,-0.96875,0.265625,-0.046875
1629897203375,-0.96875,0.25,-0.046875
1629897203406,-0.96875,0.265625,-0.046875
1629897203437,-0.96875,0.265625,-0.046875
1629897203468,-0.96875,0.25,-0.0625
1629897203500,-0.96875,0.25,-0.046875
1629897203531,-0.953125,0.25,-0.046875
1629897203562,-0.96875,0.25,-0.0625
1629897203593,-0.96875,0.265625,-0.0625
1629897203625,-0.96875,0.25,-0.046875
1629897203656,-0.96875,0.25,-0.046875
1629897203687,-0.96875,0.25,-0.0625
1629897203718,-0.96875,0.25,-0.046875
1629897203750,-0.96875,0.25,-0.046875
1629897203781,-0.96875,0.265625,-0.046875
1629897203812,-0.96875,0.265625,-0.046875
1629897203843,-0.96875,0.25,-0.046875
1629897203875,-0.96875,0.265625,-0.046875
1629897203906,-0.96875,0.265625,-0.0625
1629897203937,-0.96875,0.265625,-0.046875
1629897203968,-0.96875,0.25,-0.046875
1629897204000,-0.96875,0.25,-0.046875
1629897204031,-0.96875,0.25,-0.046875
1629897204062,-0.96875,0.25,-0.0625
1629897204093,-0.953125,0.265625,-0.046875
1629897204125,-0.96875,0.25,-0.0625
1629897204156,-0.96875,0.265625,-0.0625
1629897204187,-0.96875,0.25,-0.046875
1629897204218,-0.96875,0.25,-0.0625
1629897204250,-0.96875,0.25,-0.046875
1629897204281,-0.96875,0.25,-0.046875
1629897204312,-0.96875,0.265625,-0.0625
1629897204343,-0.96875,0.25,-0.046875
1629897204375,-0.96875,0.25,-0.046875
1629897204406,-0.96875,0.25,-0.0625
1629897204437,-0.96875,0.265625,-0.0625
1629897204468,-0.96875,0.25,-0.046875
1629897204500,-0.96875,0.25,-0.046875
1629897204531,-0.96875,0.265625,-0.0625
1629897204562,-0.96875,0.25,-0.046875
1629897204593,-0.96875,0.265625,-0.046875
1629897204625,-0.96875,0.265625,-0.046875
1629897204656,-0.96875,0.25,-0.046875
1629897204687,-0.96875,0.265625,-0.0625
1629897204718,-0.96875,0.265625,-0.046875
1629897204750,-0.96875,0.265625,-0.046875
1629897204781,-0.96875,0.265625,-0.0625
1629897204812,-0.96875,0.265625,-0.046875
1629897204843,-0.96875,0.265625,-0.046875
1629897204875,-0.96875,0.265625,-0.046875
1629897204906,-0.953125,0.265625,-0.046875
1629897204937,-0.96875,0.265625,-0.046875
1629897204968,-0.96875,0.265625,-0.046875
1629897205000,-0.96875,0.265625,-0.046875
1629897205031,-0.96875,0.265625,-0.046875
1629897205062,-0.96875,0.265625,-0.046875
1629897205093,-0.96875,0.265625,-0.046875
1629897205125,-0.96875,0.265625,-0.046875
1629897205156,-0.96875,0.265625,-0.0625
1629897205187,-0.96875,0.265625,-0.0625
1629897205218,-0.96875,0.265625,-0.046875
1629897205250,-0.953125,0.265625,-0.046875
1629897205281,-0.96875,0.265625,-0.046875
1629897205312,-0.96875,0.265625,-0.0625
1629897205343,-0.96875,0.265625,-0.0625
1629897205375,-0.96875,0.265625,-0.0625
1629897205406,-0.96875,0.265625,-0.0625
1629897205437,-0.96875,0.265625,-0.046875
1629897205468,-0.96875,0.265625,-0.046875
1629897205500,-0.96875,0.265625,-0.046875
1629897205531,-0.953125,0.265625,-0.046875
1629897205562,-0.953125,0.265625,-0.046875
1629897205593,-0.96875,0.265625,-0.0625
1629897205625,-0.96875,0.265625,-0.046875
1629897205656,-0.96875,0.265625,-0.046875
1629897205687,-0.96875,0.265625,-0.046875
1629897205718,-0.96875,0.265625,-0.046875
1629897205750,-0.96875,0.265625,-0.046875
1629897205781,-0.96875,0.265625,-0.046875
1629897205812,-0.96875,0.265625,-0.046875
1629897205843,-0.96875,0.265625,-0.046875
1629897205875,-0.96875,0.265625,-0.046875
1629897205906,-0.96875,0.265625,-0.046875
1629897205937,-0.953125,0.265625,-0.046875
1629897205968,-0.96875,0.265625,-0.046875
1629897206000,-0.96875,0.265625,-0.046875
1629897206031,-0.953125,0.265625,-0.0625
1629897206062,-0.953125,0.265625,-0.046875
1629897206093,-0.96875,0.265625,-0.0625
1629897206125,-0.96875,0.265625,-0.046875
1629897206156,-0.96875,0.265625,-0.046875
1629897206187,-0.96875,0.265625,-0.046875
1629897206218,-0.96875,0.265625,-0.046875
1629897206250,-0.96875,0.265625,-0.046875
1629897206281,-0.953125,0.265625,-0.046875
1629897206312,-0.96875,0.265625,-0.046875
1629897206343,-0.96875,0.265625,-0.046875
1629897206375,-0.96875,0.265625,-0.046875
1629897206406,-0.96875,0.265625,-0.046875
1629897206437,-0.96875,0.265625,-0.046875
1629897206468,-0.96875,0.265625,-0.046875
1629897206500,-0.96875,0.265625,-0.046875
1629897206531,-0.96875,0.265625,-0.046875
1629897206562,-0.96875,0.265625,-0.046875
1629897206593,-0.96875,0.25,-0.046875
1629897206625,-0.96875,0.265625,-0.046875
1629897206656,-0.96875,0.265625,-0.046875
1629897206687,-0.96875,0.265625,-0.046875
1629897206718,-0.953125,0.265625,-0.03125
1629897206750,-0.96875,0.265625,-0.046875
1629897206781,-0.96875,0.265625,-0.046875
1629897206812,-0.96875,0.265625,-0.03125
1629897206843,-0.96875,0.25,-0.046875
1629897206875,-0.96875,0.265625,-0.046875
1629897206906,-0.96875,0.265625,-0.046875
1629897206937,-0.96875,0.265625,-0.046875
1629897206968,-0.96875,0.25,-0.046875
1629897207000,-0.96875,0.265625,-0.046875
1629897207031,-0.96875,0.265625,-0.046875
1629897207062,-0.96875,0.25,-0.046875
1629897207093,-0.96875,0.265625,-0.046875
1629897207125,-0.96875,0.265625,-0.046875
1629897207156,-0.96875,0.265625,-0.046875
1629897207187,-0.96875,0.25,-0.046875
1629897207218,-0.96875,0.25,-0.046875
1629897207250,-0.96875,0.25,-0.046875
1629897207281,-0.96875,0.265625,-0.046875
1629897207312,-0.96875,0.25,-0.046875
1629897207343,-0.96875,0.25,-0.046875
1629897207375,-0.96875,0.25,-0.046875
1629897207406,-0.96875,0.25,-0.046875
1629897207437,-0.96875,0.25,-0.046875
1629897207468,-0.96875,0.25,-0.046875
1629897207500,-0.96875,0.25,-0.046875
1629897207531,-0.96875,0.25,-0.046875
1629897207562,-0.96875,0.25,-0.046875
1629897207593,-0.96875,0.265625,-0.046875
1629897207625,-0.96875,0.25,-0.046875
1629897207656,-0.96875,0.25,-0.046875
1629897207687,-0.96875,0.25,-0.046875
1629897207718,-0.96875,0.25,-0.046875
1629897207750,-0.96875,0.265625,-0.046875
1629897207781,-0.96875,0.25,-0.046875
1629897207812,-0.96875,0.25,-0.046875
1629897207843,-0.96875,0.25,-0.046875
1629897207875,-0.96875,0.25,-0.046875
1629897207906,-0.96875,0.25,-0.046875
1629897207937,-0.96875,0.25,-0.046875
1629897207968,-0.96875,0.25,-0.046875
1629897208000,-0.96875,0.25,-0.046875
1629897208031,-0.96875,0.25,-0.046875
1629897208062,-0.96875,0.25,-0.046875
1629897208093,-0.96875,0.25,-0.046875
1629897208125,-0.96875,0.25,-0.046875
1629897208156,-0.96875,0.25,-0.046875
1629897208187,-0.96875,0.25,-0.046875
1629897208218,-0.96875,0.25,-0.046875
1629897208250,-0.96875,0.25,-0.046875
1629897208281,-0.96875,0.25,-0.046875
1629897208312,-0.96875,0.25,-0.046875
1629897208343,-0.96875,0.25,-0.046875
1629897208375,-0.96875,0.25,-0.046875
1629897208406,-0.96875,0.25,-0.046875
1629897208437,-0.96875,0.25,-0.046875
1629897208468,-0.96875,0.25,-0.046875
1629897208500,-0.96875,0.25,-0.046875
1629897208531,-0.96875,0.25,-0.046875
1629897208562,-0.96875,0.25,-0.046875
1629897208593,-0.96875,0.25,-0.046875
1629897208625,-0.96875,0.25,-0.046875
1629897208656,-0.96875,0.25,-0.046875
1629897208687,-0.96875,0.25,-0.046875
1629897208718,-0.96875,0.25,-0.046875
1629897208750,-0.96875,0.25,-0.046875
1629897208781,-0.96875,0.25,-0.046875
1629897208812,-0.96875,0.25,-0.046875
1629897208843,-0.96875,0.25,-0.046875
1629897208875,-0.96875,0.25,-0.046875
1629897208906,-0.96875,0.25,-0.046875
1629897208937,-0.96875,0.25,-0.046875
1629897208968,-0.96875,0.25,-0.046875
1629897209000,-0.96875,0.25,-0.046875
1629897209031,-0.96875,0.25,-0.046875
1629897209062,-0.96875,0.25,-0.046875
1629897209093,-0.96875,0.25,-0.046875
1629897209125,-0.96875,0.25,-0.046875
1629897209156,-0.96875,0.25,-0.046875
1629897209187,-0.96875,0.25,-0.046875
1629897209218,-0.96875,0.25,-0.046875
1629897209250,-0.96875,0.25,-0.046875
1629897209281,-0.96875,0.25,-0.046875
1629897209312,-0.96875,0.25,-0.046875
1629897209343,-0.96875,0.25,-0.046875
1629897209375,-0.96875,0.25,-0.046875
1629897209406,-0.96875,0.25,-0.046875
1629897209437,-0.96875,0.25,-0.046875
1629897209468,-0.96875,0.25,-0.046875
1629897209500,-0.984375,0.25,-0.0625
1629897209531,-0.96875,0.25,-0.046875
1629897209562,-0.953125,0.265625,-0.03125
1629897209593,-0.96875,0.25,-0.03125
1629897209625,-0.96875,0.25,-0.03125
1629897209656,-0.96875,0.25,-0.03125
1629897209687,-0.96875,0.25,-0.046875
1629897209718,-0.96875,0.25,-0.03125
1629897209750,-0.96875,0.25,-0.046875
1629897209781,-0.96875,0.25,-0.046875
1629897209812,-0.96875,0.25,-0.046875
1629897209843,-0.96875,0.25,-0.046875
1629897209875,-0.96875,0.25,-0.046875
1629897209906,-0.96875,0.25,-0.046875
1629897209937,-0.96875,0.25,-0.046875
1629897209968,-0.96875,0.25,-0.046875
1629897210000,-0.96875,0.25,-0.046875
1629897210031,-0.96875,0.25,-0.046875
1629897210062,-0.96875,0.25,-0.046875
1629897210093,-0.96875,0.25,-0.046875
1629897210125,-0.96875,0.25,-0.046875
1629897210156,-0.96875,0.25,-0.046875
1629897210187,-0.96875,0.25,-0.046875
1629897210218,-0.96875,0.25,-0.046875
1629897210250,-0.96875,0.265625,-0.046875
1629897210281,-0.96875,0.265625,-0.03125
1629897210312,-0.96875,0.25,-0.046875
1629897210343,-0.96875,0.265625,-0.046875
1629897210375,-0.96875,0.265625,-0.046875
1629897210406,-0.96875,0.25,-0.046875
1629897210437,-0.96875,0.265625,-0.046875
1629897210468,-0.96875,0.25,-0.046875
1629897210500,-0.96875,0.265625,-0.046875
1629897210531,-0.96875,0.265625,-0.046875
1629897210562,-0.96875,0.265625,-0.046875
1629897210593,-0.96875,0.265625,-0.046875
1629897210625,-0.96875,0.265625,-0.046875
1629897210656,-0.96875,0.265625,-0.046875
1629897210687,-0.96875,0.265625,-0.046875
1629897210718,-0.96875,0.265625,-0.046875
1629897210750,-0.96875,0.265625,-0.046875
1629897210781,-0.96875,0.265625,-0.046875
1629897210812,-0.96875,0.265625,-0.046875
1629897210843,-0.96875,0.265625,-0.046875
1629897210875,-0.96875,0.265625,-0.046875
1629897210906,-0.96875,0.265625,-0.046875
1629897210937,-0.96875,0.265625,-0.046875
1629897210968,-0.96875,0.265625,-0.046875
1629897211000,-0.96875,0.265625,-0.046875
1629897211031,-0.96875,0.265625,-0.046875
1629897211062,-0.96875,0.265625,-0.046875
1629897211093,-0.96875,0.265625,-0.046875
1629897211125,-0.96875,0.265625,-0.046875
1629897211156,-0.96875,0.265625,-0.046875
1629897211187,-0.96875,0.265625,-0.046875
1629897211218,-0.96875,0.265625,-0.046875
1629897211250,-0.96875,0.265625,-0.046875
1629897211281,-0.96875,0.265625,-0.046875
1629897211312,-0.96875,0.265625,-0.046875
1629897211343,-0.96875,0.265625,-0.046875
1629897211375,-0.96875,0.265625,-0.046875
1629897211406,-0.96875,0.265625,-0.046875
1629897211437,-0.96875,0.265625,-0.046875
1629897211468,-0.96875,0.265625,-0.046875
1629897211500,-0.96875,0.265625,-0.046875
1629897211531,-0.96875,0.265625,-0.046875
1629897211562,-0.96875,0.265625,-0.046875
1629897211593,-0.96875,0.265625,-0.046875
1629897211625,-0.96875,0.265625,-0.046875
1629897211656,-0.96875,0.25,-0.046875
1629897211687,-0.96875,0.265625,-0.046875
1629897211718,-0.96875,0.265625,-0.046875
1629897211750,-0.96875,0.265625,-0.046875
1629897211781,-0.96875,0.25,-0.046875
1629897211812,-0.96875,0.25,-0.046875
1629897211843,-0.96875,0.265625,-0.046875
1629897211875,-0.96875,0.265625,-0.046875
1629897211906,-0.96875,0.265625,-0.046875
1629897211937,-0.96875,0.25,-0.046875
1629897211968,-0.96875,0.25,-0.046875
1629897212000,-0.96875,0.25,-0.046875
1629897212031,-0.96875,0.25,-0.03125
1629897212062,-0.96875,0.25,-0.046875
1629897212093,-0.96875,0.265625,-0.046875
1629897212125,-0.96875,0.25,-0.046875
1629897212156,-0.96875,0.265625,-0.046875
1629897212187,-0.96875,0.25,-0.046875
1629897212218,-0.96875,0.25,-0.046875
1629897212250,-0.96875,0.25,-0.046875
1629897212281,-0.96875,0.25,-0.046875
1629897212312,-0.96875,0.25,-0.046875
1629897212343,-0.96875,0.25,-0.046875
1629897212375,-0.96875,0.25,-0.046875
1629897212406,-0.96875,0.25,-0.046875
1629897212437,-0.96875,0.265625,-0.046875
1629897212468,-0.96875,0.25,-0.046875
1629897212500,-0.953125,0.25,-0.046875
1629897212531,-0.96875,0.25,-0.046875
1629897212562,-0.96875,0.25,-0.046875
1629897212593,-0.96875,0.25,-0.046875
1629897212625,-0.96875,0.25,-0.046875
1629897212656,-0.96875,0.25,-0.046875
1629897212687,-0.96875,0.25,-0.046875
1629897212718,-0.96875,0.25,-0.046875
1629897212750,-0.96875,0.265625,-0.046875
1629897212781,-0.96875,0.25,-0.046875
1629897212812,-0.96875,0.25,-0.046875
1629897212843,-0.96875,0.25,-0.046875
1629897212875,-0.96875,0.25,-0.046875
1629897212906,-0.96875,0.25,-0.046875
1629897212937,-0.96875,0.25,-0.046875
1629897212968,-0.96875,0.25,-0.046875
1629897213000,-0.96875,0.25,-0.046875
1629897213031,-0.96875,0.25,-0.046875
1629897213062,-0.96875,0.25,-0.046875
1629897213093,-0.96875,0.25,-0.046875
1629897213125,-0.96875,0.25,-0.046875
1629897213156,-0.96875,0.25,-0.046875
1629897213187,-0.96875,0.25,-0.046875
1629897213218,-0.96875,0.25,-0.046875
1629897213250,-0.96875,0.25,-0.046875
1629897213281,-0.96875,0.25,-0.046875
1629897213312,-0.96875,0.25,-0.046875
1629897213343,-0.96875,0.25,-0.046875
1629897213375,-0.96875,0.25,-0.046875
1629897213406,-0.96875,0.25,-0.046875
1629897213437,-0.96875,0.25,-0.046875
1629897213468,-0.96875,0.25,-0.046875
1629897213500,-0.96875,0.25,-0.046875
1629897213531,-0.96875,0.25,-0.046875
1629897213562,-0.96875,0.25,-0.046875
1629897213593,-0.96875,0.25,-0.046875
1629897213625,-0.96875,0.25,-0.046875
1629897213656,-0.96875,0.25,-0.046875
1629897213687,-0.96875,0.25,-0.046875
1629897213718,-0.96875,0.25,-0.046875
1629897213750,-0.96875,0.25,-0.046875
1629897213781,-0.96875,0.25,-0.046875
1629897213812,-0.96875,0.25,-0.046875
1629897213843,-0.96875,0.25,-0.046875
1629897213875,-0.96875,0.25,-0.046875
1629897213906,-0.96875,0.25,-0.046875
1629897213937,-0.96875,0.25,-0.046875
1629897213968,-0.96875,0.25,-0.046875
1629897214000,-0.96875,0.25,-0.046875
1629897214031,-0.96875,0.25,-0.046875
1629897214062,-0.96875,0.25,-0.046875
1629897214093,-0.96875,0.25,-0.046875
1629897214125,-0.96875,0.25,-0.046875
1629897214156,-0.96875,0.25,-0.046875
1629897214187,-0.96875,0.25,-0.046875
1629897214218,-0.96875,0.25,-0.046875
1629897214250,-0.96875,0.25,-0.046875
1629897214281,-0.96875,0.25,-0.046875
1629897214312,-0.96875,0.25,-0.046875
1629897214343,-0.96875,0.25,-0.046875
1629897214375,-0.96875,0.25,-0.046875
1629897214406,-0.96875,0.25,-0.046875
1629897214437,-0.96875,0.25,-0.046875
1629897214468,-0.96875,0.25,-0.046875
1629897214500,-0.96875,0.25,-0.046875
1629897214531,-0.96875,0.25,-0.046875
1629897214562,-0.96875,0.25,-0.046875
1629897214593,-0.96875,0.25,-0.046875
1629897214625,-0.96875,0.25,-0.046875
1629897214656,-0.96875,0.25,-0.046875
1629897214687,-0.96875,0.25,-0.046875
1629897214718,-0.96875,0.25,-0.046875
1629897214750,-0.96875,0.25,-0.046875
1629897214781,-0.96875,0.25,-0.046875
1629897214812,-0.96875,0.25,-0.046875
1629897214843,-0.96875,0.25,-0.046875
1629897214875,-0.96875,0.25,-0.046875
1629897214906,-0.96875,0.25,-0.046875
1629897214937,-0.96875,0.25,-0.046875
1629897214968,-0.96875,0.25,-0.046875
1629897215000,-0.96875,0.25,-0.046875
1629897215031,-0.96875,0.25,-0.046875
1629897215062,-0.96875,0.25,-0.046875
1629897215093,-0.96875,0.25,-0.046875
1629897215125,-0.96875,0.25,-0.046875
1629897215156,-0.96875,0.25,-0.046875
1629897215187,-0.96875,0.25,-0.046875
1629897215218,-0.96875,0.25,-0.046875
1629897215250,-0.96875,0.25,-0.046875
1629897215281,-0.96875,0.25,-0.046875
1629897215312,-0.96875,0.265625,-0.046875
1629897215343,-0.96875,0.265625,-0.046875
1629897215375,-0.96875,0.25,-0.046875
1629897215406,-0.96875,0.25,-0.046875
1629897215437,-0.96875,0.25,-0.046875
1629897215468,-0.96875,0.25,-0.046875
1629897215500,-0.96875,0.25,-0.046875
1629897215531,-0.96875,0.25,-0.046875
1629897215562,-0.96875,0.25,-0.046875
1629897215593,-0.96875,0.25,-0.046875
1629897215625,-0.96875,0.265625,-0.03125
1629897215656,-0.96875,0.265625,-0.046875
1629897215687,-0.96875,0.265625,-0.046875
1629897215718,-0.96875,0.25,-0.046875
1629897215750,-0.96875,0.265625,-0.046875
1629897215781,-0.96875,0.265625,-0.046875
1629897215812,-0.96875,0.265625,-0.046875
1629897215843,-0.96875,0.265625,-0.046875
1629897215875,-0.96875,0.265625,-0.046875
1629897215906,-0.96875,0.25,-0.046875
1629897215937,-0.96875,0.265625,-0.046875
1629897215968,-0.96875,0.265625,-0.046875
1629897216000,-0.96875,0.265625,-0.046875
1629897216031,-0.96875,0.265625,-0.046875
1629897216062,-0.96875,0.265625,-0.046875
1629897216093,-0.96875,0.265625,-0.046875
1629897216125,-0.96875,0.265625,-0.046875
1629897216156,-0.96875,0.265625,-0.046875
1629897216187,-0.96875,0.265625,-0.046875
1629897216218,-0.96875,0.265625,-0.046875
1629897216250,-0.96875,0.265625,-0.046875
1629897216281,-0.96875,0.265625,-0.046875
1629897216312,-0.96875,0.265625,-0.046875
1629897216343,-0.96875,0.265625,-0.046875
1629897216375,-0.96875,0.265625,-0.046875
1629897216406,-0.96875,0.265625,-0.046875
1629897216437,-0.96875,0.265625,-0.046875
1629897216468,-0.96875,0.265625,-0.046875
1629897216500,-0.96875,0.265625,-0.046875
1629897216531,-0.96875,0.265625,-0.046875
1629897216562,-0.96875,0.265625,-0.046875
1629897216593,-0.96875,0.265625,-0.046875
1629897216625,-0.96875,0.265625,-0.046875
1629897216656,-0.96875,0.265625,-0.046875
1629897216687,-0.953125,0.265625,-0.046875
1629897216718,-0.96875,0.265625,-0.046875
1629897216750,-0.96875,0.265625,-0.046875
1629897216781,-0.96875,0.265625,-0.046875
1629897216812,-0.96875,0.265625,-0.046875
1629897216843,-0.96875,0.265625,-0.046875
1629897216875,-0.953125,0.265625,-0.03125
1629897216906,-0.96875,0.265625,-0.046875
1629897216937,-0.96875,0.265625,-0.046875
1629897216968,-0.96875,0.265625,-0.046875
1629897217000,-0.96875,0.265625,-0.046875
1629897217031,-0.96875,0.265625,-0.046875
1629897217062,-0.96875,0.265625,-0.046875
1629897217093,-0.96875,0.265625,-0.046875
1629897217125,-0.96875,0.265625,-0.046875
1629897217156,-0.96875,0.25,-0.046875
1629897217187,-0.96875,0.265625,-0.046875
1629897217218,-0.96875,0.265625,-0.046875
1629897217250,-0.96875,0.25,-0.046875
1629897217281,-0.96875,0.25,-0.046875
1629897217312,-0.96875,0.265625,-0.046875
1629897217343,-0.96875,0.25,-0.03125
1629897217375,-0.96875,0.265625,-0.046875
1629897217406,-0.96875,0.265625,-0.046875
1629897217437,-0.96875,0.265625,-0.046875
1629897217468,-0.953125,0.265625,-0.046875
1629897217500,-0.96875,0.25,-0.046875
1629897217531,-0.96875,0.25,-0.046875
1629897217562,-0.96875,0.25,-0.046875
1629897217593,-0.96875,0.25,-0.03125
1629897217625,-0.96875,0.25,-0.046875
1629897217656,-0.96875,0.25,-0.03125
1629897217687,-0.96875,0.265625,-0.046875
1629897217718,-0.96875,0.265625,-0.046875
1629897217750,-0.96875,0.25,-0.046875
1629897217781,-0.96875,0.25,-0.046875
1629897217812,-0.96875,0.25,-0.046875
1629897217843,-0.96875,0.25,-0.03125
1629897217875,-0.96875,0.25,-0.046875
1629897217906,-0.96875,0.25,-0.046875
1629897217937,-0.96875,0.25,-0.046875
1629897217968,-0.96875,0.25,-0.03125
1629897218000,-0.96875,0.25,-0.046875
1629897218031,-0.96875,0.25,-0.046875
1629897218062,-0.96875,0.25,-0.046875
1629897218093,-0.96875,0.265625,-0.046875
1629897218125,-0.96875,0.25,-0.046875
1629897218156,-0.96875,0.25,-0.046875
1629897218187,-0.96875,0.25,-0.046875
1629897218218,-0.96875,0.25,-0.046875
1629897218250,-0.96875,0.25,-0.046875
1629897218281,-0.96875,0.25,-0.046875
1629897218312,-0.96875,0.25,-0.046875
1629897218343,-0.96875,0.25,-0.046875
1629897218375,-0.96875,0.25,-0.046875
1629897218406,-0.96875,0.25,-0.046875
1629897218437,-0.96875,0.25,-0.046875
1629897218468,-0.96875,0.25,-0.046875
1629897218500,-0.96875,0.25,-0.03125
1629897218531,-0.96875,0.25,-0.046875
1629897218562,-0.96875,0.25,-0.046875
1629897218593,-0.96875,0.25,-0.03125
1629897218625,-0.96875,0.25,-0.046875
1629897218656,-0.96875,0.25,-0.046875
1629897218687,-0.96875,0.25,-0.046875
1629897218718,-0.96875,0.25,-0.046875
1629897218750,-0.96875,0.25,-0.046875
1629897218781,-0.96875,0.25,-0.046875
1629897218812,-0.96875,0.25,-0.046875
1629897218843,-0.96875,0.25,-0.046875
1629897218875,-0.96875,0.25,-0.03125
1629897218906,-0.96875,0.25,-0.046875
1629897218937,-0.96875,0.25,-0.046875
1629897218968,-0.96875,0.25,-0.046875
1629897219000,-0.96875,0.25,-0.046875
1629897219031,-0.96875,0.25,-0.046875
1629897219062,-0.96875,0.25,-0.046875
1629897219093,-0.96875,0.25,-0.046875
1629897219125,-0.96875,0.25,-0.046875
1629897219156,-0.96875,0.25,-0.046875
1629897219187,-0.96875,0.25,-0.046875
1629897219218,-0.96875,0.25,-0.046875
1629897219250,-0.96875,0.25,-0.046875
1629897219281,-0.96875,0.25,-0.046875
1629897219312,-0.96875,0.25,-0.046875
1629897219343,-0.96875,0.25,-0.046875
1629897219375,-0.96875,0.25,-0.046875
1629897219406,-0.96875,0.25,-0.046875
1629897219437,-0.96875,0.25,-0.046875
1629897219468,-0.96875,0.25,-0.046875
1629897219500,-0.96875,0.25,-0.046875
1629897219531,-0.96875,0.25,-0.046875
1629897219562,-0.96875,0.25,-0.046875
1629897219593,-0.96875,0.25,-0.046875
1629897219625,-0.96875,0.25,-0.046875
1629897219656,-0.96875,0.25,-0.046875
1629897219687,-0.96875,0.25,-0.046875
1629897219718,-0.96875,0.25,-0.046875
1629897219750,-0.96875,0.25,-0.046875
1629897219781,-0.96875,0.25,-0.046875
1629897219812,-0.96875,0.25,-0.046875
1629897219843,-0.96875,0.25,-0.046875
1629897219875,-0.96875,0.25,-0.046875
1629897219906,-0.96875,0.25,-0.046875
1629897219937,-0.96875,0.25,-0.046875
1629897219968,-0.96875,0.25,-0.046875
1629897220000,-0.96875,0.25,-0.046875
1629897220031,-0.96875,0.25,-0.046875
1629897220062,-0.96875,0.25,-0.046875
1629897220093,-0.96875,0.25,-0.046875
1629897220125,-0.96875,0.25,-0.046875
1629897220156,-0.96875,0.25,-0.046875
1629897220187,-0.96875,0.25,-0.046875
1629897220218,-0.96875,0.25,-0.046875
1629897220250,-0.96875,0.25,-0.046875
1629897220281,-0.96875,0.25,-0.046875
1629897220312,-0.96875,0.25,-0.046875
1629897220343,-0.96875,0.25,-0.03125
1629897220375,-0.96875,0.25,-0.046875
1629897220406,-0.96875,0.25,-0.046875
1629897220437,-0.96875,0.25,-0.046875
1629897220468,-0.96875,0.25,-0.046875
1629897220500,-0.96875,0.25,-0.046875
1629897220531,-0.96875,0.25,-0.046875
1629897220562,-0.96875,0.25,-0.046875
1629897220593,-0.96875,0.25,-0.046875
1629897220625,-0.96875,0.25,-0.046875
1629897220656,-0.96875,0.25,-0.046875
1629897220687,-0.96875,0.25,-0.046875
1629897220718,-0.96875,0.265625,-0.046875
1629897220750,-0.96875,0.25,-0.046875
1629897220781,-0.96875,0.25,-0.046875
1629897220812,-0.96875,0.265625,-0.046875
1629897220843,-0.96875,0.265625,-0.046875
1629897220875,-0.96875,0.25,-0.046875
1629897220906,-0.96875,0.25,-0.046875
1629897220937,-0.96875,0.25,-0.046875
1629897220968,-0.96875,0.265625,-0.046875
1629897221000,-0.96875,0.265625,-0.046875
1629897221031,-0.96875,0.25,-0.046875
1629897221062,-0.96875,0.25,-0.03125
1629897221093,-0.96875,0.265625,-0.046875
1629897221125,-0.96875,0.265625,-0.046875
1629897221156,-0.96875,0.265625,-0.046875
1629897221187,-0.96875,0.25,-0.046875
1629897221218,-0.96875,0.25,-0.046875
1629897221250,-0.96875,0.265625,-0.046875
1629897221281,-0.96875,0.25,-0.046875
1629897221312,-0.96875,0.265625,-0.046875
1629897221343,-0.96875,0.265625,-0.046875
1629897221375,-0.96875,0.265625,-0.046875
1629897221406,-0.96875,0.265625,-0.046875
1629897221437,-0.96875,0.25,-0.046875
1629897221468,-0.96875,0.25,-0.046875
1629897221500,-0.96875,0.265625,-0.046875
1629897221531,-0.96875,0.25,-0.046875
1629897221562,-0.96875,0.265625,-0.046875
1629897221593,-0.96875,0.25,-0.046875
1629897221625,-0.96875,0.265625,-0.046875
1629897221656,-0.96875,0.265625,-0.046875
1629897221687,-0.96875,0.265625,-0.046875
1629897221718,-0.96875,0.265625,-0.046875
1629897221750,-0.96875,0.25,-0.046875
1629897221781,-0.96875,0.25,-0.046875
1629897221812,-0.96875,0.25,-0.046875
1629897221843,-0.96875,0.25,-0.046875
1629897221875,-0.96875,0.265625,-0.046875
1629897221906,-0.96875,0.265625,-0.03125
1629897221937,-0.96875,0.25,-0.046875
1629897221968,-0.96875,0.25,-0.046875
1629897222000,-0.96875,0.25,-0.046875
1629897222031,-0.96875,0.25,-0.046875
1629897222062,-0.96875,0.25,-0.046875
1629897222093,-0.96875,0.25,-0.046875
1629897222125,-0.96875,0.25,-0.046875
1629897222156,-0.96875,0.25,-0.046875
1629897222187,-0.96875,0.25,-0.046875
1629897222218,-0.96875,0.25,-0.046875
1629897222250,-0.96875,0.25,-0.046875
1629897222281,-0.96875,0.25,-0.046875
1629897222312,-0.96875,0.25,-0.046875
1629897222343,-0.96875,0.25,-0.046875
1629897222375,-0.96875,0.25,-0.046875
1629897222406,-0.96875,0.25,-0.046875
1629897222437,-0.96875,0.25,-0.046875
1629897222468,-0.96875,0.25,-0.046875
1629897222500,-0.96875,0.25,-0.046875
1629897222531,-0.96875,0.25,-0.046875
1629897222562,-0.96875,0.25,-0.046875
1629897222593,-0.96875,0.25,-0.046875
1629897222625,-0.96875,0.25,-0.046875
1629897222656,-0.96875,0.25,-0.046875
1629897222687,-0.96875,0.25,-0.046875
1629897222718,-0.96875,0.25,-0.046875
1629897222750,-0.96875,0.25,-0.046875
1629897222781,-0.96875,0.25,-0.046875
1629897222812,-0.96875,0.25,-0.046875
1629897222843,-0.96875,0.25,-0.046875
1629897222875,-0.96875,0.25,-0.046875
1629897222906,-0.96875,0.25,-0.046875
1629897222937,-0.96875,0.25,-0.046875
1629897222968,-0.96875,0.25,-0.046875
1629897223000,-0.96875,0.25,-0.046875
1629897223031,-0.96875,0.25,-0.046875
1629897223062,-0.96875,0.25,-0.046875
1629897223093,-0.96875,0.25,-0.046875
1629897223125,-0.96875,0.25,-0.046875
1629897223156,-0.96875,0.25,-0.046875
1629897223187,-0.96875,0.25,-0.046875
1629897223218,-0.96875,0.25,-0.046875
1629897223250,-0.96875,0.25,-0.046875
1629897223281,-0.96875,0.25,-0.046875
1629897223312,-0.96875,0.25,-0.046875
1629897223343,-0.96875,0.25,-0.046875
1629897223375,-0.96875,0.25,-0.046875
1629897223406,-0.96875,0.25,-0.03125
1629897223437,-0.96875,0.25,-0.046875
1629897223468,-0.96875,0.25,-0.046875
1629897223500,-0.96875,0.25,-0.046875
1629897223531,-0.96875,0.25,-0.046875
1629897223562,-0.96875,0.25,-0.03125
1629897223593,-0.96875,0.25,-0.046875
1629897223625,-0.96875,0.25,-0.046875
1629897223656,-0.96875,0.25,-0.046875
1629897223687,-0.96875,0.25,-0.046875
1629897223718,-0.96875,0.25,-0.03125
1629897223750,-0.96875,0.25,-0.046875
1629897223781,-0.96875,0.25,-0.046875
1629897223812,-0.96875,0.25,-0.046875
1629897223843,-0.96875,0.25,-0.046875
1629897223875,-0.96875,0.25,-0.046875
1629897223906,-0.96875,0.25,-0.046875
1629897223937,-0.96875,0.25,-0.046875
1629897223968,-0.96875,0.25,-0.046875
1629897224000,-0.96875,0.25,-0.046875
1629897224031,-0.96875,0.25,-0.046875
1629897224062,-0.96875,0.25,-0.046875
1629897224093,-0.96875,0.25,-0.046875
1629897224125,-0.96875,0.25,-0.046875
1629897224156,-0.96875,0.25,-0.046875
1629897224187,-0.96875,0.25,-0.046875
1629897224218,-0.96875,0.25,-0.046875
1629897224250,-0.96875,0.25,-0.046875
1629897224281,-0.96875,0.25,-0.046875
1629897224312,-0.96875,0.25,-0.046875
1629897224343,-0.96875,0.25,-0.046875
1629897224375,-0.96875,0.25,-0.046875
1629897224406,-0.96875,0.25,-0.046875
1629897224437,-0.96875,0.25,-0.046875
1629897224468,-0.96875,0.25,-0.046875
1629897224500,-0.96875,0.25,-0.046875
1629897224531,-0.96875,0.25,-0.046875
1629897224562,-0.96875,0.25,-0.046875
1629897224593,-0.96875,0.25,-0.046875
1629897224625,-0.96875,0.25,-0.046875
1629897224656,-0.96875,0.25,-0.046875
1629897224687,-0.96875,0.25,-0.046875
1629897224718,-0.96875,0.25,-0.046875
1629897224750,-0.96875,0.25,-0.046875
1629897224781,-0.96875,0.25,-0.046875
1629897224812,-0.96875,0.25,-0.046875
1629897224843,-0.96875,0.25,-0.046875
1629897224875,-0.96875,0.25,-0.046875
1629897224906,-0.96875,0.25,-0.046875
1629897224937,-0.96875,0.25,-0.046875
1629897224968,-0.96875,0.25,-0.046875
1629897225000,-0.96875,0.25,-0.046875
1629897225031,-0.96875,0.25,-0.046875
1629897225062,-0.96875,0.25,-0.046875
1629897225093,-0.96875,0.25,-0.046875
1629897225125,-0.96875,0.25,-0.046875
1629897225156,-0.96875,0.25,-0.046875
1629897225187,-0.96875,0.25,-0.03125
1629897225218,-0.96875,0.25,-0.046875
1629897225250,-0.96875,0.25,-0.046875
1629897225281,-0.96875,0.25,-0.046875
1629897225312,-0.96875,0.25,-0.046875
1629897225343,-0.96875,0.25,-0.046875
1629897225375,-0.96875,0.25,-0.046875
1629897225406,-0.96875,0.25,-0.03125
1629897225437,-0.96875,0.25,-0.046875
1629897225468,-0.96875,0.25,-0.046875
1629897225500,-0.96875,0.25,-0.046875
1629897225531,-0.96875,0.25,-0.046875
1629897225562,-0.96875,0.25,-0.046875
1629897225593,-0.96875,0.25,-0.046875
1629897225625,-0.96875,0.25,-0.046875
1629897225656,-0.96875,0.25,-0.046875
1629897225687,-0.96875,0.25,-0.046875
1629897225718,-0.96875,0.25,-0.046875
1629897225750,-0.96875,0.25,-0.046875
1629897225781,-0.96875,0.25,-0.046875
1629897225812,-0.96875,0.265625,-0.046875
1629897225843,-0.96875,0.25,-0.046875
1629897225875,-0.96875,0.265625,-0.046875
1629897225906,-0.96875,0.265625,-0.046875
1629897225937,-0.96875,0.25,-0.046875
1629897225968,-0.96875,0.265625,-0.046875
1629897226000,-0.96875,0.25,-0.046875
1629897226031,-0.96875,0.25,-0.046875
1629897226062,-0.96875,0.265625,-0.046875
1629897226093,-0.96875,0.265625,-0.046875
1629897226125,-0.96875,0.25,-0.046875
1629897226156,-0.96875,0.265625,-0.046875
1629897226187,-0.96875,0.25,-0.03125
1629897226218,-0.96875,0.265625,-0.046875
1629897226250,-0.96875,0.265625,-0.046875
1629897226281,-0.96875,0.265625,-0.046875
1629897226312,-0.96875,0.25,-0.046875
1629897226343,-0.96875,0.25,-0.046875
1629897226375,-0.96875,0.265625,-0.046875
1629897226406,-0.96875,0.265625,-0.046875
1629897226437,-0.96875,0.25,-0.046875
1629897226468,-0.96875,0.265625,-0.046875
1629897226500,-0.96875,0.25,-0.046875
1629897226531,-0.96875,0.25,-0.046875
1629897226562,-0.96875,0.265625,-0.046875
1629897226593,-0.96875,0.265625,-0.046875
1629897226625,-0.96875,0.25,-0.046875
1629897226656,-0.96875,0.265625,-0.046875
1629897226687,-0.96875,0.265625,-0.046875
1629897226718,-0.96875,0.265625,-0.046875
1629897226750,-0.96875,0.265625,-0.046875
1629897226781,-0.96875,0.265625,-0.046875
1629897226812,-0.96875,0.265625,-0.046875
1629897226843,-0.96875,0.265625,-0.046875
1629897226875,-0.96875,0.25,-0.046875
1629897226906,-0.96875,0.265625,-0.046875
1629897226937,-0.96875,0.265625,-0.046875
1629897226968,-0.96875,0.265625,-0.046875
1629897227000,-0.96875,0.265625,-0.046875
1629897227031,-0.96875,0.265625,-0.046875
1629897227062,-0.96875,0.265625,-0.046875
1629897227093,-0.96875,0.265625,-0.046875
1629897227125,-0.96875,0.265625,-0.046875
1629897227156,-0.96875,0.265625,-0.046875
1629897227187,-0.96875,0.25,-0.046875
1629897227218,-0.96875,0.265625,-0.046875
1629897227250,-0.96875,0.265625,-0.046875
1629897227281,-0.96875,0.265625,-0.046875
1629897227312,-0.96875,0.265625,-0.046875
1629897227343,-0.96875,0.265625,-0.046875
1629897227375,-0.96875,0.265625,-0.046875
1629897227406,-0.96875,0.265625,-0.046875
1629897227437,-0.96875,0.25,-0.046875
1629897227468,-0.96875,0.265625,-0.046875
1629897227500,-0.96875,0.265625,-0.046875
1629897227531,-0.96875,0.25,-0.046875
1629897227562,-0.96875,0.265625,-0.046875
1629897227593,-0.96875,0.265625,-0.046875
1629897227625,-0.96875,0.25,-0.046875
1629897227656,-0.96875,0.25,-0.046875
1629897227687,-0.96875,0.25,-0.046875
1629897227718,-0.96875,0.265625,-0.046875
1629897227750,-0.96875,0.25,-0.046875
1629897227781,-0.96875,0.25,-0.046875
1629897227812,-0.96875,0.25,-0.046875
1629897227843,-0.96875,0.25,-0.046875
1629897227875,-0.96875,0.265625,-0.046875
1629897227906,-0.96875,0.25,-0.046875
1629897227937,-0.96875,0.25,-0.046875
1629897227968,-0.96875,0.25,-0.046875
1629897228000,-0.96875,0.25,-0.046875
1629897228031,-0.96875,0.25,-0.046875
1629897228062,-0.96875,0.25,-0.046875
1629897228093,-0.96875,0.25,-0.046875
1629897228125,-0.96875,0.25,-0.046875
1629897228156,-0.96875,0.25,-0.046875
1629897228187,-0.96875,0.25,-0.046875
1629897228218,-0.96875,0.25,-0.046875
1629897228250,-0.96875,0.25,-0.046875
1629897228281,-0.96875,0.25,-0.046875
1629897228312,-0.96875,0.265625,-0.046875
1629897228343,-0.96875,0.25,-0.046875
1629897228375,-0.96875,0.25,-0.046875
1629897228406,-0.96875,0.25,-0.046875
1629897228437,-0.96875,0.25,-0.046875
1629897228468,-0.96875,0.25,-0.046875
1629897228500,-0.96875,0.25,-0.046875
1629897228531,-0.96875,0.25,-0.046875
1629897228562,-0.96875,0.25,-0.046875
1629897228593,-0.96875,0.25,-0.046875
1629897228625,-0.96875,0.25,-0.046875
1629897228656,-0.96875,0.25,-0.046875
1629897228687,-0.96875,0.25,-0.046875
1629897228718,-0.96875,0.25,-0.046875
1629897228750,-0.96875,0.25,-0.046875
1629897228781,-0.96875,0.25,-0.046875
1629897228812,-0.96875,0.25,-0.046875
1629897228843,-0.96875,0.25,-0.046875
1629897228875,-0.96875,0.25,-0.046875
1629897228906,-0.96875,0.25,-0.046875
1629897228937,-0.96875,0.25,-0.046875
1629897228968,-0.96875,0.25,-0.046875
1629897229000,-0.96875,0.25,-0.046875
1629897229031,-0.96875,0.25,-0.046875
1629897229062,-0.96875,0.25,-0.046875
1629897229093,-0.96875,0.25,-0.046875
1629897229125,-0.96875,0.25,-0.046875
1629897229156,-0.96875,0.25,-0.046875
1629897229187,-0.96875,0.25,-0.046875
1629897229218,-0.96875,0.25,-0.046875
1629897229250,-0.96875,0.25,-0.046875
1629897229281,-0.96875,0.25,-0.046875
1629897229312,-0.96875,0.25,-0.046875
1629897229343,-0.96875,0.25,-0.046875
1629897229375,-0.96875,0.25,-0.046875
1629897229406,-0.96875,0.25,-0.046875
1629897229437,-0.96875,0.25,-0.046875
1629897229468,-0.96875,0.25,-0.046875
1629897229500,-0.96875,0.25,-0.046875
1629897229531,-0.96875,0.25,-0.046875
1629897229562,-0.96875,0.25,-0.046875
1629897229593,-0.96875,0.25,-0.046875
1629897229625,-0.96875,0.25,-0.046875
1629897229656,-0.96875,0.25,-0.046875
1629897229687,-0.96875,0.25,-0.046875
1629897229718,-0.96875,0.25,-0.046875
1629897229750,-0.96875,0.25,-0.046875
1629897229781,-0.96875,0.25,-0.046875
1629897229812,-0.96875,0.25,-0.046875
1629897229843,-0.96875,0.25,-0.046875
1629897229875,-0.96875,0.25,-0.046875
1629897229906,-0.96875,0.25,-0.046875
1629897229937,-0.96875,0.25,-0.046875
1629897229968,-0.96875,0.25,-0.046875
1629897230000,-0.96875,0.25,-0.046875
1629897230031,-0.96875,0.25,-0.046875
1629897230062,-0.96875,0.25,-0.046875
1629897230093,-0.96875,0.25,-0.046875
1629897230125,-0.96875,0.25,-0.046875
1629897230156,-0.96875,0.25,-0.046875
1629897230187,-0.96875,0.25,-0.046875
1629897230218,-0.96875,0.25,-0.046875
1629897230250,-0.96875,0.25,-0.046875
1629897230281,-0.96875,0.25,-0.046875
1629897230312,-0.96875,0.25,-0.046875
1629897230343,-0.96875,0.25,-0.046875
1629897230375,-0.96875,0.25,-0.046875
1629897230406,-0.96875,0.25,-0.046875
1629897230437,-0.96875,0.25,-0.046875
1629897230468,-0.96875,0.25,-0.046875
1629897230500,-0.96875,0.25,-0.046875
1629897230531,-0.96875,0.25,-0.046875
1629897230562,-0.96875,0.25,-0.046875
1629897230593,-0.96875,0.25,-0.046875
1629897230625,-0.96875,0.25,-0.046875
1629897230656,-0.96875,0.25,-0.046875
1629897230687,-0.96875,0.25,-0.046875
1629897230718,-0.96875,0.25,-0.046875
1629897230750,-0.96875,0.25,-0.046875
1629897230781,-0.96875,0.25,-0.046875
1629897230812,-0.96875,0.25,-0.046875
1629897230843,-0.96875,0.25,-0.046875
1629897230875,-0.96875,0.25,-0.046875
1629897230906,-0.96875,0.25,-0.046875
1629897230937,-0.96875,0.25,-0.046875
1629897230968,-0.96875,0.265625,-0.046875
1629897231000,-0.96875,0.25,-0.046875
1629897231031,-0.96875,0.265625,-0.046875
1629897231062,-0.96875,0.265625,-0.046875
1629897231093,-0.96875,0.25,-0.046875
1629897231125,-0.96875,0.25,-0.046875
1629897231156,-0.96875,0.25,-0.046875
1629897231187,-0.96875,0.25,-0.046875
1629897231218,-0.96875,0.25,-0.046875
1629897231250,-0.96875,0.25,-0.046875
1629897231281,-0.96875,0.25,-0.046875
1629897231312,-0.96875,0.25,-0.046875
1629897231343,-0.96875,0.265625,-0.046875
1629897231375,-0.96875,0.25,-0.046875
1629897231406,-0.96875,0.25,-0.046875
1629897231437,-0.96875,0.265625,-0.046875
1629897231468,-0.96875,0.265625,-0.046875
1629897231500,-0.96875,0.265625,-0.046875
1629897231531,-0.96875,0.265625,-0.046875
1629897231562,-0.96875,0.265625,-0.046875
1629897231593,-0.96875,0.265625,-0.046875
1629897231625,-0.96875,0.25,-0.046875
1629897231656,-0.96875,0.265625,-0.046875
1629897231687,-0.96875,0.265625,-0.046875
1629897231718,-0.96875,0.265625,-0.046875
1629897231750,-0.96875,0.265625,-0.046875
1629897231781,-0.96875,0.265625,-0.046875
1629897231812,-0.96875,0.25,-0.046875
1629897231843,-0.96875,0.265625,-0.046875
1629897231875,-0.96875,0.265625,-0.046875
1629897231906,-0.96875,0.265625,-0.046875
1629897231937,-0.96875,0.25,-0.046875
1629897231968,-0.96875,0.265625,-0.046875
1629897232000,-0.96875,0.265625,-0.046875
1629897232031,-0.96875,0.265625,-0.046875
1629897232062,-0.96875,0.25,-0.046875
1629897232093,-0.96875,0.265625,-0.046875
1629897232125,-0.953125,0.265625,-0.046875
1629897232156,-0.96875,0.265625,-0.046875
1629897232187,-0.96875,0.265625,-0.046875
1629897232218,-0.96875,0.25,-0.046875
1629897232250,-0.96875,0.25,-0.046875
1629897232281,-0.96875,0.25,-0.046875
1629897232312,-0.96875,0.265625,-0.046875
1629897232343,-0.96875,0.265625,-0.046875
1629897232375,-0.96875,0.265625,-0.046875
1629897232406,-0.96875,0.265625,-0.046875
1629897232437,-0.96875,0.25,-0.046875
1629897232468,-0.96875,0.25,-0.046875
1629897232500,-0.96875,0.265625,-0.046875
1629897232531,-0.96875,0.25,-0.046875
1629897232562,-0.96875,0.25,-0.046875
1629897232593,-0.96875,0.265625,-0.046875
1629897232625,-0.96875,0.25,-0.046875
1629897232656,-0.96875,0.265625,-0.046875
1629897232687,-0.96875,0.265625,-0.046875
1629897232718,-0.96875,0.265625,-0.046875
1629897232750,-0.96875,0.25,-0.046875
1629897232781,-0.96875,0.265625,-0.046875
1629897232812,-0.96875,0.25,-0.046875
1629897232843,-0.96875,0.25,-0.046875
1629897232875,-0.96875,0.25,-0.046875
1629897232906,-0.96875,0.25,-0.046875
1629897232937,-0.96875,0.265625,-0.046875
1629897232968,-0.96875,0.25,-0.046875
1629897233000,-0.96875,0.265625,-0.046875
1629897233031,-0.96875,0.265625,-0.046875
1629897233062,-0.96875,0.25,-0.046875
1629897233093,-0.96875,0.25,-0.046875
1629897233125,-0.96875,0.25,-0.046875
1629897233156,-0.96875,0.25,-0.046875
1629897233187,-0.96875,0.25,-0.046875
1629897233218,-0.96875,0.265625,-0.046875
1629897233250,-0.96875,0.25,-0.046875
1629897233281,-0.96875,0.25,-0.046875
1629897233312,-0.96875,0.25,-0.046875
1629897233343,-0.96875,0.25,-0.046875
1629897233375,-0.96875,0.25,-0.046875
1629897233406,-0.96875,0.25,-0.046875
1629897233437,-0.96875,0.25,-0.046875
1629897233468,-0.96875,0.25,-0.046875
1629897233500,-0.96875,0.25,-0.046875
1629897233531,-0.96875,0.25,-0.046875
1629897233562,-0.96875,0.25,-0.046875
1629897233593,-0.96875,0.25,-0.046875
1629897233625,-0.96875,0.25,-0.046875
1629897233656,-0.96875,0.25,-0.046875
1629897233687,-0.96875,0.25,-0.046875
1629897233718,-0.96875,0.25,-0.046875
1629897233750,-0.96875,0.25,-0.046875
1629897233781,-0.96875,0.25,-0.046875
1629897233812,-0.96875,0.25,-0.046875
1629897233843,-0.96875,0.25,-0.046875
1629897233875,-0.96875,0.25,-0.046875
1629897233906,-0.96875,0.25,-0.046875
1629897233937,-0.96875,0.25,-0.046875
1629897233968,-0.96875,0.25,-0.046875
1629897234000,-0.96875,0.25,-0.046875
1629897234031,-0.96875,0.25,-0.046875
1629897234062,-0.96875,0.25,-0.046875
1629897234093,-0.96875,0.25,-0.046875
1629897234125,-0.96875,0.25,-0.046875
1629897234156,-0.96875,0.25,-0.046875
1629897234187,-0.96875,0.25,-0.046875
1629897234218,-0.96875,0.25,-0.046875
1629897234250,-0.96875,0.25,-0.046875
1629897234281,-0.96875,0.25,-0.046875
1629897234312,-0.96875,0.25,-0.046875
1629897234343,-0.96875,0.25,-0.046875
1629897234375,-0.96875,0.25,-0.046875
1629897234406,-0.96875,0.25,-0.046875
1629897234437,-0.96875,0.25,-0.046875
1629897234468,-0.96875,0.25,-0.046875
1629897234500,-0.96875,0.25,-0.046875
1629897234531,-0.96875,0.25,-0.046875
1629897234562,-0.96875,0.25,-0.046875
1629897234593,-0.96875,0.25,-0.046875
1629897234625,-0.96875,0.25,-0.046875
1629897234656,-0.96875,0.25,-0.046875
1629897234687,-0.96875,0.25,-0.046875
1629897234718,-0.96875,0.25,-0.046875
1629897234750,-0.96875,0.25,-0.046875
1629897234781,-0.96875,0.25,-0.046875
1629897234812,-0.96875,0.25,-0.046875
1629897234843,-0.96875,0.25,-0.046875
1629897234875,-0.96875,0.25,-0.046875
1629897234906,-0.96875,0.25,-0.046875
1629897234937,-0.96875,0.25,-0.046875
1629897234968,-0.96875,0.25,-0.046875
1629897235000,-0.96875,0.25,-0.046875
1629897235031,-0.96875,0.25,-0.046875
1629897235062,-0.96875,0.25,-0.046875
1629897235093,-0.96875,0.25,-0.046875
1629897235125,-0.96875,0.25,-0.046875
1629897235156,-0.96875,0.25,-0.046875
1629897235187,-0.96875,0.25,-0.046875
1629897235218,-0.96875,0.25,-0.046875
1629897235250,-0.96875,0.25,-0.046875
1629897235281,-0.96875,0.25,-0.046875
1629897235312,-0.96875,0.25,-0.046875
1629897235343,-0.96875,0.25,-0.046875
1629897235375,-0.96875,0.25,-0.046875
1629897235406,-0.96875,0.25,-0.046875
1629897235437,-0.96875,0.25,-0.046875
1629897235468,-0.96875,0.25,-0.046875
1629897235500,-0.96875,0.25,-0.046875
1629897235531,-0.96875,0.25,-0.046875
1629897235562,-0.96875,0.25,-0.046875
1629897235593,-0.96875,0.25,-0.046875
1629897235625,-0.953125,0.25,-0.046875
1629897235656,-0.96875,0.25,-0.046875
1629897235687,-0.96875,0.25,-0.046875
1629897235718,-0.96875,0.25,-0.046875
1629897235750,-0.96875,0.25,-0.046875
1629897235781,-0.96875,0.25,-0.046875
1629897235812,-0.96875,0.25,-0.046875
1629897235843,-0.96875,0.25,-0.046875
1629897235875,-0.96875,0.25,-0.046875
1629897235906,-0.96875,0.25,-0.046875
1629897235937,-0.96875,0.25,-0.046875
1629897235968,-0.96875,0.25,-0.046875
1629897236000,-0.96875,0.25,-0.046875
1629897236031,-0.96875,0.25,-0.046875
1629897236062,-0.96875,0.25,-0.046875
1629897236093,-0.96875,0.25,-0.046875
1629897236125,-0.96875,0.25,-0.046875
1629897236156,-0.96875,0.25,-0.046875
1629897236187,-0.96875,0.25,-0.046875
1629897236218,-0.96875,0.25,-0.046875
1629897236250,-0.96875,0.25,-0.046875
1629897236281,-0.96875,0.25,-0.046875
1629897236312,-0.96875,0.25,-0.046875
1629897236343,-0.96875,0.25,-0.046875
1629897236375,-0.96875,0.25,-0.046875
1629897236406,-0.96875,0.25,-0.046875
1629897236437,-0.96875,0.25,-0.046875
1629897236468,-0.96875,0.25,-0.046875
1629897236500,-0.96875,0.25,-0.046875
1629897236531,-0.96875,0.25,-0.046875
1629897236562,-0.96875,0.265625,-0.046875
1629897236593,-0.96875,0.25,-0.046875
1629897236625,-0.96875,0.25,-0.046875
1629897236656,-0.96875,0.265625,-0.046875
1629897236687,-0.96875,0.25,-0.046875
1629897236718,-0.96875,0.25,-0.046875
1629897236750,-0.96875,0.25,-0.046875
1629897236781,-0.96875,0.25,-0.046875
1629897236812,-0.96875,0.25,-0.046875
1629897236843,-0.96875,0.25,-0.046875
1629897236875,-0.96875,0.25,-0.046875
1629897236906,-0.96875,0.25,-0.046875
1629897236937,-0.96875,0.25,-0.046875
1629897236968,-0.96875,0.25,-0.046875
1629897237000,-0.96875,0.265625,-0.046875
1629897237031,-0.96875,0.265625,-0.046875
1629897237062,-0.96875,0.265625,-0.046875
1629897237093,-0.96875,0.25,-0.046875
1629897237125,-0.96875,0.25,-0.046875
1629897237156,-0.96875,0.25,-0.046875
1629897237187,-0.96875,0.25,-0.046875
1629897237218,-0.96875,0.25,-0.046875
1629897237250,-0.96875,0.25,-0.046875
1629897237281,-0.96875,0.25,-0.046875
1629897237312,-0.96875,0.25,-0.046875
1629897237343,-0.96875,0.25,-0.046875
1629897237375,-0.96875,0.25,-0.046875
1629897237406,-0.96875,0.25,-0.046875
1629897237437,-0.96875,0.25,-0.046875
1629897237468,-0.96875,0.25,-0.046875
1629897237500,-0.96875,0.25,-0.046875
1629897237531,-0.96875,0.265625,-0.046875
1629897237562,-0.96875,0.25,-0.046875
1629897237593,-0.96875,0.25,-0.046875
1629897237625,-0.96875,0.25,-0.046875
1629897237656,-0.96875,0.25,-0.046875
1629897237687,-0.96875,0.265625,-0.046875
1629897237718,-0.96875,0.25,-0.046875
1629897237750,-0.96875,0.25,-0.046875
1629897237781,-0.96875,0.25,-0.046875
1629897237812,-0.96875,0.25,-0.046875
1629897237843,-0.96875,0.25,-0.046875
1629897237875,-0.96875,0.265625,-0.046875
1629897237906,-0.96875,0.265625,-0.046875
1629897237937,-0.96875,0.25,-0.046875
1629897237968,-0.96875,0.25,-0.046875
1629897238000,-0.96875,0.25,-0.046875
1629897238031,-0.96875,0.25,-0.046875
1629897238062,-0.96875,0.25,-0.046875
1629897238093,-0.96875,0.25,-0.046875
1629897238125,-0.96875,0.25,-0.046875
1629897238156,-0.96875,0.25,-0.046875
1629897238187,-0.96875,0.25,-0.046875
1629897238218,-0.96875,0.25,-0.046875
1629897238250,-0.96875,0.25,-0.046875
1629897238281,-0.96875,0.25,-0.046875
1629897238312,-0.96875,0.25,-0.046875
1629897238343,-0.96875,0.25,-0.046875
1629897238375,-0.96875,0.25,-0.046875
1629897238406,-0.96875,0.25,-0.046875
1629897238437,-0.96875,0.25,-0.046875
1629897238468,-0.96875,0.25,-0.046875
1629897238500,-0.96875,0.25,-0.046875
1629897238531,-0.96875,0.25,-0.046875
1629897238562,-0.96875,0.25,-0.046875
1629897238593,-0.96875,0.25,-0.046875
1629897238625,-0.96875,0.25,-0.046875
1629897238656,-0.96875,0.25,-0.046875
1629897238687,-0.96875,0.25,-0.046875
1629897238718,-0.96875,0.25,-0.046875
1629897238750,-0.96875,0.25,-0.046875
1629897238781,-0.96875,0.25,-0.046875
1629897238812,-0.96875,0.25,-0.046875
1629897238843,-0.96875,0.25,-0.046875
1629897238875,-0.96875,0.25,-0.046875
1629897238906,-0.96875,0.25,-0.046875
1629897238937,-0.96875,0.25,-0.046875
1629897238968,-0.96875,0.25,-0.046875
1629897239000,-0.96875,0.25,-0.046875
1629897239031,-0.96875,0.25,-0.046875
1629897239062,-0.96875,0.25,-0.046875
1629897239093,-0.96875,0.25,-0.046875
1629897239125,-0.96875,0.25,-0.046875
1629897239156,-0.96875,0.25,-0.046875
1629897239187,-0.96875,0.25,-0.046875
1629897239218,-0.96875,0.25,-0.046875
1629897239250,-0.96875,0.25,-0.046875
1629897239281,-0.96875,0.25,-0.046875
1629897239312,-0.96875,0.25,-0.046875
1629897239343,-0.96875,0.25,-0.046875
1629897239375,-0.96875,0.25,-0.046875
1629897239406,-0.96875,0.25,-0.046875
1629897239437,-0.96875,0.25,-0.046875
1629897239468,-0.96875,0.25,-0.046875
1629897239500,-0.96875,0.25,-0.046875
1629897239531,-0.96875,0.25,-0.046875
1629897239562,-0.96875,0.25,-0.046875
1629897239593,-0.96875,0.25,-0.046875
1629897239625,-0.96875,0.25,-0.046875
1629897239656,-0.96875,0.25,-0.046875
1629897239687,-0.96875,0.25,-0.046875
1629897239718,-0.96875,0.25,-0.046875
1629897239750,-0.96875,0.25,-0.046875
1629897239781,-0.96875,0.25,-0.046875
1629897239812,-0.96875,0.25,-0.046875
1629897239843,-0.96875,0.25,-0.046875
1629897239875,-0.96875,0.25,-0.046875
1629897239906,-0.96875,0.25,-0.046875
1629897239937,-0.96875,0.25,-0.046875
1629897239968,-0.96875,0.25,-0.046875
1629897240000,-0.96875,0.25,-0.046875
1629897240031,-0.96875,0.25,-0.046875
1629897240062,-0.96875,0.25,-0.046875
1629897240093,-0.96875,0.25,-0.046875
1629897240125,-0.96875,0.25,-0.046875
1629897240156,-0.96875,0.25,-0.046875
1629897240187,-0.96875,0.25,-0.046875
1629897240218,-0.96875,0.25,-0.046875
1629897240250,-0.96875,0.25,-0.046875
1629897240281,-0.96875,0.25,-0.046875
1629897240312,-0.96875,0.25,-0.046875
1629897240343,-0.96875,0.25,-0.046875
1629897240375,-0.96875,0.25,-0.046875
1629897240406,-0.96875,0.25,-0.046875
1629897240437,-0.96875,0.25,-0.046875
1629897240468,-0.96875,0.25,-0.046875
1629897240500,-0.96875,0.25,-0.046875
1629897240531,-0.96875,0.25,-0.046875
1629897240562,-0.96875,0.25,-0.046875
1629897240593,-0.96875,0.25,-0.046875
1629897240625,-0.96875,0.25,-0.046875
1629897240656,-0.96875,0.25,-0.046875
1629897240687,-0.96875,0.25,-0.046875
1629897240718,-0.96875,0.25,-0.046875
1629897240750,-0.96875,0.25,-0.046875
1629897240781,-0.96875,0.25,-0.046875
1629897240812,-0.96875,0.25,-0.046875
1629897240843,-0.96875,0.25,-0.046875
1629897240875,-0.96875,0.25,-0.046875
1629897240906,-0.96875,0.25,-0.046875
1629897240937,-0.96875,0.25,-0.046875
1629897240968,-0.96875,0.25,-0.046875
1629897241000,-0.96875,0.25,-0.046875
1629897241031,-0.96875,0.25,-0.046875
1629897241062,-0.96875,0.25,-0.046875
1629897241093,-0.96875,0.25,-0.046875
1629897241125,-0.96875,0.25,-0.046875
1629897241156,-0.96875,0.25,-0.046875
1629897241187,-0.96875,0.25,-0.046875
1629897241218,-0.96875,0.25,-0.046875
1629897241250,-0.96875,0.25,-0.046875
1629897241281,-0.96875,0.265625,-0.046875
1629897241312,-0.96875,0.25,-0.046875
1629897241343,-0.96875,0.25,-0.046875
1629897241375,-0.96875,0.25,-0.046875
1629897241406,-0.96875,0.25,-0.046875
1629897241437,-0.96875,0.265625,-0.046875
1629897241468,-0.96875,0.25,-0.046875
1629897241500,-0.96875,0.265625,-0.046875
1629897241531,-0.96875,0.25,-0.046875
1629897241562,-0.96875,0.265625,-0.046875
1629897241593,-0.96875,0.265625,-0.046875
1629897241625,-0.96875,0.25,-0.046875
1629897241656,-0.96875,0.25,-0.046875
1629897241687,-0.96875,0.25,-0.046875
1629897241718,-0.96875,0.265625,-0.046875
1629897241750,-0.96875,0.25,-0.046875
1629897241781,-0.96875,0.265625,-0.046875
1629897241812,-0.96875,0.265625,-0.046875
1629897241843,-0.96875,0.25,-0.046875
1629897241875,-0.96875,0.265625,-0.046875
1629897241906,-0.96875,0.265625,-0.046875
1629897241937,-0.96875,0.25,-0.046875
1629897241968,-0.96875,0.25,-0.046875
1629897242000,-0.96875,0.25,-0.046875
1629897242031,-0.96875,0.25,-0.046875
1629897242062,-0.96875,0.25,-0.046875
1629897242093,-0.96875,0.25,-0.046875
1629897242125,-0.96875,0.25,-0.046875
1629897242156,-0.96875,0.25,-0.046875
1629897242187,-0.96875,0.25,-0.046875
1629897242218,-0.96875,0.25,-0.046875
1629897242250,-0.96875,0.25,-0.046875
1629897242281,-0.96875,0.25,-0.046875
1629897242312,-0.96875,0.25,-0.046875
1629897242343,-0.96875,0.25,-0.046875
1629897242375,-0.96875,0.265625,-0.046875
1629897242406,-0.96875,0.25,-0.046875
1629897242437,-0.96875,0.25,-0.046875
1629897242468,-0.96875,0.25,-0.046875
1629897242500,-0.96875,0.25,-0.046875
1629897242531,-0.96875,0.25,-0.046875
1629897242562,-0.96875,0.25,-0.046875
1629897242593,-0.96875,0.25,-0.046875
1629897242625,-0.96875,0.25,-0.046875
1629897242656,-0.96875,0.25,-0.046875
1629897242687,-0.96875,0.25,-0.046875
1629897242718,-0.96875,0.25,-0.046875
1629897242750,-0.96875,0.25,-0.046875
1629897242781,-0.96875,0.25,-0.046875
1629897242812,-0.96875,0.25,-0.046875
1629897242843,-0.96875,0.25,-0.046875
1629897242875,-0.96875,0.25,-0.046875
1629897242906,-0.96875,0.25,-0.046875
1629897242937,-0.96875,0.25,-0.046875
1629897242968,-0.96875,0.25,-0.046875
1629897243000,-0.96875,0.25,-0.046875
1629897243031,-0.96875,0.25,-0.046875
1629897243062,-0.96875,0.25,-0.046875
1629897243093,-0.96875,0.25,-0.046875
1629897243125,-0.96875,0.25,-0.046875
1629897243156,-0.96875,0.25,-0.046875
1629897243187,-0.96875,0.25,-0.046875
1629897243218,-0.96875,0.25,-0.046875
1629897243250,-0.96875,0.25,-0.046875
1629897243281,-0.96875,0.25,-0.046875
1629897243312,-0.96875,0.25,-0.046875
1629897243343,-0.96875,0.25,-0.046875
1629897243375,-0.96875,0.25,-0.046875
1629897243406,-0.96875,0.25,-0.046875
1629897243437,-0.96875,0.25,-0.046875
1629897243468,-0.96875,0.25,-0.046875
1629897243500,-0.96875,0.25,-0.046875
1629897243531,-0.96875,0.25,-0.046875
1629897243562,-0.96875,0.25,-0.046875
1629897243593,-0.96875,0.25,-0.046875
1629897243625,-0.96875,0.25,-0.046875
1629897243656,-0.96875,0.25,-0.046875
1629897243687,-0.96875,0.25,-0.046875
1629897243718,-0.96875,0.25,-0.046875
1629897243750,-0.96875,0.25,-0.046875
1629897243781,-0.96875,0.25,-0.046875
1629897243812,-0.96875,0.25,-0.046875
1629897243843,-0.96875,0.25,-0.046875
1629897243875,-0.96875,0.25,-0.046875
1629897243906,-0.96875,0.25,-0.046875
1629897243937,-0.96875,0.25,-0.046875
1629897243968,-0.96875,0.25,-0.046875
1629897244000,-0.96875,0.25,-0.046875
1629897244031,-0.96875,0.25,-0.046875
1629897244062,-0.96875,0.25,-0.046875
1629897244093,-0.96875,0.25,-0.046875
1629897244125,-0.96875,0.25,-0.046875
1629897244156,-0.96875,0.25,-0.046875
1629897244187,-0.96875,0.25,-0.046875
1629897244218,-0.96875,0.25,-0.046875
1629897244250,-0.96875,0.25,-0.046875
1629897244281,-0.96875,0.25,-0.046875
1629897244312,-0.96875,0.25,-0.046875
1629897244343,-0.96875,0.25,-0.046875
1629897244375,-0.96875,0.25,-0.046875
1629897244406,-0.96875,0.25,-0.046875
1629897244437,-0.96875,0.25,-0.046875
1629897244468,-0.96875,0.25,-0.046875
1629897244500,-0.96875,0.25,-0.046875
1629897244531,-0.96875,0.25,-0.046875
1629897244562,-0.96875,0.25,-0.046875
1629897244593,-0.96875,0.25,-0.046875
1629897244625,-0.96875,0.25,-0.046875
1629897244656,-0.96875,0.25,-0.046875
1629897244687,-0.96875,0.25,-0.046875
1629897244718,-0.96875,0.25,-0.046875
1629897244750,-0.96875,0.25,-0.046875
1629897244781,-0.96875,0.25,-0.046875
1629897244812,-0.96875,0.25,-0.046875
1629897244843,-0.96875,0.25,-0.046875
1629897244875,-0.96875,0.25,-0.046875
1629897244906,-0.96875,0.25,-0.046875
1629897244937,-0.96875,0.25,-0.046875
1629897244968,-0.96875,0.25,-0.046875
1629897245000,-0.96875,0.25,-0.046875
1629897245031,-0.96875,0.25,-0.046875
1629897245062,-0.96875,0.25,-0.046875
1629897245093,-0.96875,0.25,-0.046875
1629897245125,-0.96875,0.25,-0.046875
1629897245156,-0.96875,0.25,-0.046875
1629897245187,-0.96875,0.25,-0.046875
1629897245218,-0.96875,0.25,-0.046875
1629897245250,-0.96875,0.25,-0.046875
1629897245281,-0.96875,0.25,-0.046875
1629897245312,-0.96875,0.25,-0.046875
1629897245343,-0.96875,0.25,-0.046875
1629897245375,-0.96875,0.25,-0.046875
1629897245406,-0.96875,0.25,-0.046875
1629897245437,-0.96875,0.25,-0.046875
1629897245468,-0.96875,0.25,-0.046875
1629897245500,-0.96875,0.25,-0.046875
1629897245531,-0.96875,0.25,-0.046875
1629897245562,-0.96875,0.25,-0.046875
1629897245593,-0.96875,0.25,-0.046875
1629897245625,-0.96875,0.25,-0.046875
1629897245656,-0.96875,0.25,-0.046875
1629897245687,-0.96875,0.25,-0.046875
1629897245718,-0.96875,0.25,-0.046875
1629897245750,-0.96875,0.25,-0.046875
1629897245781,-0.96875,0.25,-0.046875
1629897245812,-0.96875,0.25,-0.046875
1629897245843,-0.96875,0.25,-0.046875
1629897245875,-0.96875,0.265625,-0.046875
1629897245906,-0.96875,0.25,-0.046875
1629897245937,-0.96875,0.25,-0.046875
1629897245968,-0.96875,0.265625,-0.046875
1629897246000,-0.96875,0.265625,-0.046875
1629897246031,-0.96875,0.25,-0.046875
1629897246062,-0.96875,0.265625,-0.046875
1629897246093,-0.96875,0.265625,-0.046875
1629897246125,-0.96875,0.265625,-0.046875
1629897246156,-0.96875,0.265625,-0.046875
1629897246187,-0.96875,0.25,-0.046875
1629897246218,-0.96875,0.265625,-0.046875
1629897246250,-0.96875,0.265625,-0.046875
1629897246281,-0.96875,0.265625,-0.046875
1629897246312,-0.96875,0.25,-0.046875
1629897246343,-0.96875,0.25,-0.046875
1629897246375,-0.96875,0.25,-0.046875
1629897246406,-0.96875,0.265625,-0.046875
1629897246437,-0.96875,0.25,-0.046875
1629897246468,-0.96875,0.25,-0.046875
1629897246500,-0.96875,0.25,-0.046875
1629897246531,-0.96875,0.25,-0.046875
1629897246562,-0.96875,0.265625,-0.046875
1629897246593,-0.96875,0.265625,-0.046875
1629897246625,-0.96875,0.25,-0.046875
1629897246656,-0.96875,0.25,-0.03125
1629897246687,-0.96875,0.25,-0.046875
1629897246718,-0.96875,0.25,-0.046875
1629897246750,-0.96875,0.25,-0.046875
1629897246781,-0.96875,0.25,-0.046875
1629897246812,-0.96875,0.25,-0.046875
1629897246843,-0.96875,0.25,-0.046875
1629897246875,-0.96875,0.25,-0.046875
1629897246906,-0.96875,0.25,-0.046875
1629897246937,-0.96875,0.265625,-0.046875
1629897246968,-0.96875,0.25,-0.046875
1629897247000,-0.96875,0.25,-0.046875
1629897247031,-0.96875,0.265625,-0.046875
1629897247062,-0.96875,0.25,-0.046875
1629897247093,-0.96875,0.265625,-0.046875
1629897247125,-0.96875,0.25,-0.046875
1629897247156,-0.96875,0.25,-0.046875
1629897247187,-0.96875,0.25,-0.046875
1629897247218,-0.96875,0.25,-0.046875
1629897247250,-0.96875,0.25,-0.046875
1629897247281,-0.96875,0.25,-0.046875
1629897247312,-0.96875,0.25,-0.046875
1629897247343,-0.96875,0.25,-0.046875
1629897247375,-0.96875,0.25,-0.046875
1629897247406,-0.96875,0.25,-0.046875
1629897247437,-0.96875,0.25,-0.046875
1629897247468,-0.96875,0.25,-0.046875
1629897247500,-0.96875,0.25,-0.046875
1629897247531,-0.96875,0.25,-0.046875
1629897247562,-0.96875,0.25,-0.046875
1629897247593,-0.96875,0.25,-0.046875
1629897247625,-0.96875,0.25,-0.046875
1629897247656,-0.96875,0.25,-0.046875
1629897247687,-0.96875,0.25,-0.046875
1629897247718,-0.96875,0.25,-0.046875
1629897247750,-0.96875,0.25,-0.046875
1629897247781,-0.96875,0.25,-0.046875
1629897247812,-0.96875,0.25,-0.046875
1629897247843,-0.96875,0.25,-0.046875
1629897247875,-0.96875,0.25,-0.046875
1629897247906,-0.96875,0.25,-0.046875
1629897247937,-0.96875,0.25,-0.046875
1629897247968,-0.96875,0.25,-0.046875
1629897248000,-0.96875,0.25,-0.046875
1629897248031,-0.96875,0.25,-0.046875
1629897248062,-0.96875,0.25,-0.046875
1629897248093,-0.96875,0.25,-0.046875
1629897248125,-0.96875,0.25,-0.046875
1629897248156,-0.96875,0.25,-0.046875
1629897248187,-0.96875,0.25,-0.046875
1629897248218,-0.96875,0.25,-0.046875
1629897248250,-0.96875,0.25,-0.046875
1629897248281,-0.96875,0.25,-0.046875
1629897248312,-0.96875,0.25,-0.046875
1629897248343,-0.96875,0.25,-0.046875
1629897248375,-0.96875,0.25,-0.046875
1629897248406,-0.96875,0.25,-0.046875
1629897248437,-0.96875,0.25,-0.046875
1629897248468,-0.96875,0.25,-0.046875
1629897248500,-0.96875,0.25,-0.046875
1629897248531,-0.96875,0.25,-0.046875
1629897248562,-0.96875,0.25,-0.046875
1629897248593,-0.96875,0.25,-0.046875
1629897248625,-0.96875,0.25,-0.046875
1629897248656,-0.96875,0.25,-0.046875
1629897248687,-0.96875,0.25,-0.046875
1629897248718,-0.96875,0.25,-0.046875
1629897248750,-0.96875,0.25,-0.046875
1629897248781,-0.96875,0.25,-0.046875
1629897248812,-0.96875,0.25,-0.046875
1629897248843,-0.96875,0.25,-0.046875
1629897248875,-0.96875,0.25,-0.046875
1629897248906,-0.96875,0.25,-0.046875
1629897248937,-0.96875,0.25,-0.046875
1629897248968,-0.96875,0.25,-0.046875
1629897249000,-0.96875,0.25,-0.046875
1629897249031,-0.96875,0.25,-0.046875
1629897249062,-0.96875,0.25,-0.046875
1629897249093,-0.96875,0.25,-0.046875
1629897249125,-0.96875,0.25,-0.046875
1629897249156,-0.96875,0.25,-0.046875
1629897249187,-0.96875,0.25,-0.046875
1629897249218,-0.96875,0.25,-0.046875
1629897249250,-0.96875,0.25,-0.046875
1629897249281,-0.96875,0.25,-0.046875
1629897249312,-0.96875,0.25,-0.046875
1629897249343,-0.96875,0.25,-0.046875
1629897249375,-0.96875,0.25,-0.046875
1629897249406,-0.96875,0.25,-0.046875
1629897249437,-0.96875,0.25,-0.046875
1629897249468,-0.96875,0.25,-0.046875
1629897249500,-0.96875,0.25,-0.046875
1629897249531,-0.96875,0.25,-0.046875
1629897249562,-0.96875,0.25,-0.046875
1629897249593,-0.96875,0.25,-0.046875
1629897249625,-0.96875,0.25,-0.046875
1629897249656,-0.96875,0.25,-0.046875
1629897249687,-0.96875,0.25,-0.046875
1629897249718,-0.96875,0.25,-0.046875
1629897249750,-0.96875,0.25,-0.046875
1629897249781,-0.96875,0.25,-0.046875
1629897249812,-0.96875,0.25,-0.046875
1629897249843,-0.96875,0.25,-0.046875
1629897249875,-0.96875,0.25,-0.046875
1629897249906,-0.96875,0.25,-0.046875
1629897249937,-0.96875,0.25,-0.046875
1629897249968,-0.96875,0.25,-0.046875
1629897250000,-0.96875,0.25,-0.046875
1629897250031,-0.96875,0.25,-0.046875
1629897250062,-0.96875,0.25,-0.046875
1629897250093,-0.96875,0.25,-0.046875
1629897250125,-0.96875,0.25,-0.046875
1629897250156,-0.96875,0.25,-0.046875
1629897250187,-0.96875,0.25,-0.046875
1629897250218,-0.96875,0.25,-0.046875
1629897250250,-0.96875,0.25,-0.046875
1629897250281,-0.96875,0.25,-0.046875
1629897250312,-0.96875,0.25,-0.046875
1629897250343,-0.96875,0.25,-0.046875
1629897250375,-0.96875,0.265625,-0.046875
1629897250406,-0.96875,0.25,-0.046875
1629897250437,-0.96875,0.25,-0.046875
1629897250468,-0.96875,0.25,-0.046875
1629897250500,-0.96875,0.25,-0.046875
1629897250531,-0.96875,0.25,-0.046875
1629897250562,-0.96875,0.25,-0.046875
1629897250593,-0.96875,0.25,-0.046875
1629897250625,-0.96875,0.265625,-0.046875
1629897250656,-0.96875,0.265625,-0.046875
1629897250687,-0.96875,0.25,-0.046875
1629897250718,-0.96875,0.25,-0.046875
1629897250750,-0.96875,0.25,-0.046875
1629897250781,-0.96875,0.25,-0.046875
1629897250812,-0.96875,0.265625,-0.046875
1629897250843,-0.96875,0.25,-0.046875
1629897250875,-0.96875,0.25,-0.046875
1629897250906,-0.96875,0.265625,-0.046875
1629897250937,-0.96875,0.265625,-0.046875
1629897250968,-0.96875,0.265625,-0.046875
1629897251000,-0.96875,0.265625,-0.046875
1629897251031,-0.96875,0.265625,-0.046875
1629897251062,-0.96875,0.25,-0.046875
1629897251093,-0.96875,0.265625,-0.046875
1629897251125,-0.96875,0.265625,-0.046875
1629897251156,-0.96875,0.265625,-0.046875
1629897251187,-0.96875,0.25,-0.046875
1629897251218,-0.96875,0.25,-0.046875
1629897251250,-0.96875,0.25,-0.046875
1629897251281,-0.96875,0.25,-0.046875
1629897251312,-0.96875,0.25,-0.046875
1629897251343,-0.96875,0.25,-0.046875
1629897251375,-0.96875,0.25,-0.046875
1629897251406,-0.96875,0.265625,-0.046875
1629897251437,-0.96875,0.25,-0.046875
1629897251468,-0.96875,0.25,-0.046875
1629897251500,-0.96875,0.25,-0.046875
1629897251531,-0.96875,0.25,-0.046875
1629897251562,-0.96875,0.25,-0.046875
1629897251593,-0.96875,0.25,-0.046875
1629897251625,-0.96875,0.25,-0.046875
1629897251656,-0.96875,0.25,-0.046875
1629897251687,-0.96875,0.25,-0.046875
1629897251718,-0.96875,0.25,-0.046875
1629897251750,-0.96875,0.25,-0.046875
1629897251781,-0.96875,0.25,-0.046875
1629897251812,-0.96875,0.25,-0.046875
1629897251843,-0.96875,0.25,-0.046875
1629897251875,-0.96875,0.25,-0.046875
1629897251906,-0.96875,0.265625,-0.046875
1629897251937,-0.96875,0.25,-0.046875
1629897251968,-0.96875,0.265625,-0.046875
1629897252000,-0.96875,0.25,-0.046875
1629897252031,-0.953125,0.25,-0.046875
1629897252062,-0.96875,0.25,-0.046875
1629897252093,-0.96875,0.25,-0.046875
1629897252125,-0.96875,0.25,-0.046875
1629897252156,-0.96875,0.25,-0.046875
1629897252187,-0.96875,0.25,-0.046875
1629897252218,-0.96875,0.25,-0.046875
1629897252250,-0.96875,0.25,-0.046875
1629897252281,-0.96875,0.25,-0.046875
1629897252312,-0.96875,0.25,-0.046875
1629897252343,-0.96875,0.25,-0.046875
1629897252375,-0.96875,0.25,-0.046875
1629897252406,-0.96875,0.25,-0.046875
1629897252437,-0.96875,0.25,-0.046875
1629897252468,-0.96875,0.25,-0.046875
1629897252500,-0.96875,0.25,-0.046875
1629897252531,-0.96875,0.25,-0.046875
1629897252562,-0.96875,0.25,-0.046875
1629897252593,-0.96875,0.25,-0.046875
1629897252625,-0.96875,0.25,-0.046875
1629897252656,-0.96875,0.25,-0.046875
1629897252687,-0.96875,0.25,-0.046875
1629897252718,-0.96875,0.25,-0.046875
1629897252750,-0.96875,0.25,-0.046875
1629897252781,-0.96875,0.25,-0.046875
1629897252812,-0.96875,0.25,-0.046875
1629897252843,-0.96875,0.25,-0.046875
1629897252875,-0.96875,0.25,-0.046875
1629897252906,-0.96875,0.25,-0.046875
1629897252937,-0.96875,0.25,-0.046875
1629897252968,-0.96875,0.25,-0.046875
1629897253000,-0.96875,0.25,-0.046875
1629897253031,-0.96875,0.25,-0.046875
1629897253062,-0.96875,0.25,-0.046875
1629897253093,-0.96875,0.25,-0.046875
1629897253125,-0.96875,0.25,-0.046875
1629897253156,-0.96875,0.25,-0.046875
1629897253187,-0.96875,0.25,-0.046875
1629897253218,-0.96875,0.25,-0.046875
1629897253250,-0.96875,0.25,-0.046875
1629897253281,-0.96875,0.25,-0.046875
1629897253312,-0.96875,0.25,-0.046875
1629897253343,-0.96875,0.25,-0.046875
1629897253375,-0.96875,0.25,-0.046875
1629897253406,-0.96875,0.25,-0.046875
1629897253437,-0.96875,0.25,-0.046875
1629897253468,-0.96875,0.25,-0.046875
1629897253500,-0.96875,0.25,-0.046875
1629897253531,-0.96875,0.25,-0.046875
1629897253562,-0.96875,0.25,-0.046875
1629897253593,-0.96875,0.25,-0.046875
1629897253625,-0.96875,0.25,-0.046875
1629897253656,-0.96875,0.25,-0.046875
1629897253687,-0.96875,0.25,-0.046875
1629897253718,-0.96875,0.25,-0.046875
1629897253750,-0.96875,0.25,-0.046875
1629897253781,-0.96875,0.25,-0.046875
1629897253812,-0.96875,0.25,-0.046875
1629897253843,-0.96875,0.25,-0.046875
1629897253875,-0.96875,0.25,-0.03125
1629897253906,-0.96875,0.25,-0.046875
1629897253937,-0.96875,0.25,-0.046875
1629897253968,-0.96875,0.25,-0.046875
1629897254000,-0.96875,0.25,-0.046875
1629897254031,-0.96875,0.25,-0.046875
1629897254062,-0.96875,0.25,-0.046875
1629897254093,-0.96875,0.25,-0.046875
1629897254125,-0.96875,0.25,-0.046875
1629897254156,-0.96875,0.25,-0.046875
1629897254187,-0.96875,0.25,-0.046875
1629897254218,-0.96875,0.25,-0.046875
1629897254250,-0.96875,0.25,-0.046875
1629897254281,-0.96875,0.25,-0.046875
1629897254312,-0.96875,0.25,-0.046875
1629897254343,-0.96875,0.25,-0.046875
1629897254375,-0.96875,0.25,-0.046875
1629897254406,-0.96875,0.25,-0.046875
1629897254437,-0.96875,0.25,-0.046875
1629897254468,-0.96875,0.25,-0.046875
1629897254500,-0.96875,0.25,-0.046875
1629897254531,-0.96875,0.25,-0.046875
1629897254562,-0.96875,0.25,-0.046875
1629897254593,-0.96875,0.25,-0.046875
1629897254625,-0.96875,0.25,-0.046875
1629897254656,-0.96875,0.25,-0.046875
1629897254687,-0.96875,0.25,-0.046875
1629897254718,-0.96875,0.25,-0.046875
1629897254750,-0.96875,0.25,-0.03125
1629897254781,-0.96875,0.25,-0.046875
1629897254812,-0.96875,0.25,-0.046875
1629897254843,-0.96875,0.25,-0.046875
1629897254875,-0.96875,0.25,-0.046875
1629897254906,-0.96875,0.25,-0.046875
1629897254937,-0.96875,0.25,-0.046875
1629897254968,-0.96875,0.265625,-0.046875
1629897255000,-0.96875,0.25,-0.046875
1629897255031,-0.96875,0.265625,-0.046875
1629897255062,-0.96875,0.265625,-0.046875
1629897255093,-0.96875,0.265625,-0.046875
1629897255125,-0.96875,0.265625,-0.046875
1629897255156,-0.96875,0.265625,-0.046875
1629897255187,-0.96875,0.25,-0.046875
1629897255218,-0.96875,0.265625,-0.046875
1629897255250,-0.96875,0.265625,-0.046875
1629897255281,-0.96875,0.25,-0.046875
1629897255312,-0.96875,0.25,-0.046875
1629897255343,-0.953125,0.265625,-0.046875
1629897255375,-0.96875,0.25,-0.046875
1629897255406,-0.96875,0.25,-0.046875
1629897255437,-0.96875,0.25,-0.046875
1629897255468,-0.96875,0.265625,-0.046875
1629897255500,-0.96875,0.25,-0.046875
1629897255531,-0.96875,0.265625,-0.046875
1629897255562,-0.96875,0.25,-0.046875
1629897255593,-0.96875,0.25,-0.046875
1629897255625,-0.96875,0.25,-0.046875
1629897255656,-0.96875,0.25,-0.046875
1629897255687,-0.96875,0.25,-0.046875
1629897255718,-0.96875,0.265625,-0.046875
1629897255750,-0.96875,0.25,-0.046875
1629897255781,-0.96875,0.25,-0.046875
1629897255812,-0.96875,0.25,-0.046875
1629897255843,-0.96875,0.265625,-0.046875
1629897255875,-0.96875,0.25,-0.046875
1629897255906,-0.96875,0.25,-0.046875
1629897255937,-0.96875,0.25,-0.046875
1629897255968,-0.96875,0.25,-0.046875
1629897256000,-0.96875,0.25,-0.046875
1629897256031,-0.96875,0.265625,-0.046875
1629897256062,-0.96875,0.25,-0.046875
1629897256093,-0.96875,0.25,-0.046875
1629897256125,-0.96875,0.25,-0.046875
1629897256156,-0.96875,0.25,-0.046875
1629897256187,-0.96875,0.25,-0.046875
1629897256218,-0.96875,0.25,-0.046875
1629897256250,-0.96875,0.25,-0.046875
1629897256281,-0.96875,0.25,-0.03125
1629897256312,-0.96875,0.25,-0.046875
1629897256343,-0.96875,0.25,-0.046875
1629897256375,-0.96875,0.25,-0.046875
1629897256406,-0.96875,0.25,-0.046875
1629897256437,-0.96875,0.25,-0.046875
1629897256468,-0.96875,0.25,-0.046875
1629897256500,-0.96875,0.25,-0.046875
1629897256531,-0.96875,0.25,-0.046875
1629897256562,-0.96875,0.25,-0.046875
1629897256593,-0.96875,0.25,-0.046875
1629897256625,-0.96875,0.25,-0.046875
1629897256656,-0.96875,0.25,-0.046875
1629897256687,-0.96875,0.25,-0.046875
1629897256718,-0.96875,0.25,-0.046875
1629897256750,-0.96875,0.25,-0.046875
1629897256781,-0.96875,0.25,-0.046875
1629897256812,-0.96875,0.25,-0.046875
1629897256843,-0.96875,0.25,-0.046875
1629897256875,-0.96875,0.25,-0.046875
1629897256906,-0.96875,0.25,-0.046875
1629897256937,-0.96875,0.25,-0.046875
1629897256968,-0.96875,0.25,-0.046875
1629897257000,-0.96875,0.25,-0.046875
1629897257031,-0.96875,0.25,-0.046875
1629897257062,-0.96875,0.25,-0.046875
1629897257093,-0.96875,0.25,-0.046875
1629897257125,-0.96875,0.25,-0.046875
1629897257156,-0.96875,0.25,-0.046875
1629897257187,-0.96875,0.25,-0.046875
1629897257218,-0.96875,0.25,-0.046875
1629897257250,-0.96875,0.25,-0.046875
1629897257281,-0.96875,0.25,-0.046875
1629897257312,-0.96875,0.25,-0.046875
1629897257343,-0.96875,0.25,-0.046875
1629897257375,-0.96875,0.25,-0.046875
1629897257406,-0.96875,0.25,-0.046875
1629897257437,-0.96875,0.25,-0.046875
1629897257468,-0.96875,0.25,-0.046875
1629897257500,-0.96875,0.25,-0.046875
1629897257531,-0.96875,0.25,-0.046875
1629897257562,-0.96875,0.25,-0.046875
1629897257593,-0.96875,0.25,-0.046875
1629897257625,-0.96875,0.25,-0.046875
1629897257656,-0.96875,0.25,-0.046875
1629897257687,-0.96875,0.25,-0.046875
1629897257718,-0.96875,0.25,-0.046875
1629897257750,-0.96875,0.25,-0.03125
1629897257781,-0.96875,0.25,-0.046875
1629897257812,-0.96875,0.25,-0.046875
1629897257843,-0.96875,0.25,-0.046875
1629897257875,-0.96875,0.25,-0.046875
1629897257906,-0.96875,0.25,-0.046875
1629897257937,-0.96875,0.25,-0.046875
1629897257968,-0.96875,0.25,-0.046875
1629897258000,-0.96875,0.25,-0.046875
1629897258031,-0.96875,0.25,-0.046875
1629897258062,-0.96875,0.25,-0.046875
1629897258093,-0.96875,0.25,-0.046875
1629897258125,-0.96875,0.25,-0.046875
1629897258156,-0.96875,0.25,-0.046875
1629897258187,-0.96875,0.25,-0.046875
1629897258218,-0.96875,0.25,-0.046875
1629897258250,-0.96875,0.25,-0.046875
1629897258281,-0.96875,0.25,-0.046875
1629897258312,-0.96875,0.25,-0.046875
1629897258343,-0.96875,0.25,-0.046875
1629897258375,-0.96875,0.25,-0.046875
1629897258406,-0.96875,0.25,-0.046875
1629897258437,-0.96875,0.25,-0.046875
1629897258468,-0.96875,0.25,-0.046875
1629897258500,-0.96875,0.25,-0.046875
1629897258531,-0.96875,0.25,-0.046875
1629897258562,-0.96875,0.25,-0.046875
1629897258593,-0.96875,0.25,-0.046875
1629897258625,-0.96875,0.25,-0.046875
1629897258656,-0.96875,0.25,-0.046875
1629897258687,-0.96875,0.25,-0.046875
1629897258718,-0.96875,0.25,-0.046875
1629897258750,-0.96875,0.25,-0.046875
1629897258781,-0.96875,0.25,-0.03125
1629897258812,-0.96875,0.25,-0.046875
1629897258843,-0.96875,0.25,-0.046875
1629897258875,-0.96875,0.25,-0.046875
1629897258906,-0.96875,0.25,-0.046875
1629897258937,-0.96875,0.25,-0.046875
1629897258968,-0.96875,0.25,-0.046875
1629897259000,-0.96875,0.25,-0.046875
1629897259031,-0.96875,0.25,-0.046875
1629897259062,-0.96875,0.25,-0.046875
1629897259093,-0.96875,0.265625,-0.046875
1629897259125,-0.96875,0.25,-0.046875
1629897259156,-0.96875,0.25,-0.046875
1629897259187,-0.96875,0.25,-0.046875
1629897259218,-0.96875,0.25,-0.046875
1629897259250,-0.96875,0.25,-0.046875
1629897259281,-0.96875,0.25,-0.046875
1629897259312,-0.96875,0.265625,-0.046875
1629897259343,-0.96875,0.25,-0.046875
1629897259375,-0.96875,0.25,-0.046875
1629897259406,-0.96875,0.25,-0.046875
1629897259437,-0.96875,0.25,-0.046875
1629897259468,-0.96875,0.265625,-0.046875
1629897259500,-0.96875,0.25,-0.046875
1629897259531,-0.96875,0.265625,-0.046875
1629897259562,-0.96875,0.25,-0.046875
1629897259593,-0.96875,0.265625,-0.046875
1629897259625,-0.96875,0.265625,-0.046875
1629897259656,-0.96875,0.25,-0.046875
1629897259687,-0.96875,0.25,-0.046875
1629897259718,-0.96875,0.25,-0.046875
1629897259750,-0.96875,0.265625,-0.046875
1629897259781,-0.96875,0.265625,-0.046875
1629897259812,-0.96875,0.265625,-0.046875
1629897259843,-0.96875,0.265625,-0.046875
1629897259875,-0.96875,0.265625,-0.046875
1629897259906,-0.96875,0.265625,-0.046875
1629897259937,-0.96875,0.265625,-0.046875
1629897259968,-0.96875,0.25,-0.046875
1629897260000,-0.96875,0.25,-0.046875
1629897260031,-0.96875,0.25,-0.046875
1629897260062,-0.96875,0.265625,-0.046875
1629897260093,-0.96875,0.25,-0.03125
1629897260125,-0.96875,0.25,-0.046875
1629897260156,-0.96875,0.25,-0.046875
1629897260187,-0.96875,0.25,-0.046875
1629897260218,-0.96875,0.25,-0.046875
1629897260250,-0.96875,0.25,-0.046875
1629897260281,-0.96875,0.25,-0.046875
1629897260312,-0.96875,0.25,-0.046875
1629897260343,-0.96875,0.25,-0.03125
1629897260375,-0.96875,0.25,-0.046875
1629897260406,-0.96875,0.25,-0.046875
1629897260437,-0.96875,0.25,-0.046875
1629897260468,-0.96875,0.25,-0.046875
1629897260500,-0.96875,0.25,-0.046875
1629897260531,-0.96875,0.25,-0.046875
1629897260562,-0.96875,0.25,-0.046875
1629897260593,-0.96875,0.25,-0.046875
1629897260625,-0.96875,0.25,-0.046875
1629897260656,-0.96875,0.25,-0.046875
1629897260687,-0.96875,0.25,-0.046875
1629897260718,-0.96875,0.25,-0.046875
1629897260750,-0.96875,0.25,-0.046875
1629897260781,-0.96875,0.25,-0.046875
1629897260812,-0.96875,0.25,-0.046875
1629897260843,-0.96875,0.25,-0.046875
1629897260875,-0.96875,0.25,-0.046875
1629897260906,-0.96875,0.25,-0.046875
1629897260937,-0.96875,0.25,-0.046875
1629897260968,-0.96875,0.25,-0.046875
1629897261000,-0.96875,0.25,-0.046875
1629897261031,-0.96875,0.25,-0.046875
1629897261062,-0.96875,0.25,-0.046875
1629897261093,-0.96875,0.25,-0.046875
1629897261125,-0.96875,0.25,-0.046875
1629897261156,-0.96875,0.25,-0.046875
1629897261187,-0.96875,0.25,-0.046875
1629897261218,-0.96875,0.25,-0.046875
1629897261250,-0.96875,0.25,-0.046875
1629897261281,-0.96875,0.25,-0.046875
1629897261312,-0.96875,0.25,-0.046875
1629897261343,-0.96875,0.25,-0.046875
1629897261375,-0.96875,0.25,-0.046875
1629897261406,-0.96875,0.25,-0.046875
1629897261437,-0.96875,0.25,-0.046875
1629897261468,-0.96875,0.25,-0.046875
1629897261500,-0.96875,0.25,-0.046875
1629897261531,-0.96875,0.25,-0.046875
1629897261562,-0.96875,0.25,-0.046875
1629897261593,-0.96875,0.25,-0.046875
1629897261625,-0.96875,0.25,-0.046875
1629897261656,-0.96875,0.25,-0.046875
1629897261687,-0.96875,0.25,-0.046875
1629897261718,-0.96875,0.25,-0.046875
1629897261750,-0.96875,0.25,-0.046875
1629897261781,-0.96875,0.25,-0.046875
1629897261812,-0.96875,0.25,-0.046875
1629897261843,-0.96875,0.25,-0.046875
1629897261875,-0.96875,0.25,-0.046875
1629897261906,-0.96875,0.25,-0.046875
1629897261937,-0.96875,0.25,-0.046875
1629897261968,-0.96875,0.25,-0.046875
1629897262000,-0.96875,0.25,-0.046875
1629897262031,-0.96875,0.25,-0.046875
1629897262062,-0.96875,0.25,-0.046875
1629897262093,-0.96875,0.25,-0.046875
1629897262125,-0.96875,0.25,-0.046875
1629897262156,-0.96875,0.25,-0.046875
1629897262187,-0.96875,0.25,-0.046875
1629897262218,-0.96875,0.25,-0.046875
1629897262250,-0.96875,0.25,-0.046875
1629897262281,-0.96875,0.25,-0.046875
1629897262312,-0.96875,0.25,-0.046875
1629897262343,-0.96875,0.25,-0.046875
1629897262375,-0.96875,0.25,-0.046875
1629897262406,-0.96875,0.25,-0.046875
1629897262437,-0.96875,0.25,-0.046875
1629897262468,-0.96875,0.25,-0.046875
1629897262500,-0.96875,0.25,-0.046875
1629897262531,-0.96875,0.25,-0.046875
1629897262562,-0.96875,0.25,-0.046875
1629897262593,-0.96875,0.25,-0.046875
1629897262625,-0.96875,0.25,-0.046875
1629897262656,-0.96875,0.25,-0.046875
1629897262687,-0.96875,0.25,-0.046875
1629897262718,-0.96875,0.25,-0.046875
1629897262750,-0.96875,0.25,-0.046875
1629897262781,-0.96875,0.25,-0.046875
1629897262812,-0.96875,0.25,-0.046875
1629897262843,-0.96875,0.25,-0.046875
1629897262875,-0.96875,0.25,-0.046875
1629897262906,-0.96875,0.25,-0.046875
1629897262937,-0.96875,0.25,-0.046875
1629897262968,-0.96875,0.25,-0.046875
1629897263000,-0.96875,0.25,-0.046875
1629897263031,-0.96875,0.25,-0.046875
1629897263062,-0.96875,0.25,-0.046875
1629897263093,-0.96875,0.25,-0.046875
1629897263125,-0.96875,0.25,-0.046875
1629897263156,-0.96875,0.25,-0.046875
1629897263187,-0.96875,0.25,-0.046875
1629897263218,-0.96875,0.25,-0.046875
1629897263250,-0.96875,0.25,-0.046875
1629897263281,-0.96875,0.25,-0.046875
1629897263312,-0.96875,0.25,-0.046875
1629897263343,-0.96875,0.25,-0.046875
1629897263375,-0.96875,0.25,-0.046875
1629897263406,-0.96875,0.25,-0.046875
1629897263437,-0.96875,0.25,-0.046875
1629897263468,-0.96875,0.25,-0.046875
1629897263500,-0.96875,0.25,-0.046875
1629897263531,-0.96875,0.25,-0.046875
1629897263562,-0.96875,0.25,-0.046875
1629897263593,-0.96875,0.25,-0.046875
1629897263625,-0.96875,0.265625,-0.046875
1629897263656,-0.96875,0.265625,-0.046875
1629897263687,-0.96875,0.25,-0.046875
1629897263718,-0.96875,0.25,-0.046875
1629897263750,-0.96875,0.25,-0.046875
1629897263781,-0.96875,0.25,-0.046875
1629897263812,-0.96875,0.265625,-0.046875
1629897263843,-0.96875,0.265625,-0.046875
1629897263875,-0.96875,0.265625,-0.046875
1629897263906,-0.96875,0.265625,-0.046875
1629897263937,-0.96875,0.265625,-0.046875
1629897263968,-0.96875,0.25,-0.046875
1629897264000,-0.96875,0.25,-0.046875
1629897264031,-0.96875,0.25,-0.046875
1629897264062,-0.96875,0.25,-0.046875
1629897264093,-0.96875,0.25,-0.046875
1629897264125,-0.96875,0.25,-0.046875
1629897264156,-0.96875,0.25,-0.046875
1629897264187,-0.96875,0.25,-0.046875
1629897264218,-0.96875,0.25,-0.046875
1629897264250,-0.96875,0.25,-0.046875
1629897264281,-0.96875,0.25,-0.046875
1629897264312,-0.96875,0.25,-0.046875
1629897264343,-0.96875,0.25,-0.046875
1629897264375,-0.96875,0.25,-0.046875
1629897264406,-0.96875,0.265625,-0.046875
1629897264437,-0.96875,0.25,-0.046875
1629897264468,-0.96875,0.25,-0.046875
1629897264500,-0.96875,0.25,-0.03125
1629897264531,-0.96875,0.25,-0.046875
1629897264562,-0.96875,0.25,-0.046875
1629897264593,-0.96875,0.25,-0.046875
1629897264625,-0.96875,0.265625,-0.046875
1629897264656,-0.96875,0.25,-0.046875
1629897264687,-0.96875,0.25,-0.046875
1629897264718,-0.96875,0.25,-0.046875
1629897264750,-0.96875,0.25,-0.046875
1629897264781,-0.96875,0.25,-0.046875
1629897264812,-0.96875,0.25,-0.046875
1629897264843,-0.96875,0.25,-0.046875
1629897264875,-0.96875,0.25,-0.046875
1629897264906,-0.96875,0.25,-0.046875
1629897264937,-0.96875,0.25,-0.046875
1629897264968,-0.96875,0.25,-0.046875
1629897265000,-0.96875,0.25,-0.046875
1629897265031,-0.96875,0.25,-0.046875
1629897265062,-0.96875,0.25,-0.046875
1629897265093,-0.96875,0.25,-0.046875
1629897265125,-0.96875,0.25,-0.046875
1629897265156,-0.96875,0.25,-0.046875
1629897265187,-0.96875,0.25,-0.046875
1629897265218,-0.96875,0.25,-0.046875
1629897265250,-0.96875,0.25,-0.046875
1629897265281,-0.96875,0.25,-0.046875
1629897265312,-0.96875,0.25,-0.046875
1629897265343,-0.96875,0.25,-0.046875
1629897265375,-0.96875,0.25,-0.046875
1629897265406,-0.96875,0.25,-0.046875
1629897265437,-0.96875,0.25,-0.046875
1629897265468,-0.96875,0.25,-0.046875
1629897265500,-0.96875,0.25,-0.046875
1629897265531,-0.96875,0.25,-0.046875
1629897265562,-0.96875,0.25,-0.046875
1629897265593,-0.96875,0.25,-0.046875
1629897265625,-0.96875,0.25,-0.046875
1629897265656,-0.96875,0.25,-0.046875
1629897265687,-0.96875,0.25,-0.046875
1629897265718,-0.96875,0.25,-0.046875
1629897265750,-0.96875,0.25,-0.046875
1629897265781,-0.96875,0.25,-0.046875
1629897265812,-0.96875,0.25,-0.046875
1629897265843,-0.96875,0.25,-0.046875
1629897265875,-0.96875,0.25,-0.046875
1629897265906,-0.96875,0.25,-0.046875
1629897265937,-0.96875,0.25,-0.046875
1629897265968,-0.96875,0.25,-0.046875
1629897266000,-0.96875,0.25,-0.046875
1629897266031,-0.96875,0.25,-0.046875
1629897266062,-0.96875,0.25,-0.046875
1629897266093,-0.96875,0.25,-0.046875
1629897266125,-0.96875,0.25,-0.046875
1629897266156,-0.96875,0.25,-0.046875
1629897266187,-0.96875,0.25,-0.046875
1629897266218,-0.96875,0.25,-0.046875
1629897266250,-0.96875,0.25,-0.046875
1629897266281,-0.96875,0.25,-0.046875
1629897266312,-0.96875,0.25,-0.046875
1629897266343,-0.96875,0.25,-0.046875
1629897266375,-0.96875,0.25,-0.046875
1629897266406,-0.96875,0.25,-0.046875
1629897266437,-0.96875,0.25,-0.046875
1629897266468,-0.96875,0.25,-0.046875
1629897266500,-0.96875,0.25,-0.046875
1629897266531,-0.96875,0.25,-0.046875
1629897266562,-0.96875,0.25,-0.046875
1629897266593,-0.96875,0.25,-0.046875
1629897266625,-0.96875,0.25,-0.046875
1629897266656,-0.96875,0.25,-0.046875
1629897266687,-0.96875,0.25,-0.046875
1629897266718,-0.96875,0.25,-0.046875
1629897266750,-0.96875,0.25,-0.046875
1629897266781,-0.96875,0.25,-0.046875
1629897266812,-0.96875,0.25,-0.046875
1629897266843,-0.96875,0.25,-0.046875
1629897266875,-0.96875,0.25,-0.046875
1629897266906,-0.96875,0.25,-0.046875
1629897266937,-0.96875,0.25,-0.046875
1629897266968,-0.96875,0.25,-0.046875
1629897267000,-0.96875,0.25,-0.046875
1629897267031,-0.96875,0.25,-0.046875
1629897267062,-0.96875,0.25,-0.046875
1629897267093,-0.96875,0.25,-0.046875
1629897267125,-0.96875,0.25,-0.046875
1629897267156,-0.96875,0.25,-0.046875
1629897267187,-0.96875,0.25,-0.046875
1629897267218,-0.96875,0.25,-0.046875
1629897267250,-0.96875,0.25,-0.046875
1629897267281,-0.96875,0.25,-0.046875
1629897267312,-0.96875,0.25,-0.046875
1629897267343,-0.96875,0.25,-0.046875
1629897267375,-0.96875,0.25,-0.046875
1629897267406,-0.96875,0.25,-0.046875
1629897267437,-0.96875,0.25,-0.046875
1629897267468,-0.96875,0.25,-0.046875
1629897267500,-0.96875,0.25,-0.046875
1629897267531,-0.96875,0.25,-0.046875
1629897267562,-0.96875,0.25,-0.046875
1629897267593,-0.96875,0.25,-0.046875
1629897267625,-0.96875,0.25,-0.046875
1629897267656,-0.96875,0.25,-0.046875
1629897267687,-0.96875,0.25,-0.046875
1629897267718,-0.96875,0.25,-0.046875
1629897267750,-0.96875,0.25,-0.046875
1629897267781,-0.96875,0.25,-0.046875
1629897267812,-0.96875,0.25,-0.046875
1629897267843,-0.96875,0.25,-0.046875
1629897267875,-0.96875,0.25,-0.046875
1629897267906,-0.96875,0.25,-0.046875
1629897267937,-0.96875,0.25,-0.046875
1629897267968,-0.96875,0.25,-0.046875
1629897268000,-0.96875,0.25,-0.046875
1629897268031,-0.96875,0.25,-0.046875
1629897268062,-0.96875,0.25,-0.046875
1629897268093,-0.96875,0.25,-0.046875
1629897268125,-0.96875,0.25,-0.046875
1629897268156,-0.96875,0.25,-0.046875
1629897268187,-0.96875,0.25,-0.046875
1629897268218,-0.96875,0.25,-0.046875
1629897268250,-0.96875,0.265625,-0.046875
1629897268281,-0.96875,0.25,-0.046875
1629897268312,-0.96875,0.25,-0.046875
1629897268343,-0.96875,0.25,-0.046875
1629897268375,-0.96875,0.25,-0.046875
1629897268406,-0.96875,0.25,-0.046875
1629897268437,-0.96875,0.25,-0.046875
1629897268468,-0.96875,0.25,-0.046875
1629897268500,-0.96875,0.25,-0.046875
1629897268531,-0.96875,0.265625,-0.046875
1629897268562,-0.96875,0.25,-0.046875
1629897268593,-0.96875,0.25,-0.046875
1629897268625,-0.96875,0.25,-0.046875
1629897268656,-0.96875,0.265625,-0.046875
1629897268687,-0.96875,0.25,-0.046875
1629897268718,-0.96875,0.25,-0.046875
1629897268750,-0.96875,0.25,-0.046875
1629897268781,-0.96875,0.25,-0.046875
1629897268812,-0.96875,0.265625,-0.046875
1629897268843,-0.96875,0.265625,-0.046875
1629897268875,-0.96875,0.265625,-0.046875
1629897268906,-0.96875,0.265625,-0.046875
1629897268937,-0.96875,0.265625,-0.046875
1629897268968,-0.96875,0.265625,-0.046875
1629897269000,-0.96875,0.265625,-0.046875
1629897269031,-0.96875,0.265625,-0.046875
1629897269062,-0.96875,0.25,-0.046875
1629897269093,-0.96875,0.25,-0.046875
1629897269125,-0.96875,0.25,-0.046875
1629897269156,-0.96875,0.265625,-0.046875
1629897269187,-0.96875,0.25,-0.046875
1629897269218,-0.96875,0.25,-0.046875
1629897269250,-0.96875,0.25,-0.046875
1629897269281,-0.96875,0.25,-0.046875
1629897269312,-0.96875,0.265625,-0.046875
1629897269343,-0.96875,0.265625,-0.046875
1629897269375,-0.96875,0.25,-0.046875
1629897269406,-0.96875,0.25,-0.046875
1629897269437,-0.96875,0.25,-0.046875
1629897269468,-0.96875,0.25,-0.046875
1629897269500,-0.96875,0.25,-0.046875
1629897269531,-0.96875,0.25,-0.046875
1629897269562,-0.96875,0.25,-0.046875
1629897269593,-0.96875,0.25,-0.046875
1629897269625,-0.96875,0.265625,-0.046875
1629897269656,-0.96875,0.265625,-0.046875
1629897269687,-0.96875,0.25,-0.046875
1629897269718,-0.96875,0.25,-0.046875
1629897269750,-0.96875,0.25,-0.046875
1629897269781,-0.96875,0.265625,-0.046875
1629897269812,-0.96875,0.25,-0.046875
1629897269843,-0.96875,0.25,-0.046875
1629897269875,-0.96875,0.25,-0.046875
1629897269906,-0.96875,0.25,-0.046875
1629897269937,-0.96875,0.25,-0.046875
1629897269968,-0.96875,0.25,-0.046875
1629897270000,-0.96875,0.25,-0.046875
1629897270031,-0.96875,0.25,-0.046875
1629897270062,-0.96875,0.25,-0.046875
1629897270093,-0.96875,0.25,-0.046875
1629897270125,-0.96875,0.25,-0.046875
1629897270156,-0.96875,0.25,-0.046875
1629897270187,-0.96875,0.25,-0.046875
1629897270218,-0.96875,0.25,-0.046875
1629897270250,-0.96875,0.25,-0.046875
1629897270281,-0.96875,0.25,-0.046875
1629897270312,-0.96875,0.25,-0.046875
1629897270343,-0.96875,0.25,-0.046875
1629897270375,-0.96875,0.25,-0.046875
1629897270406,-0.96875,0.25,-0.046875
1629897270437,-0.96875,0.25,-0.046875
1629897270468,-0.96875,0.25,-0.046875
1629897270500,-0.96875,0.25,-0.046875
1629897270531,-0.96875,0.25,-0.046875
1629897270562,-0.96875,0.25,-0.046875
1629897270593,-0.96875,0.25,-0.046875
1629897270625,-0.96875,0.25,-0.046875
1629897270656,-0.96875,0.25,-0.046875
1629897270687,-0.96875,0.25,-0.046875
1629897270718,-0.96875,0.25,-0.046875
1629897270750,-0.96875,0.25,-0.046875
1629897270781,-0.96875,0.25,-0.046875
1629897270812,-0.96875,0.25,-0.046875
1629897270843,-0.96875,0.25,-0.046875
1629897270875,-0.96875,0.25,-0.046875
1629897270906,-0.96875,0.25,-0.046875
1629897270937,-0.96875,0.25,-0.046875
1629897270968,-0.96875,0.25,-0.046875
1629897271000,-0.96875,0.25,-0.046875
1629897271031,-0.96875,0.25,-0.046875
1629897271062,-0.96875,0.25,-0.046875
1629897271093,-0.96875,0.25,-0.046875
1629897271125,-0.96875,0.25,-0.046875
1629897271156,-0.96875,0.25,-0.046875
1629897271187,-0.96875,0.25,-0.046875
1629897271218,-0.96875,0.25,-0.046875
1629897271250,-0.96875,0.25,-0.046875
1629897271281,-0.96875,0.25,-0.046875
1629897271312,-0.96875,0.25,-0.046875
1629897271343,-0.96875,0.25,-0.046875
1629897271375,-0.96875,0.25,-0.046875
1629897271406,-0.96875,0.25,-0.046875
1629897271437,-0.96875,0.25,-0.046875
1629897271468,-0.96875,0.25,-0.046875
1629897271500,-0.96875,0.25,-0.046875
1629897271531,-0.96875,0.25,-0.046875
1629897271562,-0.96875,0.25,-0.046875
1629897271593,-0.96875,0.25,-0.046875
1629897271625,-0.96875,0.25,-0.046875
1629897271656,-0.96875,0.25,-0.046875
1629897271687,-0.96875,0.25,-0.046875
1629897271718,-0.96875,0.25,-0.046875
1629897271750,-0.96875,0.25,-0.046875
1629897271781,-0.96875,0.25,-0.046875
1629897271812,-0.96875,0.25,-0.046875
1629897271843,-0.96875,0.25,-0.046875
1629897271875,-0.96875,0.25,-0.046875
1629897271906,-0.96875,0.25,-0.046875
1629897271937,-0.96875,0.25,-0.046875
1629897271968,-0.96875,0.25,-0.046875
1629897272000,-0.96875,0.25,-0.046875
1629897272031,-0.96875,0.25,-0.046875
1629897272062,-0.96875,0.25,-0.046875
1629897272093,-0.96875,0.25,-0.046875
1629897272125,-0.96875,0.25,-0.046875
1629897272156,-0.96875,0.25,-0.046875
1629897272187,-0.96875,0.25,-0.046875
1629897272218,-0.96875,0.25,-0.046875
1629897272250,-0.96875,0.25,-0.046875
1629897272281,-0.96875,0.25,-0.046875
1629897272312,-0.96875,0.25,-0.046875
1629897272343,-0.96875,0.25,-0.046875
1629897272375,-0.96875,0.25,-0.046875
1629897272406,-0.96875,0.25,-0.046875
1629897272437,-0.96875,0.25,-0.046875
1629897272468,-0.96875,0.25,-0.046875
1629897272500,-0.96875,0.25,-0.046875
1629897272531,-0.96875,0.25,-0.046875
1629897272562,-0.96875,0.25,-0.046875
1629897272593,-0.96875,0.25,-0.046875
1629897272625,-0.96875,0.25,-0.046875
1629897272656,-0.96875,0.25,-0.046875
1629897272687,-0.96875,0.25,-0.046875
1629897272718,-0.96875,0.25,-0.046875
1629897272750,-0.96875,0.25,-0.046875
1629897272781,-0.96875,0.25,-0.046875
1629897272812,-0.96875,0.25,-0.046875
1629897272843,-0.96875,0.25,-0.046875
1629897272875,-0.96875,0.25,-0.046875
1629897272906,-0.96875,0.25,-0.046875
1629897272937,-0.96875,0.25,-0.046875
1629897272968,-0.96875,0.265625,-0.046875
1629897273000,-0.96875,0.265625,-0.046875
1629897273031,-0.96875,0.25,-0.046875
1629897273062,-0.96875,0.265625,-0.046875
1629897273093,-0.96875,0.265625,-0.046875
1629897273125,-0.96875,0.25,-0.046875
1629897273156,-0.96875,0.25,-0.046875
1629897273187,-0.96875,0.25,-0.046875
1629897273218,-0.96875,0.25,-0.046875
1629897273250,-0.96875,0.25,-0.046875
1629897273281,-0.96875,0.25,-0.046875
1629897273312,-0.96875,0.25,-0.046875
1629897273343,-0.96875,0.265625,-0.046875
1629897273375,-0.96875,0.265625,-0.046875
1629897273406,-0.96875,0.25,-0.046875
1629897273437,-0.96875,0.25,-0.046875
1629897273468,-0.96875,0.265625,-0.046875
1629897273500,-0.96875,0.25,-0.046875
1629897273531,-0.96875,0.265625,-0.046875
1629897273562,-0.96875,0.265625,-0.046875
1629897273593,-0.96875,0.25,-0.046875
1629897273625,-0.96875,0.25,-0.046875
1629897273656,-0.96875,0.265625,-0.046875
1629897273687,-0.96875,0.25,-0.046875
1629897273718,-0.96875,0.265625,-0.046875
1629897273750,-0.96875,0.25,-0.046875
1629897273781,-0.96875,0.25,-0.046875
1629897273812,-0.96875,0.265625,-0.046875
1629897273843,-0.96875,0.265625,-0.046875
1629897273875,-0.96875,0.25,-0.046875
1629897273906,-0.96875,0.25,-0.046875
1629897273937,-0.96875,0.25,-0.046875
1629897273968,-0.96875,0.25,-0.046875
1629897274000,-0.96875,0.25,-0.046875
1629897274031,-0.96875,0.25,-0.046875
1629897274062,-0.96875,0.25,-0.046875
1629897274093,-0.96875,0.265625,-0.046875
1629897274125,-0.96875,0.25,-0.046875
1629897274156,-0.96875,0.265625,-0.046875
1629897274187,-0.96875,0.25,-0.046875
1629897274218,-0.96875,0.25,-0.046875
1629897274250,-0.96875,0.25,-0.046875
1629897274281,-0.96875,0.25,-0.046875
1629897274312,-0.96875,0.25,-0.046875
1629897274343,-0.96875,0.25,-0.046875
1629897274375,-0.96875,0.25,-0.046875
1629897274406,-0.96875,0.25,-0.046875
1629897274437,-0.96875,0.25,-0.046875
1629897274468,-0.96875,0.25,-0.046875
1629897274500,-0.96875,0.25,-0.046875
1629897274531,-0.96875,0.25,-0.046875
1629897274562,-0.96875,0.25,-0.046875
1629897274593,-0.96875,0.25,-0.046875
1629897274625,-0.96875,0.265625,-0.046875
1629897274656,-0.96875,0.25,-0.046875
1629897274687,-0.96875,0.25,-0.046875
1629897274718,-0.96875,0.25,-0.046875
1629897274750,-0.96875,0.25,-0.046875
1629897274781,-0.96875,0.25,-0.046875
1629897274812,-0.96875,0.25,-0.046875
1629897274843,-0.96875,0.25,-0.046875
1629897274875,-0.96875,0.25,-0.046875
1629897274906,-0.96875,0.25,-0.046875
1629897274937,-0.96875,0.25,-0.046875
1629897274968,-0.96875,0.25,-0.046875
1629897275000,-0.96875,0.25,-0.046875
1629897275031,-0.96875,0.25,-0.046875
1629897275062,-0.96875,0.25,-0.046875
1629897275093,-0.96875,0.25,-0.046875
1629897275125,-0.96875,0.25,-0.046875
1629897275156,-0.96875,0.25,-0.046875
1629897275187,-0.96875,0.25,-0.046875
1629897275218,-0.96875,0.25,-0.046875
1629897275250,-0.96875,0.25,-0.046875
1629897275281,-0.96875,0.25,-0.046875
1629897275312,-0.96875,0.25,-0.046875
1629897275343,-0.96875,0.25,-0.046875
1629897275375,-0.96875,0.25,-0.046875
1629897275406,-0.96875,0.25,-0.046875
1629897275437,-0.96875,0.25,-0.046875
1629897275468,-0.96875,0.25,-0.046875
1629897275500,-0.96875,0.25,-0.046875
1629897275531,-0.96875,0.25,-0.046875
1629897275562,-0.96875,0.25,-0.046875
1629897275593,-0.96875,0.25,-0.046875
1629897275625,-0.96875,0.25,-0.046875
1629897275656,-0.96875,0.25,-0.046875
1629897275687,-0.96875,0.25,-0.046875
1629897275718,-0.96875,0.25,-0.046875
1629897275750,-0.96875,0.25,-0.046875
1629897275781,-0.96875,0.25,-0.046875
1629897275812,-0.96875,0.25,-0.046875
1629897275843,-0.96875,0.25,-0.046875
1629897275875,-0.96875,0.25,-0.046875
1629897275906,-0.96875,0.25,-0.046875
1629897275937,-0.96875,0.25,-0.046875
1629897275968,-0.96875,0.25,-0.046875
1629897276000,-0.96875,0.25,-0.046875
1629897276031,-0.96875,0.25,-0.046875
1629897276062,-0.96875,0.25,-0.046875
1629897276093,-0.96875,0.25,-0.046875
1629897276125,-0.96875,0.25,-0.046875
1629897276156,-0.96875,0.25,-0.046875
1629897276187,-0.96875,0.25,-0.046875
1629897276218,-0.96875,0.25,-0.046875
1629897276250,-0.96875,0.25,-0.046875
1629897276281,-0.96875,0.25,-0.046875
1629897276312,-0.96875,0.25,-0.046875
1629897276343,-0.96875,0.25,-0.046875
1629897276375,-0.96875,0.25,-0.046875
1629897276406,-0.96875,0.25,-0.046875
1629897276437,-0.96875,0.25,-0.046875
1629897276468,-0.96875,0.25,-0.046875
1629897276500,-0.96875,0.25,-0.046875
1629897276531,-0.96875,0.25,-0.046875
1629897276562,-0.96875,0.25,-0.046875
1629897276593,-0.96875,0.25,-0.046875
1629897276625,-0.96875,0.25,-0.046875
1629897276656,-0.96875,0.25,-0.046875
1629897276687,-0.96875,0.25,-0.046875
1629897276718,-0.96875,0.25,-0.046875
1629897276750,-0.96875,0.25,-0.046875
1629897276781,-0.96875,0.25,-0.046875
1629897276812,-0.96875,0.25,-0.046875
1629897276843,-0.96875,0.25,-0.046875
1629897276875,-0.96875,0.25,-0.046875
1629897276906,-0.96875,0.25,-0.046875
1629897276937,-0.96875,0.25,-0.046875
1629897276968,-0.96875,0.25,-0.046875
1629897277000,-0.96875,0.25,-0.046875
1629897277031,-0.96875,0.25,-0.046875
1629897277062,-0.96875,0.25,-0.046875
1629897277093,-0.96875,0.25,-0.046875
1629897277125,-0.96875,0.25,-0.046875
1629897277156,-0.96875,0.25,-0.046875
1629897277187,-0.96875,0.25,-0.046875
1629897277218,-0.96875,0.25,-0.03125
1629897277250,-0.96875,0.25,-0.046875
1629897277281,-0.96875,0.25,-0.046875
1629897277312,-0.96875,0.25,-0.046875
1629897277343,-0.96875,0.25,-0.046875
1629897277375,-0.96875,0.25,-0.046875
1629897277406,-0.96875,0.25,-0.046875
1629897277437,-0.96875,0.25,-0.046875
1629897277468,-0.96875,0.25,-0.046875
1629897277500,-0.96875,0.25,-0.046875
1629897277531,-0.96875,0.25,-0.046875
1629897277562,-0.96875,0.25,-0.046875
1629897277593,-0.96875,0.25,-0.046875
1629897277625,-0.96875,0.25,-0.046875
1629897277656,-0.96875,0.25,-0.046875
1629897277687,-0.96875,0.25,-0.046875
1629897277718,-0.96875,0.25,-0.046875
1629897277750,-0.96875,0.25,-0.046875
1629897277781,-0.96875,0.25,-0.046875
1629897277812,-0.96875,0.25,-0.046875
1629897277843,-0.96875,0.25,-0.046875
1629897277875,-0.96875,0.25,-0.046875
1629897277906,-0.96875,0.25,-0.046875
1629897277937,-0.96875,0.25,-0.046875
1629897277968,-0.96875,0.25,-0.046875
1629897278000,-0.96875,0.25,-0.046875
1629897278031,-0.96875,0.25,-0.046875
1629897278062,-0.96875,0.25,-0.046875
1629897278093,-0.96875,0.25,-0.046875
1629897278125,-0.96875,0.25,-0.046875
1629897278156,-0.96875,0.25,-0.046875
1629897278187,-0.96875,0.25,-0.046875
1629897278218,-0.96875,0.25,-0.03125
1629897278250,-0.96875,0.265625,-0.046875
1629897278281,-0.96875,0.265625,-0.046875
1629897278312,-0.96875,0.25,-0.046875
1629897278343,-0.96875,0.25,-0.046875
1629897278375,-0.96875,0.265625,-0.046875
1629897278406,-0.96875,0.265625,-0.046875
1629897278437,-0.96875,0.25,-0.046875
1629897278468,-0.96875,0.25,-0.046875
1629897278500,-0.96875,0.265625,-0.046875
1629897278531,-0.96875,0.265625,-0.046875
1629897278562,-0.96875,0.265625,-0.046875
1629897278593,-0.96875,0.265625,-0.046875
1629897278625,-0.96875,0.265625,-0.046875
1629897278656,-0.96875,0.265625,-0.046875
1629897278687,-0.96875,0.25,-0.046875
1629897278718,-0.96875,0.265625,-0.046875
1629897278750,-0.96875,0.265625,-0.046875
1629897278781,-0.96875,0.25,-0.046875
1629897278812,-0.96875,0.25,-0.046875
1629897278843,-0.96875,0.25,-0.046875
1629897278875,-0.96875,0.265625,-0.046875
1629897278906,-0.96875,0.25,-0.046875
1629897278937,-0.96875,0.25,-0.046875
1629897278968,-0.96875,0.25,-0.03125
1629897279000,-0.96875,0.265625,-0.046875
1629897279031,-0.96875,0.265625,-0.046875
1629897279062,-0.96875,0.265625,-0.046875
1629897279093,-0.96875,0.25,-0.046875
1629897279125,-0.96875,0.25,-0.046875
1629897279156,-0.96875,0.25,-0.046875
1629897279187,-0.96875,0.25,-0.046875
1629897279218,-0.96875,0.25,-0.046875
1629897279250,-0.96875,0.25,-0.046875
1629897279281,-0.96875,0.25,-0.03125
1629897279312,-0.96875,0.25,-0.046875
1629897279343,-0.96875,0.25,-0.046875
1629897279375,-0.96875,0.25,-0.046875
1629897279406,-0.96875,0.25,-0.046875
1629897279437,-0.96875,0.25,-0.046875
1629897279468,-0.96875,0.25,-0.046875
1629897279500,-0.96875,0.265625,-0.046875
1629897279531,-0.96875,0.25,-0.046875
1629897279562,-0.96875,0.25,-0.046875
1629897279593,-0.96875,0.25,-0.046875
1629897279625,-0.96875,0.25,-0.046875
1629897279656,-0.96875,0.25,-0.046875
1629897279687,-0.96875,0.25,-0.046875
1629897279718,-0.96875,0.25,-0.046875
1629897279750,-0.96875,0.25,-0.046875
1629897279781,-0.96875,0.25,-0.03125
1629897279812,-0.96875,0.25,-0.046875
1629897279843,-0.96875,0.25,-0.046875
1629897279875,-0.96875,0.25,-0.046875
1629897279906,-0.96875,0.25,-0.046875
1629897279937,-0.96875,0.25,-0.046875
1629897279968,-0.96875,0.25,-0.046875
1629897280000,-0.96875,0.25,-0.046875
1629897280031,-0.96875,0.25,-0.046875
1629897280062,-0.96875,0.25,-0.03125
1629897280093,-0.96875,0.25,-0.046875
1629897280125,-0.96875,0.25,-0.046875
1629897280156,-0.96875,0.25,-0.046875
1629897280187,-0.96875,0.25,-0.046875
1629897280218,-0.96875,0.25,-0.046875
1629897280250,-0.96875,0.25,-0.046875
1629897280281,-0.96875,0.25,-0.046875
1629897280312,-0.96875,0.25,-0.046875
1629897280343,-0.96875,0.25,-0.046875
1629897280375,-0.96875,0.25,-0.046875
1629897280406,-0.96875,0.25,-0.046875
1629897280437,-0.96875,0.25,-0.046875
1629897280468,-0.96875,0.25,-0.046875
1629897280500,-0.96875,0.25,-0.046875
1629897280531,-0.96875,0.25,-0.046875
1629897280562,-0.96875,0.25,-0.046875
1629897280593,-0.96875,0.25,-0.046875
1629897280625,-0.96875,0.25,-0.046875
1629897280656,-0.96875,0.25,-0.046875
1629897280687,-0.96875,0.25,-0.046875
1629897280718,-0.96875,0.25,-0.046875
1629897280750,-0.96875,0.25,-0.046875
1629897280781,-0.96875,0.25,-0.046875
1629897280812,-0.96875,0.25,-0.046875
1629897280843,-0.96875,0.25,-0.046875
1629897280875,-0.96875,0.25,-0.046875
1629897280906,-0.96875,0.25,-0.046875
1629897280937,-0.96875,0.25,-0.046875
1629897280968,-0.96875,0.25,-0.046875
1629897281000,-0.96875,0.25,-0.046875
1629897281031,-0.96875,0.25,-0.046875
1629897281062,-0.96875,0.25,-0.046875
1629897281093,-0.96875,0.25,-0.046875
1629897281125,-0.96875,0.25,-0.046875
1629897281156,-0.96875,0.25,-0.046875
1629897281187,-0.96875,0.25,-0.046875
1629897281218,-0.96875,0.25,-0.046875
1629897281250,-0.96875,0.25,-0.046875
1629897281281,-0.96875,0.25,-0.046875
1629897281312,-0.96875,0.25,-0.046875
1629897281343,-0.96875,0.25,-0.046875
1629897281375,-0.96875,0.25,-0.046875
1629897281406,-0.96875,0.25,-0.046875
1629897281437,-0.96875,0.25,-0.046875
1629897281468,-0.96875,0.25,-0.046875
1629897281500,-0.96875,0.25,-0.046875
1629897281531,-0.96875,0.25,-0.046875
1629897281562,-0.96875,0.25,-0.046875
1629897281593,-0.96875,0.25,-0.046875
1629897281625,-0.96875,0.25,-0.046875
1629897281656,-0.96875,0.25,-0.046875
1629897281687,-0.96875,0.25,-0.046875
1629897281718,-0.96875,0.25,-0.046875
1629897281750,-0.96875,0.25,-0.046875
1629897281781,-0.96875,0.25,-0.046875
1629897281812,-0.96875,0.25,-0.046875
1629897281843,-0.96875,0.25,-0.046875
1629897281875,-0.96875,0.25,-0.046875
1629897281906,-0.96875,0.25,-0.046875
1629897281937,-0.96875,0.25,-0.046875
1629897281968,-0.96875,0.25,-0.046875
1629897282000,-0.96875,0.25,-0.046875
1629897282031,-0.96875,0.25,-0.046875
1629897282062,-0.96875,0.25,-0.046875
1629897282093,-0.96875,0.25,-0.046875
1629897282125,-0.96875,0.25,-0.046875
1629897282156,-0.96875,0.25,-0.046875
1629897282187,-0.96875,0.25,-0.046875
1629897282218,-0.96875,0.25,-0.046875
1629897282250,-0.96875,0.25,-0.046875
1629897282281,-0.96875,0.25,-0.046875
1629897282312,-0.96875,0.25,-0.046875
1629897282343,-0.96875,0.25,-0.046875
1629897282375,-0.96875,0.25,-0.046875
1629897282406,-0.96875,0.25,-0.046875
1629897282437,-0.96875,0.25,-0.046875
1629897282468,-0.96875,0.25,-0.046875
1629897282500,-0.96875,0.25,-0.046875
1629897282531,-0.96875,0.25,-0.046875
1629897282562,-0.96875,0.25,-0.046875
1629897282593,-0.96875,0.25,-0.046875
1629897282625,-0.96875,0.25,-0.046875
1629897282656,-0.96875,0.25,-0.046875
1629897282687,-0.96875,0.25,-0.046875
1629897282718,-0.96875,0.265625,-0.046875
1629897282750,-0.96875,0.265625,-0.046875
1629897282781,-0.96875,0.265625,-0.046875
1629897282812,-0.96875,0.25,-0.046875
1629897282843,-0.96875,0.25,-0.046875
1629897282875,-0.96875,0.265625,-0.046875
1629897282906,-0.96875,0.265625,-0.046875
1629897282937,-0.96875,0.25,-0.046875
1629897282968,-0.96875,0.265625,-0.046875
1629897283000,-0.96875,0.25,-0.046875
1629897283031,-0.96875,0.265625,-0.046875
1629897283062,-0.96875,0.265625,-0.046875
1629897283093,-0.96875,0.25,-0.046875
1629897283125,-0.96875,0.25,-0.046875
1629897283156,-0.96875,0.25,-0.046875
1629897283187,-0.96875,0.265625,-0.046875
1629897283218,-0.96875,0.265625,-0.046875
1629897283250,-0.96875,0.25,-0.046875
1629897283281,-0.96875,0.25,-0.046875
1629897283312,-0.96875,0.25,-0.046875
1629897283343,-0.96875,0.265625,-0.046875
1629897283375,-0.96875,0.265625,-0.046875
1629897283406,-0.96875,0.25,-0.046875
1629897283437,-0.96875,0.25,-0.046875
1629897283468,-0.96875,0.25,-0.046875
1629897283500,-0.96875,0.25,-0.046875
1629897283531,-0.96875,0.25,-0.046875
1629897283562,-0.96875,0.25,-0.046875
1629897283593,-0.96875,0.25,-0.046875
1629897283625,-0.96875,0.25,-0.046875
1629897283656,-0.96875,0.25,-0.046875
1629897283687,-0.96875,0.25,-0.046875
1629897283718,-0.96875,0.25,-0.046875
1629897283750,-0.96875,0.25,-0.046875
1629897283781,-0.96875,0.25,-0.046875
1629897283812,-0.96875,0.25,-0.046875
1629897283843,-0.96875,0.25,-0.046875
1629897283875,-0.96875,0.25,-0.046875
1629897283906,-0.96875,0.25,-0.046875
1629897283937,-0.96875,0.25,-0.046875
1629897283968,-0.96875,0.25,-0.046875
1629897284000,-0.96875,0.25,-0.046875
1629897284031,-0.96875,0.25,-0.046875
1629897284062,-0.96875,0.25,-0.046875
1629897284093,-0.96875,0.25,-0.046875
1629897284125,-0.96875,0.25,-0.046875
1629897284156,-0.96875,0.25,-0.046875
1629897284187,-0.96875,0.25,-0.046875
1629897284218,-0.96875,0.25,-0.046875
1629897284250,-0.96875,0.25,-0.046875
1629897284281,-0.96875,0.25,-0.046875
1629897284312,-0.96875,0.25,-0.046875
1629897284343,-0.96875,0.25,-0.046875
1629897284375,-0.96875,0.25,-0.046875
1629897284406,-0.96875,0.25,-0.046875
1629897284437,-0.96875,0.25,-0.046875
1629897284468,-0.96875,0.25,-0.046875
1629897284500,-0.96875,0.25,-0.046875
1629897284531,-0.96875,0.25,-0.046875
1629897284562,-0.96875,0.25,-0.046875
1629897284593,-0.96875,0.25,-0.046875
1629897284625,-0.96875,0.25,-0.046875
1629897284656,-0.96875,0.25,-0.046875
1629897284687,-0.96875,0.25,-0.046875
1629897284718,-0.96875,0.25,-0.046875
1629897284750,-0.96875,0.25,-0.046875
1629897284781,-0.96875,0.25,-0.046875
1629897284812,-0.96875,0.25,-0.046875
1629897284843,-0.96875,0.25,-0.046875
1629897284875,-0.96875,0.25,-0.046875
1629897284906,-0.96875,0.25,-0.046875
1629897284937,-0.96875,0.25,-0.046875
1629897284968,-0.96875,0.25,-0.046875
1629897285000,-0.96875,0.25,-0.046875
1629897285031,-0.96875,0.25,-0.046875
1629897285062,-0.96875,0.25,-0.046875
1629897285093,-0.96875,0.25,-0.046875
1629897285125,-0.96875,0.25,-0.046875
1629897285156,-0.96875,0.25,-0.046875
1629897285187,-0.96875,0.25,-0.046875
1629897285218,-0.96875,0.25,-0.046875
1629897285250,-0.96875,0.25,-0.046875
1629897285281,-0.96875,0.25,-0.046875
1629897285312,-0.96875,0.25,-0.046875
1629897285343,-0.96875,0.25,-0.046875
1629897285375,-0.96875,0.25,-0.046875
1629897285406,-0.96875,0.25,-0.046875
1629897285437,-0.96875,0.25,-0.046875
1629897285468,-0.96875,0.25,-0.046875
1629897285500,-0.96875,0.25,-0.046875
1629897285531,-0.96875,0.25,-0.046875
1629897285562,-0.96875,0.25,-0.046875
1629897285593,-0.96875,0.25,-0.046875
1629897285625,-0.96875,0.25,-0.046875
1629897285656,-0.96875,0.25,-0.046875
1629897285687,-0.96875,0.25,-0.046875
1629897285718,-0.96875,0.25,-0.046875
1629897285750,-0.96875,0.25,-0.046875
1629897285781,-0.96875,0.25,-0.046875
1629897285812,-0.96875,0.25,-0.046875
1629897285843,-0.96875,0.25,-0.046875
1629897285875,-0.96875,0.25,-0.046875
1629897285906,-0.96875,0.25,-0.046875
1629897285937,-0.96875,0.25,-0.046875
1629897285968,-0.96875,0.25,-0.046875
1629897286000,-0.96875,0.25,-0.046875
1629897286031,-0.96875,0.25,-0.046875
1629897286062,-0.96875,0.25,-0.046875
1629897286093,-0.96875,0.25,-0.046875
1629897286125,-0.96875,0.25,-0.046875
1629897286156,-0.96875,0.25,-0.046875
1629897286187,-0.96875,0.25,-0.046875
1629897286218,-0.96875,0.25,-0.046875
1629897286250,-0.96875,0.25,-0.046875
1629897286281,-0.96875,0.25,-0.046875
1629897286312,-0.96875,0.25,-0.046875
1629897286343,-0.96875,0.25,-0.046875
1629897286375,-0.96875,0.25,-0.046875
1629897286406,-0.96875,0.25,-0.046875
1629897286437,-0.96875,0.25,-0.046875
1629897286468,-0.96875,0.25,-0.046875
1629897286500,-0.96875,0.25,-0.046875
1629897286531,-0.96875,0.25,-0.046875
1629897286562,-0.96875,0.25,-0.046875
1629897286593,-0.96875,0.25,-0.046875
1629897286625,-0.96875,0.25,-0.046875
1629897286656,-0.96875,0.25,-0.046875
1629897286687,-0.96875,0.25,-0.046875
1629897286718,-0.96875,0.25,-0.046875
1629897286750,-0.96875,0.25,-0.046875
1629897286781,-0.96875,0.25,-0.046875
1629897286812,-0.96875,0.25,-0.046875
1629897286843,-0.96875,0.25,-0.046875
1629897286875,-0.96875,0.25,-0.046875
1629897286906,-0.96875,0.25,-0.046875
1629897286937,-0.96875,0.25,-0.046875
1629897286968,-0.96875,0.25,-0.046875
1629897287000,-0.96875,0.25,-0.046875
1629897287031,-0.96875,0.25,-0.046875
1629897287062,-0.96875,0.265625,-0.046875
1629897287093,-0.96875,0.25,-0.046875
1629897287125,-0.96875,0.25,-0.046875
1629897287156,-0.96875,0.25,-0.046875
1629897287187,-0.96875,0.25,-0.046875
1629897287218,-0.96875,0.265625,-0.046875
1629897287250,-0.96875,0.25,-0.046875
1629897287281,-0.96875,0.25,-0.046875
1629897287312,-0.96875,0.25,-0.046875
1629897287343,-0.96875,0.25,-0.046875
1629897287375,-0.96875,0.25,-0.046875
1629897287406,-0.96875,0.25,-0.046875
1629897287437,-0.96875,0.25,-0.046875
1629897287468,-0.96875,0.265625,-0.046875
1629897287500,-0.96875,0.25,-0.046875
1629897287531,-0.96875,0.25,-0.046875
1629897287562,-0.96875,0.265625,-0.046875
1629897287593,-0.96875,0.25,-0.046875
1629897287625,-0.96875,0.265625,-0.046875
1629897287656,-0.96875,0.265625,-0.046875
1629897287687,-0.96875,0.265625,-0.046875
1629897287718,-0.96875,0.25,-0.046875
1629897287750,-0.96875,0.25,-0.046875
1629897287781,-0.96875,0.25,-0.046875
1629897287812,-0.96875,0.265625,-0.046875
1629897287843,-0.96875,0.265625,-0.046875
1629897287875,-0.96875,0.25,-0.046875
1629897287906,-0.96875,0.25,-0.046875
1629897287937,-0.96875,0.25,-0.046875
1629897287968,-0.96875,0.265625,-0.046875
1629897288000,-0.96875,0.25,-0.046875
1629897288031,-0.96875,0.265625,-0.046875
1629897288062,-0.96875,0.25,-0.046875
1629897288093,-0.96875,0.25,-0.046875
1629897288125,-0.96875,0.25,-0.046875
1629897288156,-0.96875,0.25,-0.046875
1629897288187,-0.96875,0.25,-0.046875
1629897288218,-0.96875,0.265625,-0.046875
1629897288250,-0.96875,0.25,-0.046875
1629897288281,-0.96875,0.25,-0.046875
1629897288312,-0.96875,0.25,-0.046875
1629897288343,-0.96875,0.25,-0.046875
1629897288375,-0.96875,0.25,-0.046875
1629897288406,-0.96875,0.25,-0.046875
1629897288437,-0.96875,0.25,-0.046875
1629897288468,-0.96875,0.25,-0.046875
1629897288500,-0.96875,0.25,-0.046875
1629897288531,-0.96875,0.25,-0.046875
1629897288562,-0.96875,0.25,-0.046875
1629897288593,-0.96875,0.25,-0.046875
1629897288625,-0.96875,0.25,-0.046875
1629897288656,-0.96875,0.25,-0.046875
1629897288687,-0.96875,0.25,-0.046875
1629897288718,-0.96875,0.25,-0.046875
