timestamp,ax,ay,az
1629807853156,-0.828125,0.0625,0.546875
1629807853187,-0.8125,0.0625,0.5625
1629807853218,-0.8125,0.078125,0.546875
1629807853250,-0.796875,0.078125,0.5625
1629807853281,-0.8125,0.0625,0.546875
1629807853312,-0.84375,0.046875,0.546875
1629807853343,-0.84375,0.046875,0.546875
1629807853375,-0.8125,0.0625,0.546875
1629807853406,-0.8125,0.0625,0.546875
1629807853437,-0.8125,0.0625,0.5625
1629807853468,-0.8125,0.0625,0.5625
1629807853500,-0.8125,0.0625,0.5625
1629807853531,-0.8125,0.078125,0.5625
1629807853562,-0.8125,0.078125,0.546875
1629807853593,-0.8125,0.0625,0.5625
1629807853625,-0.828125,0.0625,0.5625
1629807853656,-0.828125,0.0625,0.5625
1629807853687,-0.828125,0.0625,0.5625
1629807853718,-0.828125,0.0625,0.5625
1629807853750,-0.828125,0.046875,0.5625
1629807853781,-0.8125,0.0625,0.5625
1629807853812,-0.8125,0.0625,0.5625
1629807853843,-0.828125,0.0625,0.5625
1629807853875,-0.828125,0.078125,0.5625
1629807853906,-0.828125,0.0625,0.5625
1629807853937,-0.828125,0.0625,0.5625
1629807853968,-0.828125,0.0625,0.5625
1629807854000,-0.796875,0.0625,0.5625
1629807854031,-0.8125,0.0625,0.5625
1629807854062,-0.828125,0.0625,0.546875
1629807854093,-0.796875,0.0625,0.546875
1629807854125,-0.8125,0.046875,0.5625
1629807854156,-0.8125,0.046875,0.5625
1629807854187,-0.796875,0.0625,0.5625
1629807854218,-0.8125,0.0625,0.578125
1629807854250,-0.828125,0.0625,0.578125
1629807854281,-0.828125,0.0625,0.5625
1629807854312,-0.796875,0.0625,0.578125
1629807854343,-0.8125,0.0625,0.5625
1629807854375,-0.8125,0.0625,0.5625
1629807854406,-0.8125,0.0625,0.5625
1629807854437,-0.8125,0.0625,0.578125
1629807854468,-0.8125,0.0625,0.5625
1629807854500,-0.796875,0.0625,0.578125
1629807854531,-0.796875,0.0625,0.578125
1629807854562,-0.796875,0.0625,0.59375
1629807854593,-0.8125,0.0625,0.578125
1629807854625,-0.8125,0.0625,0.59375
1629807854656,-0.8125,0.0625,0.578125
1629807854687,-0.796875,0.0625,0.5625
1629807854718,-0.8125,0.046875,0.5625
1629807854750,-0.796875,0.046875,0.546875
1629807854781,-0.8125,0.03125,0.53125
1629807854812,-0.8125,0.03125,0.5
1629807854843,-0.828125,0.03125,0.484375
1629807854875,-0.828125,0.03125,0.5
1629807854906,-0.828125,0.046875,0.453125
1629807854937,-0.890625,0.0625,0.421875
1629807854968,-0.984375,0.0625,0.40625
1629807855000,-0.859375,0.109375,0.5
1629807855031,-1.0,0.109375,0.40625
1629807855062,-0.828125,0.125,0.375
1629807855093,-0.9375,0.0625,0.296875
1629807855125,-0.9375,0.03125,0.40625
1629807855156,-0.9375,0.0625,0.328125
1629807855187,-0.953125,0.078125,0.359375
1629807855218,-0.90625,0.109375,0.390625
1629807855250,-0.90625,0.09375,0.359375
1629807855281,-1.0,0.0625,0.234375
1629807855312,-0.984375,0.09375,0.234375
1629807855343,-1.03125,0.109375,0.25
1629807855375,-0.953125,0.109375,0.234375
1629807855406,-0.875,0.125,0.234375
1629807855437,-1.015625,0.140625,0.203125
1629807855468,-1.09375,0.125,0.1875
1629807855500,-1.015625,0.125,0.28125
1629807855531,-0.921875,0.109375,0.40625
1629807855562,-0.875,0.09375,0.40625
1629807855593,-0.875,0.09375,0.359375
1629807855625,-0.90625,0.09375,0.359375
1629807855656,-0.921875,0.09375,0.328125
1629807855687,-0.921875,0.09375,0.359375
1629807855718,-0.953125,0.09375,0.359375
1629807855750,-0.9375,0.078125,0.359375
1629807855781,-0.90625,0.078125,0.390625
1629807855812,-0.921875,0.09375,0.390625
1629807855843,-0.90625,0.09375,0.4375
1629807855875,-0.890625,0.09375,0.421875
1629807855906,-0.90625,0.09375,0.40625
1629807855937,-0.90625,0.09375,0.421875
1629807855968,-0.875,0.078125,0.4375
1629807856000,-0.890625,0.078125,0.421875
1629807856031,-0.65625,0.046875,0.5
1629807856062,-0.75,0.0625,0.484375
1629807856093,-1.046875,0.109375,0.34375
1629807856125,-1.125,0.09375,0.21875
1629807856156,-1.0,0.140625,0.171875
1629807856187,-0.984375,0.109375,0.1875
1629807856218,-0.90625,0.125,0.265625
1629807856250,-0.921875,0.109375,0.359375
1629807856281,-0.9375,0.109375,0.375
1629807856312,-0.9375,0.109375,0.375
1629807856343,-0.9375,0.109375,0.34375
1629807856375,-0.921875,0.09375,0.34375
1629807856406,-0.921875,0.09375,0.328125
1629807856437,-0.921875,0.09375,0.34375
1629807856468,-0.9375,0.09375,0.34375
1629807856500,-0.9375,0.09375,0.34375
1629807856531,-0.921875,0.09375,0.359375
1629807856562,-0.9375,0.09375,0.34375
1629807856593,-0.9375,0.09375,0.34375
1629807856625,-0.921875,0.09375,0.359375
1629807856656,-0.921875,0.09375,0.359375
1629807856687,-0.921875,0.09375,0.359375
1629807856718,-0.9375,0.09375,0.34375
1629807856750,-0.921875,0.09375,0.359375
1629807856781,-0.921875,0.09375,0.34375
1629807856812,-0.921875,0.09375,0.34375
1629807856843,-0.921875,0.09375,0.34375
1629807856875,-0.9375,0.09375,0.34375
1629807856906,-0.921875,0.09375,0.359375
1629807856937,-0.921875,0.09375,0.375
1629807856968,-0.9375,0.09375,0.375
1629807857000,-0.9375,0.09375,0.375
1629807857031,-0.9375,0.09375,0.375
1629807857062,-0.875,0.09375,0.4375
1629807857093,-0.859375,0.09375,0.46875
1629807857125,-0.859375,0.078125,0.484375
1629807857156,-0.890625,0.078125,0.46875
1629807857187,-0.890625,0.078125,0.453125
1629807857218,-0.875,0.078125,0.453125
1629807857250,-0.875,0.078125,0.4375
1629807857281,-0.890625,0.09375,0.453125
1629807857312,-0.875,0.09375,0.453125
1629807857343,-0.875,0.078125,0.453125
1629807857375,-0.875,0.09375,0.453125
1629807857406,-0.890625,0.09375,0.453125
1629807857437,-0.890625,0.09375,0.453125
1629807857468,-0.875,0.09375,0.46875
1629807857500,-0.890625,0.09375,0.453125
1629807857531,-0.890625,0.09375,0.453125
1629807857562,-0.875,0.078125,0.453125
1629807857593,-0.875,0.09375,0.453125
1629807857625,-0.875,0.09375,0.453125
1629807857656,-0.875,0.09375,0.453125
1629807857687,-0.890625,0.09375,0.453125
1629807857718,-0.875,0.078125,0.453125
1629807857750,-0.875,0.078125,0.46875
1629807857781,-0.890625,0.09375,0.453125
1629807857812,-0.875,0.09375,0.453125
1629807857843,-0.875,0.09375,0.453125
1629807857875,-0.875,0.09375,0.453125
1629807857906,-0.890625,0.09375,0.453125
1629807857937,-0.875,0.09375,0.453125
1629807857968,-0.875,0.09375,0.46875
1629807858000,-0.890625,0.09375,0.453125
1629807858031,-0.890625,0.09375,0.453125
1629807858062,-0.890625,0.09375,0.453125
1629807858093,-0.890625,0.09375,0.453125
1629807858125,-0.890625,0.09375,0.453125
1629807858156,-0.890625,0.09375,0.453125
1629807858187,-0.875,0.09375,0.453125
1629807858218,-0.875,0.09375,0.453125
1629807858250,-0.890625,0.09375,0.453125
1629807858281,-0.890625,0.09375,0.453125
1629807858312,-0.875,0.078125,0.453125
1629807858343,-0.875,0.09375,0.46875
1629807858375,-0.890625,0.078125,0.453125
1629807858406,-0.890625,0.078125,0.46875
1629807858437,-0.875,0.078125,0.453125
1629807858468,-0.875,0.09375,0.453125
1629807858500,-0.875,0.09375,0.453125
1629807858531,-0.875,0.09375,0.453125
1629807858562,-0.890625,0.078125,0.46875
1629807858593,-0.875,0.078125,0.46875
1629807858625,-0.875,0.078125,0.46875
1629807858656,-0.890625,0.078125,0.453125
1629807858687,-0.890625,0.078125,0.453125
1629807858718,-0.875,0.09375,0.453125
1629807858750,-0.875,0.078125,0.453125
1629807858781,-0.875,0.09375,0.453125
1629807858812,-0.875,0.078125,0.453125
1629807858843,-0.875,0.078125,0.46875
1629807858875,-0.875,0.09375,0.46875
1629807858906,-0.875,0.078125,0.46875
1629807858937,-0.875,0.078125,0.46875
1629807858968,-0.875,0.078125,0.46875
1629807859000,-0.875,0.078125,0.46875
1629807859031,-0.875,0.078125,0.46875
1629807859062,-0.875,0.078125,0.46875
1629807859093,-0.875,0.078125,0.453125
1629807859125,-0.875,0.078125,0.46875
1629807859156,-0.875,0.09375,0.46875
1629807859187,-0.890625,0.078125,0.46875
1629807859218,-0.875,0.078125,0.46875
1629807859250,-0.875,0.078125,0.46875
1629807859281,-0.875,0.078125,0.46875
1629807859312,-0.875,0.078125,0.453125
1629807859343,-0.890625,0.078125,0.46875
1629807859375,-0.875,0.078125,0.46875
1629807859406,-0.875,0.078125,0.46875
1629807859437,-0.875,0.078125,0.46875
1629807859468,-0.875,0.078125,0.46875
1629807859500,-0.890625,0.078125,0.46875
1629807859531,-0.875,0.078125,0.46875
1629807859562,-0.875,0.078125,0.46875
1629807859593,-0.875,0.078125,0.46875
1629807859625,-0.875,0.078125,0.453125
1629807859656,-0.875,0.078125,0.46875
1629807859687,-0.875,0.078125,0.46875
1629807859718,-0.875,0.078125,0.46875
1629807859750,-0.875,0.078125,0.46875
1629807859781,-0.875,0.078125,0.46875
1629807859812,-0.875,0.078125,0.46875
1629807859843,-0.875,0.078125,0.46875
1629807859875,-0.875,0.078125,0.46875
1629807859906,-0.875,0.078125,0.46875
1629807859937,-0.875,0.078125,0.46875
1629807859968,-0.875,0.078125,0.46875
1629807860000,-0.875,0.078125,0.46875
1629807860031,-0.875,0.078125,0.46875
1629807860062,-0.875,0.078125,0.46875
1629807860093,-0.875,0.078125,0.46875
1629807860125,-0.875,0.078125,0.46875
1629807860156,-0.875,0.078125,0.46875
1629807860187,-0.875,0.078125,0.46875
1629807860218,-0.875,0.078125,0.46875
1629807860250,-0.890625,0.078125,0.453125
1629807860281,-0.875,0.078125,0.46875
1629807860312,-0.875,0.078125,0.46875
1629807860343,-0.875,0.078125,0.453125
1629807860375,-0.875,0.078125,0.46875
1629807860406,-0.875,0.078125,0.46875
1629807860437,-0.875,0.078125,0.46875
1629807860468,-0.875,0.078125,0.46875
1629807860500,-0.875,0.078125,0.46875
1629807860531,-0.890625,0.078125,0.46875
1629807860562,-0.875,0.078125,0.46875
1629807860593,-0.875,0.078125,0.46875
1629807860625,-0.875,0.078125,0.46875
1629807860656,-0.875,0.078125,0.46875
1629807860687,-0.875,0.078125,0.46875
1629807860718,-0.875,0.078125,0.46875
1629807860750,-0.875,0.078125,0.46875
1629807860781,-0.875,0.078125,0.46875
1629807860812,-0.875,0.078125,0.46875
1629807860843,-0.875,0.078125,0.46875
1629807860875,-0.875,0.078125,0.46875
1629807860906,-0.875,0.078125,0.46875
1629807860937,-0.875,0.078125,0.46875
1629807860968,-0.875,0.078125,0.46875
1629807861000,-0.875,0.078125,0.46875
1629807861031,-0.875,0.078125,0.46875
1629807861062,-0.875,0.078125,0.46875
1629807861093,-0.875,0.078125,0.46875
1629807861125,-0.875,0.078125,0.46875
1629807861156,-0.875,0.078125,0.46875
1629807861187,-0.875,0.078125,0.46875
1629807861218,-0.875,0.078125,0.46875
1629807861250,-0.875,0.078125,0.46875
1629807861281,-0.875,0.078125,0.453125
1629807861312,-0.875,0.078125,0.453125
1629807861343,-0.875,0.0625,0.453125
1629807861375,-0.890625,0.078125,0.46875
1629807861406,-0.890625,0.078125,0.46875
1629807861437,-0.875,0.078125,0.46875
1629807861468,-0.875,0.078125,0.453125
1629807861500,-0.875,0.09375,0.453125
1629807861531,-0.890625,0.078125,0.46875
1629807861562,-0.890625,0.078125,0.46875
1629807861593,-0.875,0.078125,0.46875
1629807861625,-0.875,0.078125,0.453125
1629807861656,-0.890625,0.078125,0.453125
1629807861687,-0.890625,0.078125,0.453125
1629807861718,-0.890625,0.078125,0.453125
1629807861750,-0.890625,0.078125,0.453125
1629807861781,-0.890625,0.078125,0.453125
1629807861812,-0.890625,0.078125,0.453125
1629807861843,-0.890625,0.078125,0.453125
1629807861875,-0.890625,0.078125,0.453125
1629807861906,-0.890625,0.078125,0.453125
1629807861937,-0.890625,0.078125,0.453125
1629807861968,-0.890625,0.078125,0.453125
1629807862000,-0.875,0.078125,0.46875
1629807862031,-0.890625,0.078125,0.453125
1629807862062,-0.875,0.078125,0.453125
1629807862093,-0.875,0.078125,0.453125
1629807862125,-0.890625,0.09375,0.46875
1629807862156,-0.890625,0.078125,0.453125
1629807862187,-0.890625,0.09375,0.453125
1629807862218,-0.890625,0.078125,0.453125
1629807862250,-0.890625,0.078125,0.453125
1629807862281,-0.875,0.078125,0.453125
1629807862312,-0.875,0.09375,0.46875
1629807862343,-0.890625,0.078125,0.453125
1629807862375,-0.875,0.078125,0.453125
1629807862406,-0.875,0.078125,0.453125
1629807862437,-0.875,0.09375,0.453125
1629807862468,-0.875,0.078125,0.453125
1629807862500,-0.875,0.09375,0.453125
1629807862531,-0.890625,0.078125,0.46875
1629807862562,-0.875,0.078125,0.46875
1629807862593,-0.875,0.078125,0.46875
1629807862625,-0.875,0.078125,0.453125
1629807862656,-0.875,0.078125,0.46875
1629807862687,-0.875,0.078125,0.46875
1629807862718,-0.875,0.078125,0.46875
1629807862750,-0.875,0.078125,0.46875
1629807862781,-0.875,0.078125,0.46875
1629807862812,-0.875,0.078125,0.46875
1629807862843,-0.875,0.078125,0.46875
1629807862875,-0.875,0.078125,0.46875
1629807862906,-0.875,0.078125,0.46875
1629807862937,-0.875,0.078125,0.453125
1629807862968,-0.875,0.078125,0.453125
1629807863000,-0.890625,0.078125,0.453125
1629807863031,-0.875,0.078125,0.46875
1629807863062,-0.875,0.078125,0.46875
1629807863093,-0.875,0.078125,0.46875
1629807863125,-0.875,0.078125,0.453125
1629807863156,-0.875,0.078125,0.46875
1629807863187,-0.890625,0.078125,0.46875
1629807863218,-0.890625,0.078125,0.453125
1629807863250,-0.875,0.078125,0.46875
1629807863281,-0.875,0.078125,0.46875
1629807863312,-0.875,0.078125,0.46875
1629807863343,-0.875,0.078125,0.46875
1629807863375,-0.875,0.078125,0.453125
1629807863406,-0.875,0.078125,0.453125
1629807863437,-0.875,0.078125,0.453125
1629807863468,-0.875,0.078125,0.46875
1629807863500,-0.890625,0.078125,0.46875
1629807863531,-0.875,0.078125,0.46875
1629807863562,-0.859375,0.078125,0.46875
1629807863593,-0.875,0.078125,0.46875
1629807863625,-0.875,0.078125,0.46875
1629807863656,-0.875,0.078125,0.46875
1629807863687,-0.875,0.078125,0.46875
1629807863718,-0.875,0.078125,0.46875
1629807863750,-0.875,0.078125,0.46875
1629807863781,-0.875,0.078125,0.46875
1629807863812,-0.875,0.078125,0.46875
1629807863843,-0.875,0.078125,0.46875
1629807863875,-0.875,0.078125,0.46875
1629807863906,-0.875,0.078125,0.46875
1629807863937,-0.875,0.078125,0.46875
1629807863968,-0.875,0.078125,0.46875
1629807864000,-0.875,0.078125,0.46875
1629807864031,-0.875,0.078125,0.46875
1629807864062,-0.875,0.078125,0.46875
1629807864093,-0.875,0.078125,0.46875
1629807864125,-0.875,0.078125,0.46875
1629807864156,-0.875,0.078125,0.46875
1629807864187,-0.875,0.078125,0.46875
1629807864218,-0.875,0.078125,0.46875
1629807864250,-0.875,0.078125,0.46875
1629807864281,-0.875,0.078125,0.46875
1629807864312,-0.875,0.078125,0.46875
1629807864343,-0.875,0.078125,0.46875
1629807864375,-0.875,0.078125,0.46875
1629807864406,-0.875,0.078125,0.46875
1629807864437,-0.875,0.078125,0.46875
1629807864468,-0.890625,0.078125,0.46875
1629807864500,-0.875,0.078125,0.46875
1629807864531,-0.875,0.078125,0.46875
1629807864562,-0.875,0.078125,0.46875
1629807864593,-0.875,0.078125,0.46875
1629807864625,-0.875,0.078125,0.46875
1629807864656,-0.875,0.078125,0.46875
1629807864687,-0.875,0.078125,0.46875
1629807864718,-0.875,0.0625,0.46875
1629807864750,-0.875,0.078125,0.46875
1629807864781,-0.875,0.078125,0.46875
1629807864812,-0.875,0.078125,0.46875
1629807864843,-0.875,0.078125,0.46875
1629807864875,-0.875,0.078125,0.46875
1629807864906,-0.875,0.078125,0.46875
1629807864937,-0.875,0.078125,0.46875
1629807864968,-0.875,0.078125,0.46875
1629807865000,-0.875,0.078125,0.46875
1629807865031,-0.875,0.078125,0.46875
1629807865062,-0.875,0.078125,0.46875
1629807865093,-0.875,0.078125,0.46875
1629807865125,-0.875,0.078125,0.46875
1629807865156,-0.875,0.078125,0.46875
1629807865187,-0.875,0.078125,0.46875
1629807865218,-0.875,0.078125,0.46875
1629807865250,-0.875,0.078125,0.46875
1629807865281,-0.875,0.078125,0.46875
1629807865312,-0.875,0.078125,0.46875
1629807865343,-0.875,0.078125,0.46875
1629807865375,-0.875,0.078125,0.453125
1629807865406,-0.875,0.078125,0.453125
1629807865437,-0.875,0.078125,0.46875
1629807865468,-0.875,0.0625,0.46875
1629807865500,-0.875,0.0625,0.46875
1629807865531,-0.875,0.078125,0.46875
1629807865562,-0.875,0.078125,0.46875
1629807865593,-0.875,0.078125,0.46875
1629807865625,-0.875,0.078125,0.46875
1629807865656,-0.875,0.078125,0.484375
1629807865687,-0.890625,0.078125,0.453125
1629807865718,-0.921875,0.078125,0.421875
1629807865750,-0.890625,0.078125,0.390625
1629807865781,-0.90625,0.0625,0.421875
1629807865812,-0.90625,0.078125,0.421875
1629807865843,-0.84375,0.09375,0.546875
1629807865875,-0.84375,0.078125,0.546875
1629807865906,-0.84375,0.078125,0.546875
1629807865937,-0.84375,0.078125,0.515625
1629807865968,-0.84375,0.078125,0.5
1629807866000,-0.84375,0.078125,0.5
1629807866031,-0.84375,0.078125,0.515625
1629807866062,-0.84375,0.078125,0.515625
1629807866093,-0.84375,0.078125,0.515625
1629807866125,-0.84375,0.078125,0.515625
1629807866156,-0.84375,0.078125,0.515625
1629807866187,-0.84375,0.078125,0.53125
1629807866218,-0.84375,0.078125,0.515625
1629807866250,-0.859375,0.09375,0.515625
1629807866281,-0.84375,0.078125,0.5
1629807866312,-0.84375,0.078125,0.53125
1629807866343,-0.84375,0.078125,0.53125
1629807866375,-0.84375,0.078125,0.515625
1629807866406,-0.84375,0.078125,0.515625
1629807866437,-0.859375,0.078125,0.53125
1629807866468,-0.84375,0.078125,0.53125
1629807866500,-0.84375,0.078125,0.515625
1629807866531,-0.84375,0.078125,0.515625
1629807866562,-0.84375,0.078125,0.53125
1629807866593,-0.84375,0.078125,0.515625
1629807866625,-0.84375,0.078125,0.53125
1629807866656,-0.84375,0.078125,0.53125
1629807866687,-0.84375,0.078125,0.53125
1629807866718,-0.84375,0.078125,0.515625
1629807866750,-0.84375,0.078125,0.515625
1629807866781,-0.84375,0.078125,0.53125
1629807866812,-0.84375,0.078125,0.53125
1629807866843,-0.84375,0.078125,0.53125
1629807866875,-0.84375,0.078125,0.53125
1629807866906,-0.828125,0.078125,0.53125
1629807866937,-0.84375,0.078125,0.53125
1629807866968,-0.828125,0.09375,0.53125
1629807867000,-0.84375,0.078125,0.53125
1629807867031,-0.84375,0.078125,0.53125
1629807867062,-0.828125,0.078125,0.546875
1629807867093,-0.84375,0.078125,0.53125
1629807867125,-0.828125,0.078125,0.546875
1629807867156,-0.828125,0.078125,0.546875
1629807867187,-0.828125,0.078125,0.546875
1629807867218,-0.828125,0.078125,0.546875
1629807867250,-0.828125,0.078125,0.53125
1629807867281,-0.828125,0.078125,0.546875
1629807867312,-0.828125,0.078125,0.546875
1629807867343,-0.828125,0.078125,0.53125
1629807867375,-0.828125,0.078125,0.546875
1629807867406,-0.828125,0.078125,0.546875
1629807867437,-0.828125,0.0625,0.546875
1629807867468,-0.828125,0.0625,0.546875
1629807867500,-0.828125,0.0625,0.546875
1629807867531,-0.828125,0.078125,0.546875
1629807867562,-0.828125,0.0625,0.546875
1629807867593,-0.828125,0.078125,0.53125
1629807867625,-0.828125,0.078125,0.546875
1629807867656,-0.828125,0.078125,0.546875
1629807867687,-0.828125,0.078125,0.53125
1629807867718,-0.828125,0.078125,0.53125
1629807867750,-0.828125,0.078125,0.546875
1629807867781,-0.828125,0.078125,0.546875
1629807867812,-0.828125,0.0625,0.546875
1629807867843,-0.828125,0.078125,0.53125
1629807867875,-0.84375,0.078125,0.53125
1629807867906,-0.828125,0.0625,0.53125
1629807867937,-0.828125,0.0625,0.53125
1629807867968,-0.828125,0.0625,0.53125
1629807868000,-0.84375,0.0625,0.53125
1629807868031,-0.84375,0.0625,0.53125
1629807868062,-0.828125,0.0625,0.546875
1629807868093,-0.828125,0.0625,0.53125
1629807868125,-0.828125,0.0625,0.53125
1629807868156,-0.84375,0.0625,0.53125
1629807868187,-0.828125,0.0625,0.53125
1629807868218,-0.828125,0.0625,0.53125
1629807868250,-0.828125,0.0625,0.53125
1629807868281,-0.828125,0.0625,0.53125
1629807868312,-0.84375,0.0625,0.53125
1629807868343,-0.828125,0.0625,0.53125
1629807868375,-0.828125,0.0625,0.53125
1629807868406,-0.828125,0.0625,0.53125
1629807868437,-0.828125,0.0625,0.546875
1629807868468,-0.84375,0.0625,0.546875
1629807868500,-0.84375,0.0625,0.53125
1629807868531,-0.828125,0.0625,0.53125
1629807868562,-0.828125,0.0625,0.53125
1629807868593,-0.84375,0.0625,0.53125
1629807868625,-0.84375,0.0625,0.53125
1629807868656,-0.84375,0.0625,0.53125
1629807868687,-0.84375,0.0625,0.53125
1629807868718,-0.84375,0.0625,0.53125
1629807868750,-0.84375,0.0625,0.53125
1629807868781,-0.828125,0.0625,0.53125
1629807868812,-0.84375,0.0625,0.53125
1629807868843,-0.828125,0.0625,0.53125
1629807868875,-0.84375,0.0625,0.53125
1629807868906,-0.84375,0.0625,0.53125
1629807868937,-0.84375,0.0625,0.53125
1629807868968,-0.828125,0.0625,0.53125
1629807869000,-0.84375,0.0625,0.53125
1629807869031,-0.84375,0.0625,0.53125
1629807869062,-0.84375,0.0625,0.53125
1629807869093,-0.84375,0.0625,0.53125
1629807869125,-0.84375,0.0625,0.53125
1629807869156,-0.84375,0.0625,0.53125
1629807869187,-0.84375,0.0625,0.53125
1629807869218,-0.828125,0.0625,0.546875
1629807869250,-0.828125,0.0625,0.53125
1629807869281,-0.84375,0.0625,0.53125
1629807869312,-0.84375,0.0625,0.53125
1629807869343,-0.84375,0.0625,0.53125
1629807869375,-0.84375,0.0625,0.53125
1629807869406,-0.84375,0.0625,0.53125
1629807869437,-0.84375,0.0625,0.53125
1629807869468,-0.84375,0.078125,0.53125
1629807869500,-0.84375,0.0625,0.53125
1629807869531,-0.84375,0.0625,0.53125
1629807869562,-0.84375,0.0625,0.53125
1629807869593,-0.84375,0.0625,0.53125
1629807869625,-0.84375,0.0625,0.53125
1629807869656,-0.84375,0.0625,0.53125
1629807869687,-0.84375,0.0625,0.53125
1629807869718,-0.84375,0.0625,0.53125
1629807869750,-0.84375,0.0625,0.53125
1629807869781,-0.84375,0.0625,0.53125
1629807869812,-0.84375,0.078125,0.53125
1629807869843,-0.84375,0.078125,0.53125
1629807869875,-0.84375,0.0625,0.53125
1629807869906,-0.84375,0.0625,0.515625
1629807869937,-0.84375,0.0625,0.53125
1629807869968,-0.84375,0.0625,0.53125
1629807870000,-0.84375,0.0625,0.53125
1629807870031,-0.84375,0.0625,0.53125
1629807870062,-0.84375,0.0625,0.53125
1629807870093,-0.84375,0.0625,0.53125
1629807870125,-0.84375,0.0625,0.53125
1629807870156,-0.84375,0.0625,0.53125
1629807870187,-0.84375,0.0625,0.53125
1629807870218,-0.84375,0.0625,0.53125
1629807870250,-0.84375,0.0625,0.53125
1629807870281,-0.84375,0.078125,0.53125
1629807870312,-0.84375,0.078125,0.515625
1629807870343,-0.84375,0.078125,0.515625
1629807870375,-0.84375,0.0625,0.53125
1629807870406,-0.84375,0.0625,0.515625
1629807870437,-0.84375,0.078125,0.53125
1629807870468,-0.84375,0.078125,0.53125
1629807870500,-0.84375,0.0625,0.53125
1629807870531,-0.84375,0.0625,0.515625
1629807870562,-0.84375,0.0625,0.515625
1629807870593,-0.84375,0.0625,0.53125
1629807870625,-0.84375,0.078125,0.53125
1629807870656,-0.84375,0.078125,0.515625
1629807870687,-0.84375,0.078125,0.53125
1629807870718,-0.84375,0.078125,0.515625
1629807870750,-0.84375,0.078125,0.53125
1629807870781,-0.84375,0.078125,0.53125
1629807870812,-0.84375,0.078125,0.515625
1629807870843,-0.84375,0.078125,0.515625
1629807870875,-0.84375,0.0625,0.53125
1629807870906,-0.84375,0.078125,0.515625
1629807870937,-0.84375,0.078125,0.515625
1629807870968,-0.84375,0.078125,0.53125
1629807871000,-0.84375,0.078125,0.515625
1629807871031,-0.84375,0.078125,0.515625
1629807871062,-0.84375,0.078125,0.515625
1629807871093,-0.84375,0.078125,0.53125
1629807871125,-0.84375,0.078125,0.515625
1629807871156,-0.84375,0.078125,0.515625
1629807871187,-0.84375,0.078125,0.515625
1629807871218,-0.84375,0.078125,0.515625
1629807871250,-0.84375,0.078125,0.515625
1629807871281,-0.84375,0.078125,0.515625
1629807871312,-0.84375,0.078125,0.515625
1629807871343,-0.84375,0.078125,0.515625
1629807871375,-0.84375,0.078125,0.515625
1629807871406,-0.84375,0.078125,0.515625
1629807871437,-0.84375,0.078125,0.515625
1629807871468,-0.84375,0.078125,0.515625
1629807871500,-0.84375,0.078125,0.515625
1629807871531,-0.84375,0.078125,0.515625
1629807871562,-0.84375,0.078125,0.515625
1629807871593,-0.84375,0.078125,0.515625
1629807871625,-0.84375,0.078125,0.515625
1629807871656,-0.84375,0.078125,0.515625
1629807871687,-0.84375,0.078125,0.515625
1629807871718,-0.859375,0.078125,0.515625
1629807871750,-0.84375,0.078125,0.53125
1629807871781,-0.84375,0.078125,0.515625
1629807871812,-0.84375,0.078125,0.515625
1629807871843,-0.84375,0.078125,0.515625
1629807871875,-0.859375,0.078125,0.53125
1629807871906,-0.859375,0.0625,0.53125
1629807871937,-0.84375,0.0625,0.515625
1629807871968,-0.84375,0.078125,0.515625
1629807872000,-0.859375,0.078125,0.515625
1629807872031,-0.84375,0.078125,0.515625
1629807872062,-0.84375,0.078125,0.515625
1629807872093,-0.84375,0.078125,0.515625
1629807872125,-0.84375,0.078125,0.515625
1629807872156,-0.84375,0.078125,0.515625
1629807872187,-0.84375,0.078125,0.515625
1629807872218,-0.84375,0.078125,0.515625
1629807872250,-0.84375,0.078125,0.515625
1629807872281,-0.84375,0.078125,0.515625
1629807872312,-0.84375,0.078125,0.515625
1629807872343,-0.84375,0.078125,0.515625
1629807872375,-0.84375,0.078125,0.515625
1629807872406,-0.84375,0.078125,0.515625
1629807872437,-0.84375,0.078125,0.515625
1629807872468,-0.84375,0.078125,0.515625
1629807872500,-0.84375,0.078125,0.515625
1629807872531,-0.84375,0.078125,0.515625
1629807872562,-0.84375,0.078125,0.53125
1629807872593,-0.84375,0.078125,0.515625
1629807872625,-0.84375,0.078125,0.515625
1629807872656,-0.84375,0.078125,0.53125
1629807872687,-0.84375,0.078125,0.53125
1629807872718,-0.84375,0.078125,0.515625
1629807872750,-0.84375,0.078125,0.53125
1629807872781,-0.84375,0.078125,0.515625
1629807872812,-0.859375,0.0625,0.53125
1629807872843,-0.84375,0.0625,0.53125
1629807872875,-0.84375,0.0625,0.515625
1629807872906,-0.84375,0.078125,0.515625
1629807872937,-0.84375,0.0625,0.53125
1629807872968,-0.84375,0.078125,0.515625
1629807873000,-0.84375,0.078125,0.515625
1629807873031,-0.84375,0.078125,0.53125
1629807873062,-0.84375,0.078125,0.515625
1629807873093,-0.84375,0.078125,0.515625
1629807873125,-0.84375,0.078125,0.515625
1629807873156,-0.84375,0.078125,0.53125
1629807873187,-0.84375,0.078125,0.515625
1629807873218,-0.84375,0.078125,0.515625
1629807873250,-0.84375,0.078125,0.515625
1629807873281,-0.84375,0.078125,0.515625
1629807873312,-0.84375,0.078125,0.515625
1629807873343,-0.84375,0.078125,0.515625
1629807873375,-0.828125,0.078125,0.53125
1629807873406,-0.859375,0.0625,0.515625
1629807873437,-0.84375,0.0625,0.515625
1629807873468,-0.84375,0.0625,0.515625
1629807873500,-0.859375,0.0625,0.515625
1629807873531,-0.859375,0.0625,0.515625
1629807873562,-0.84375,0.0625,0.515625
1629807873593,-0.859375,0.0625,0.5
1629807873625,-0.859375,0.0625,0.515625
1629807873656,-0.859375,0.0625,0.515625
1629807873687,-0.859375,0.0625,0.5
1629807873718,-0.859375,0.078125,0.5
1629807873750,-0.859375,0.078125,0.515625
1629807873781,-0.859375,0.0625,0.515625
1629807873812,-0.859375,0.0625,0.515625
1629807873843,-0.84375,0.0625,0.515625
1629807873875,-0.859375,0.0625,0.515625
1629807873906,-0.859375,0.0625,0.515625
1629807873937,-0.859375,0.0625,0.515625
1629807873968,-0.859375,0.0625,0.515625
1629807874000,-0.859375,0.0625,0.515625
1629807874031,-0.84375,0.0625,0.515625
1629807874062,-0.859375,0.0625,0.515625
1629807874093,-0.859375,0.0625,0.515625
1629807874125,-0.859375,0.0625,0.515625
1629807874156,-0.859375,0.0625,0.515625
1629807874187,-0.84375,0.0625,0.515625
1629807874218,-0.84375,0.0625,0.515625
1629807874250,-0.84375,0.0625,0.515625
1629807874281,-0.859375,0.0625,0.515625
1629807874312,-0.859375,0.0625,0.515625
1629807874343,-0.859375,0.0625,0.515625
1629807874375,-0.859375,0.0625,0.515625
1629807874406,-0.84375,0.0625,0.515625
1629807874437,-0.859375,0.0625,0.515625
1629807874468,-0.859375,0.0625,0.515625
1629807874500,-0.84375,0.0625,0.515625
1629807874531,-0.84375,0.0625,0.515625
1629807874562,-0.859375,0.0625,0.515625
1629807874593,-0.859375,0.0625,0.515625
1629807874625,-0.84375,0.0625,0.515625
1629807874656,-0.84375,0.0625,0.515625
1629807874687,-0.859375,0.0625,0.515625
1629807874718,-0.84375,0.0625,0.515625
1629807874750,-0.84375,0.0625,0.515625
1629807874781,-0.859375,0.0625,0.515625
1629807874812,-0.84375,0.0625,0.515625
1629807874843,-0.84375,0.0625,0.515625
1629807874875,-0.859375,0.0625,0.515625
1629807874906,-0.84375,0.0625,0.53125
1629807874937,-0.84375,0.0625,0.53125
1629807874968,-0.84375,0.0625,0.515625
1629807875000,-0.859375,0.0625,0.5
1629807875031,-0.84375,0.0625,0.5
1629807875062,-0.859375,0.0625,0.53125
1629807875093,-0.84375,0.0625,0.53125
1629807875125,-0.84375,0.0625,0.53125
1629807875156,-0.84375,0.0625,0.53125
1629807875187,-0.84375,0.0625,0.53125
1629807875218,-0.84375,0.0625,0.53125
1629807875250,-0.84375,0.0625,0.53125
1629807875281,-0.84375,0.0625,0.53125
1629807875312,-0.84375,0.0625,0.515625
1629807875343,-0.84375,0.0625,0.515625
1629807875375,-0.84375,0.0625,0.515625
1629807875406,-0.84375,0.0625,0.53125
1629807875437,-0.84375,0.0625,0.515625
1629807875468,-0.84375,0.0625,0.515625
1629807875500,-0.84375,0.0625,0.53125
1629807875531,-0.84375,0.0625,0.53125
1629807875562,-0.84375,0.0625,0.53125
1629807875593,-0.84375,0.0625,0.515625
1629807875625,-0.84375,0.0625,0.515625
1629807875656,-0.84375,0.0625,0.515625
1629807875687,-0.84375,0.0625,0.53125
1629807875718,-0.84375,0.0625,0.515625
1629807875750,-0.84375,0.0625,0.515625
1629807875781,-0.84375,0.0625,0.515625
1629807875812,-0.84375,0.0625,0.53125
1629807875843,-0.84375,0.0625,0.515625
1629807875875,-0.84375,0.0625,0.515625
1629807875906,-0.84375,0.0625,0.515625
1629807875937,-0.84375,0.0625,0.53125
1629807875968,-0.84375,0.0625,0.53125
1629807876000,-0.828125,0.0625,0.53125
1629807876031,-0.84375,0.0625,0.515625
1629807876062,-0.84375,0.0625,0.515625
1629807876093,-0.84375,0.0625,0.515625
1629807876125,-0.84375,0.0625,0.515625
1629807876156,-0.84375,0.0625,0.515625
1629807876187,-0.84375,0.0625,0.515625
1629807876218,-0.84375,0.0625,0.515625
1629807876250,-0.84375,0.078125,0.515625
1629807876281,-0.84375,0.0625,0.515625
1629807876312,-0.84375,0.0625,0.515625
1629807876343,-0.84375,0.0625,0.515625
1629807876375,-0.84375,0.0625,0.515625
1629807876406,-0.859375,0.0625,0.515625
1629807876437,-0.84375,0.0625,0.515625
1629807876468,-0.84375,0.0625,0.515625
1629807876500,-0.84375,0.0625,0.515625
1629807876531,-0.84375,0.0625,0.515625
1629807876562,-0.84375,0.0625,0.515625
1629807876593,-0.84375,0.078125,0.515625
1629807876625,-0.84375,0.0625,0.515625
1629807876656,-0.84375,0.0625,0.515625
1629807876687,-0.84375,0.0625,0.515625
1629807876718,-0.84375,0.0625,0.515625
1629807876750,-0.859375,0.0625,0.515625
1629807876781,-0.859375,0.0625,0.515625
1629807876812,-0.84375,0.0625,0.515625
1629807876843,-0.84375,0.0625,0.515625
1629807876875,-0.859375,0.078125,0.515625
1629807876906,-0.84375,0.078125,0.515625
1629807876937,-0.859375,0.078125,0.515625
1629807876968,-0.859375,0.0625,0.515625
1629807877000,-0.84375,0.0625,0.515625
1629807877031,-0.84375,0.0625,0.515625
1629807877062,-0.859375,0.078125,0.515625
1629807877093,-0.859375,0.078125,0.515625
1629807877125,-0.859375,0.078125,0.515625
1629807877156,-0.84375,0.078125,0.515625
1629807877187,-0.84375,0.078125,0.515625
1629807877218,-0.84375,0.078125,0.515625
1629807877250,-0.859375,0.078125,0.515625
1629807877281,-0.84375,0.078125,0.515625
1629807877312,-0.859375,0.0625,0.515625
1629807877343,-0.859375,0.0625,0.515625
1629807877375,-0.859375,0.0625,0.515625
1629807877406,-0.859375,0.0625,0.515625
1629807877437,-0.859375,0.078125,0.515625
1629807877468,-0.859375,0.078125,0.515625
1629807877500,-0.859375,0.078125,0.515625
1629807877531,-0.859375,0.078125,0.515625
1629807877562,-0.84375,0.078125,0.515625
1629807877593,-0.84375,0.078125,0.515625
1629807877625,-0.84375,0.078125,0.515625
1629807877656,-0.84375,0.078125,0.515625
1629807877687,-0.859375,0.078125,0.515625
1629807877718,-0.859375,0.0625,0.515625
1629807877750,-0.84375,0.0625,0.515625
1629807877781,-0.84375,0.078125,0.5
1629807877812,-0.859375,0.078125,0.515625
1629807877843,-0.859375,0.078125,0.515625
1629807877875,-0.859375,0.0625,0.515625
1629807877906,-0.859375,0.0625,0.515625
1629807877937,-0.84375,0.078125,0.515625
1629807877968,-0.859375,0.0625,0.515625
1629807878000,-0.859375,0.078125,0.515625
1629807878031,-0.84375,0.078125,0.515625
1629807878062,-0.859375,0.0625,0.515625
1629807878093,-0.859375,0.0625,0.515625
1629807878125,-0.859375,0.0625,0.515625
1629807878156,-0.859375,0.0625,0.515625
1629807878187,-0.84375,0.0625,0.515625
1629807878218,-0.84375,0.0625,0.515625
1629807878250,-0.84375,0.0625,0.515625
1629807878281,-0.859375,0.0625,0.515625
1629807878312,-0.84375,0.0625,0.515625
1629807878343,-0.859375,0.078125,0.515625
1629807878375,-0.84375,0.0625,0.515625
1629807878406,-0.84375,0.0625,0.515625
1629807878437,-0.84375,0.0625,0.515625
1629807878468,-0.84375,0.0625,0.515625
1629807878500,-0.84375,0.078125,0.515625
1629807878531,-0.859375,0.0625,0.515625
1629807878562,-0.84375,0.0625,0.515625
1629807878593,-0.84375,0.0625,0.515625
1629807878625,-0.859375,0.0625,0.515625
1629807878656,-0.84375,0.0625,0.515625
1629807878687,-0.84375,0.0625,0.515625
1629807878718,-0.84375,0.078125,0.5
1629807878750,-0.84375,0.0625,0.515625
1629807878781,-0.859375,0.0625,0.515625
1629807878812,-0.84375,0.0625,0.515625
1629807878843,-0.84375,0.0625,0.515625
1629807878875,-0.84375,0.0625,0.515625
1629807878906,-0.859375,0.0625,0.515625
1629807878937,-0.84375,0.0625,0.515625
1629807878968,-0.84375,0.0625,0.515625
1629807879000,-0.84375,0.0625,0.515625
1629807879031,-0.84375,0.0625,0.515625
1629807879062,-0.84375,0.0625,0.515625
1629807879093,-0.84375,0.0625,0.515625
1629807879125,-0.84375,0.0625,0.515625
1629807879156,-0.84375,0.0625,0.515625
1629807879187,-0.84375,0.0625,0.515625
1629807879218,-0.84375,0.0625,0.515625
1629807879250,-0.859375,0.0625,0.515625
1629807879281,-0.84375,0.0625,0.515625
1629807879312,-0.859375,0.0625,0.515625
1629807879343,-0.84375,0.078125,0.515625
1629807879375,-0.84375,0.078125,0.515625
1629807879406,-0.84375,0.078125,0.515625
1629807879437,-0.859375,0.078125,0.515625
1629807879468,-0.859375,0.078125,0.53125
1629807879500,-0.859375,0.078125,0.546875
1629807879531,-0.84375,0.078125,0.515625
1629807879562,-0.84375,0.0625,0.484375
1629807879593,-0.84375,0.0625,0.484375
1629807879625,-0.859375,0.078125,0.5
1629807879656,-0.859375,0.078125,0.515625
1629807879687,-0.859375,0.0625,0.515625
1629807879718,-0.84375,0.046875,0.515625
1629807879750,-0.84375,0.0625,0.515625
1629807879781,-0.84375,0.0625,0.515625
1629807879812,-0.84375,0.0625,0.515625
1629807879843,-0.859375,0.0625,0.515625
1629807879875,-0.84375,0.0625,0.515625
1629807879906,-0.84375,0.0625,0.515625
1629807879937,-0.84375,0.078125,0.515625
1629807879968,-0.859375,0.0625,0.515625
1629807880000,-0.84375,0.0625,0.53125
1629807880031,-0.84375,0.0625,0.515625
1629807880062,-0.84375,0.0625,0.515625
1629807880093,-0.84375,0.0625,0.5
1629807880125,-0.859375,0.0625,0.5
1629807880156,-0.859375,0.0625,0.5
1629807880187,-0.859375,0.0625,0.515625
1629807880218,-0.859375,0.0625,0.53125
1629807880250,-0.859375,0.078125,0.53125
1629807880281,-0.84375,0.0625,0.5
1629807880312,-0.84375,0.0625,0.484375
1629807880343,-0.859375,0.0625,0.515625
1629807880375,-0.84375,0.0625,0.515625
1629807880406,-0.84375,0.0625,0.515625
1629807880437,-0.859375,0.078125,0.515625
1629807880468,-0.84375,0.078125,0.515625
1629807880500,-0.84375,0.078125,0.515625
1629807880531,-0.859375,0.078125,0.515625
1629807880562,-0.859375,0.046875,0.53125
1629807880593,-0.859375,0.046875,0.515625
1629807880625,-0.84375,0.0625,0.515625
1629807880656,-0.84375,0.0625,0.515625
1629807880687,-0.84375,0.0625,0.515625
1629807880718,-0.859375,0.0625,0.515625
1629807880750,-0.84375,0.0625,0.53125
1629807880781,-0.84375,0.078125,0.53125
1629807880812,-0.84375,0.0625,0.515625
1629807880843,-0.84375,0.0625,0.5
1629807880875,-0.859375,0.0625,0.5
1629807880906,-0.859375,0.0625,0.5
1629807880937,-0.859375,0.0625,0.515625
1629807880968,-0.859375,0.046875,0.53125
1629807881000,-0.84375,0.046875,0.515625
1629807881031,-0.828125,0.0625,0.515625
1629807881062,-0.84375,0.078125,0.515625
1629807881093,-0.84375,0.078125,0.515625
1629807881125,-0.859375,0.078125,0.515625
1629807881156,-0.859375,0.0625,0.53125
1629807881187,-0.84375,0.0625,0.53125
1629807881218,-0.84375,0.0625,0.515625
1629807881250,-0.84375,0.046875,0.5
1629807881281,-0.859375,0.0625,0.484375
1629807881312,-0.859375,0.078125,0.515625
1629807881343,-0.859375,0.078125,0.53125
1629807881375,-0.84375,0.078125,0.53125
1629807881406,-0.84375,0.0625,0.515625
1629807881437,-0.84375,0.0625,0.515625
1629807881468,-0.859375,0.0625,0.515625
1629807881500,-0.859375,0.0625,0.515625
1629807881531,-0.859375,0.0625,0.515625
1629807881562,-0.859375,0.078125,0.515625
1629807881593,-0.84375,0.078125,0.53125
1629807881625,-0.84375,0.078125,0.515625
1629807881656,-0.859375,0.0625,0.515625
1629807881687,-0.8125,0.0625,0.53125
1629807881718,-0.8125,0.09375,0.53125
1629807881750,-0.890625,0.078125,0.5
1629807881781,-0.859375,0.0625,0.484375
1629807881812,-0.875,0.0625,0.484375
1629807881843,-0.859375,0.078125,0.546875
1629807881875,-0.828125,0.0625,0.53125
1629807881906,-0.828125,0.0625,0.5
1629807881937,-0.84375,0.0625,0.46875
1629807881968,-0.859375,0.0625,0.484375
1629807882000,-0.859375,0.078125,0.515625
1629807882031,-0.84375,0.078125,0.546875
1629807882062,-0.84375,0.0625,0.53125
1629807882093,-0.859375,0.0625,0.515625
1629807882125,-0.84375,0.0625,0.515625
1629807882156,-0.84375,0.0625,0.515625
1629807882187,-0.84375,0.046875,0.515625
1629807882218,-0.859375,0.046875,0.515625
1629807882250,-0.84375,0.0625,0.515625
1629807882281,-0.828125,0.0625,0.53125
1629807882312,-0.828125,0.0625,0.53125
1629807882343,-0.84375,0.0625,0.53125
1629807882375,-0.84375,0.0625,0.53125
1629807882406,-0.859375,0.046875,0.53125
1629807882437,-0.828125,0.046875,0.546875
1629807882468,-0.8125,0.046875,0.546875
1629807882500,-0.828125,0.078125,0.59375
1629807882531,-0.859375,0.0625,0.578125
1629807882562,-0.890625,0.015625,0.515625
1629807882593,-0.84375,-0.015625,0.484375
1629807882625,-0.84375,-0.015625,0.46875
1629807882656,-0.875,0.015625,0.46875
1629807882687,-0.90625,0.015625,0.4375
1629807882718,-0.9375,0.015625,0.40625
1629807882750,-0.90625,0.015625,0.40625
1629807882781,-0.921875,0.03125,0.390625
1629807882812,-0.875,0.0625,0.359375
1629807882843,-0.828125,0.09375,0.328125
1629807882875,-0.875,0.09375,0.296875
1629807882906,-0.875,0.109375,0.390625
1629807882937,-0.890625,0.109375,0.421875
1629807882968,-0.9375,0.140625,0.4375
1629807883000,-0.953125,0.140625,0.46875
1629807883031,-0.953125,0.140625,0.484375
1629807883062,-0.9375,0.109375,0.546875
1629807883093,-0.890625,0.109375,0.546875
1629807883125,-0.859375,0.0625,0.53125
1629807883156,-0.828125,0.046875,0.515625
1629807883187,-0.8125,0.046875,0.5
1629807883218,-0.828125,0.046875,0.484375
1629807883250,-0.84375,0.046875,0.484375
1629807883281,-0.84375,0.046875,0.5
1629807883312,-0.84375,0.046875,0.515625
1629807883343,-0.859375,0.0625,0.5
1629807883375,-0.859375,0.078125,0.5
1629807883406,-0.84375,0.078125,0.5
1629807883437,-0.84375,0.078125,0.515625
1629807883468,-0.859375,0.09375,0.515625
1629807883500,-0.859375,0.09375,0.515625
1629807883531,-0.859375,0.09375,0.515625
1629807883562,-0.84375,0.09375,0.53125
1629807883593,-0.84375,0.09375,0.546875
1629807883625,-0.828125,0.078125,0.546875
1629807883656,-0.828125,0.078125,0.515625
1629807883687,-0.828125,0.078125,0.53125
1629807883718,-0.8125,0.078125,0.5625
1629807883750,-0.8125,0.078125,0.5625
1629807883781,-0.8125,0.09375,0.5625
1629807883812,-0.828125,0.09375,0.546875
1629807883843,-0.8125,0.09375,0.546875
1629807883875,-0.8125,0.09375,0.5625
1629807883906,-0.828125,0.09375,0.5625
1629807883937,-0.828125,0.09375,0.546875
1629807883968,-0.828125,0.09375,0.546875
1629807884000,-0.796875,0.078125,0.578125
1629807884031,-0.765625,0.078125,0.59375
1629807884062,-0.796875,0.078125,0.609375
1629807884093,-0.75,0.078125,0.640625
1629807884125,-0.75,0.078125,0.640625
1629807884156,-0.78125,0.078125,0.609375
1629807884187,-0.78125,0.078125,0.609375
1629807884218,-0.78125,0.078125,0.609375
1629807884250,-0.765625,0.078125,0.609375
1629807884281,-0.78125,0.09375,0.609375
1629807884312,-0.78125,0.09375,0.609375
1629807884343,-0.78125,0.078125,0.609375
1629807884375,-0.78125,0.078125,0.59375
1629807884406,-0.796875,0.078125,0.59375
1629807884437,-0.765625,0.09375,0.609375
1629807884468,-0.78125,0.09375,0.59375
1629807884500,-0.78125,0.09375,0.609375
1629807884531,-0.78125,0.09375,0.609375
1629807884562,-0.78125,0.09375,0.625
1629807884593,-0.78125,0.09375,0.625
1629807884625,-0.765625,0.078125,0.609375
1629807884656,-0.78125,0.09375,0.609375
1629807884687,-0.78125,0.09375,0.609375
1629807884718,-0.78125,0.09375,0.609375
1629807884750,-0.78125,0.09375,0.625
1629807884781,-0.78125,0.09375,0.609375
1629807884812,-0.765625,0.09375,0.609375
1629807884843,-0.78125,0.09375,0.609375
1629807884875,-0.78125,0.09375,0.609375
1629807884906,-0.78125,0.09375,0.609375
1629807884937,-0.78125,0.09375,0.609375
1629807884968,-0.765625,0.09375,0.609375
1629807885000,-0.78125,0.09375,0.609375
1629807885031,-0.78125,0.09375,0.609375
1629807885062,-0.78125,0.09375,0.609375
1629807885093,-0.78125,0.09375,0.609375
1629807885125,-0.765625,0.09375,0.609375
1629807885156,-0.78125,0.09375,0.609375
1629807885187,-0.78125,0.09375,0.609375
1629807885218,-0.78125,0.09375,0.609375
1629807885250,-0.78125,0.09375,0.609375
1629807885281,-0.78125,0.09375,0.609375
1629807885312,-0.78125,0.09375,0.609375
1629807885343,-0.78125,0.09375,0.609375
1629807885375,-0.78125,0.09375,0.609375
1629807885406,-0.78125,0.09375,0.625
1629807885437,-0.765625,0.09375,0.609375
1629807885468,-0.78125,0.09375,0.609375
1629807885500,-0.78125,0.09375,0.609375
1629807885531,-0.78125,0.09375,0.609375
1629807885562,-0.78125,0.09375,0.59375
1629807885593,-0.78125,0.09375,0.59375
1629807885625,-0.78125,0.109375,0.59375
1629807885656,-0.78125,0.109375,0.609375
1629807885687,-0.78125,0.09375,0.59375
1629807885718,-0.78125,0.109375,0.609375
1629807885750,-0.78125,0.09375,0.59375
1629807885781,-0.78125,0.09375,0.609375
1629807885812,-0.78125,0.09375,0.59375
1629807885843,-0.78125,0.09375,0.59375
1629807885875,-0.78125,0.09375,0.609375
1629807885906,-0.78125,0.09375,0.609375
1629807885937,-0.78125,0.09375,0.609375
1629807885968,-0.78125,0.09375,0.609375
1629807886000,-0.765625,0.09375,0.609375
1629807886031,-0.78125,0.109375,0.59375
1629807886062,-0.78125,0.09375,0.59375
1629807886093,-0.78125,0.09375,0.609375
1629807886125,-0.78125,0.09375,0.609375
1629807886156,-0.78125,0.09375,0.59375
1629807886187,-0.78125,0.109375,0.609375
1629807886218,-0.78125,0.109375,0.609375
1629807886250,-0.78125,0.09375,0.609375
1629807886281,-0.765625,0.09375,0.609375
1629807886312,-0.78125,0.09375,0.609375
1629807886343,-0.78125,0.109375,0.609375
1629807886375,-0.78125,0.109375,0.609375
1629807886406,-0.78125,0.109375,0.609375
1629807886437,-0.78125,0.109375,0.609375
1629807886468,-0.78125,0.09375,0.609375
1629807886500,-0.78125,0.109375,0.609375
1629807886531,-0.78125,0.09375,0.609375
1629807886562,-0.78125,0.09375,0.609375
1629807886593,-0.78125,0.09375,0.609375
1629807886625,-0.765625,0.09375,0.609375
1629807886656,-0.78125,0.09375,0.609375
1629807886687,-0.78125,0.09375,0.609375
1629807886718,-0.78125,0.09375,0.609375
1629807886750,-0.78125,0.09375,0.609375
1629807886781,-0.78125,0.09375,0.609375
1629807886812,-0.765625,0.09375,0.609375
1629807886843,-0.78125,0.09375,0.625
1629807886875,-0.78125,0.09375,0.609375
1629807886906,-0.78125,0.09375,0.609375
1629807886937,-0.765625,0.09375,0.609375
1629807886968,-0.78125,0.09375,0.609375
1629807887000,-0.78125,0.09375,0.59375
1629807887031,-0.78125,0.09375,0.59375
1629807887062,-0.765625,0.09375,0.625
1629807887093,-0.78125,0.09375,0.609375
1629807887125,-0.78125,0.09375,0.625
1629807887156,-0.78125,0.09375,0.609375
1629807887187,-0.78125,0.09375,0.609375
1629807887218,-0.78125,0.09375,0.609375
1629807887250,-0.765625,0.09375,0.609375
1629807887281,-0.765625,0.09375,0.625
1629807887312,-0.78125,0.09375,0.609375
1629807887343,-0.765625,0.09375,0.625
1629807887375,-0.78125,0.09375,0.609375
1629807887406,-0.78125,0.09375,0.609375
1629807887437,-0.765625,0.09375,0.625
1629807887468,-0.78125,0.09375,0.609375
1629807887500,-0.78125,0.09375,0.609375
1629807887531,-0.765625,0.09375,0.625
1629807887562,-0.765625,0.09375,0.625
1629807887593,-0.78125,0.09375,0.609375
1629807887625,-0.78125,0.09375,0.609375
1629807887656,-0.78125,0.09375,0.609375
1629807887687,-0.765625,0.09375,0.625
1629807887718,-0.78125,0.09375,0.625
1629807887750,-0.78125,0.09375,0.609375
1629807887781,-0.765625,0.078125,0.609375
1629807887812,-0.765625,0.078125,0.625
1629807887843,-0.78125,0.09375,0.625
1629807887875,-0.765625,0.09375,0.625
1629807887906,-0.765625,0.09375,0.625
1629807887937,-0.78125,0.078125,0.609375
1629807887968,-0.765625,0.078125,0.609375
1629807888000,-0.765625,0.078125,0.625
1629807888031,-0.78125,0.078125,0.609375
1629807888062,-0.78125,0.09375,0.609375
1629807888093,-0.765625,0.09375,0.625
1629807888125,-0.78125,0.078125,0.609375
1629807888156,-0.78125,0.09375,0.625
1629807888187,-0.765625,0.078125,0.625
1629807888218,-0.78125,0.078125,0.625
1629807888250,-0.765625,0.078125,0.609375
1629807888281,-0.765625,0.078125,0.625
1629807888312,-0.765625,0.078125,0.625
1629807888343,-0.765625,0.078125,0.625
1629807888375,-0.765625,0.078125,0.625
1629807888406,-0.765625,0.078125,0.625
1629807888437,-0.765625,0.078125,0.625
1629807888468,-0.765625,0.078125,0.609375
1629807888500,-0.765625,0.09375,0.625
1629807888531,-0.765625,0.078125,0.625
1629807888562,-0.765625,0.078125,0.625
1629807888593,-0.765625,0.078125,0.609375
1629807888625,-0.765625,0.078125,0.609375
1629807888656,-0.765625,0.078125,0.625
1629807888687,-0.765625,0.078125,0.625
1629807888718,-0.765625,0.078125,0.609375
1629807888750,-0.765625,0.078125,0.609375
1629807888781,-0.765625,0.078125,0.625
1629807888812,-0.78125,0.078125,0.625
1629807888843,-0.765625,0.078125,0.609375
1629807888875,-0.765625,0.078125,0.625
1629807888906,-0.765625,0.078125,0.625
1629807888937,-0.765625,0.078125,0.625
1629807888968,-0.78125,0.078125,0.625
1629807889000,-0.765625,0.078125,0.609375
1629807889031,-0.765625,0.078125,0.625
1629807889062,-0.765625,0.078125,0.625
1629807889093,-0.765625,0.078125,0.625
1629807889125,-0.765625,0.078125,0.609375
1629807889156,-0.765625,0.078125,0.625
1629807889187,-0.765625,0.078125,0.625
1629807889218,-0.78125,0.078125,0.625
1629807889250,-0.765625,0.078125,0.625
1629807889281,-0.78125,0.078125,0.625
1629807889312,-0.78125,0.078125,0.609375
1629807889343,-0.78125,0.078125,0.59375
1629807889375,-0.78125,0.078125,0.59375
1629807889406,-0.78125,0.0625,0.609375
1629807889437,-0.78125,0.078125,0.625
1629807889468,-0.765625,0.0625,0.625
1629807889500,-0.765625,0.078125,0.625
1629807889531,-0.765625,0.078125,0.609375
1629807889562,-0.765625,0.078125,0.625
1629807889593,-0.765625,0.078125,0.625
1629807889625,-0.765625,0.078125,0.625
1629807889656,-0.765625,0.078125,0.625
1629807889687,-0.78125,0.078125,0.609375
1629807889718,-0.765625,0.078125,0.625
1629807889750,-0.765625,0.078125,0.625
1629807889781,-0.765625,0.078125,0.625
1629807889812,-0.765625,0.078125,0.625
1629807889843,-0.765625,0.078125,0.625
1629807889875,-0.765625,0.078125,0.625
1629807889906,-0.765625,0.078125,0.625
1629807889937,-0.765625,0.078125,0.625
1629807889968,-0.765625,0.078125,0.625
1629807890000,-0.765625,0.078125,0.625
1629807890031,-0.765625,0.078125,0.625
1629807890062,-0.765625,0.078125,0.625
1629807890093,-0.78125,0.078125,0.625
1629807890125,-0.765625,0.078125,0.625
1629807890156,-0.765625,0.078125,0.609375
1629807890187,-0.765625,0.078125,0.625
1629807890218,-0.765625,0.078125,0.625
1629807890250,-0.765625,0.078125,0.625
1629807890281,-0.765625,0.09375,0.625
1629807890312,-0.78125,0.078125,0.625
1629807890343,-0.765625,0.09375,0.609375
1629807890375,-0.765625,0.09375,0.625
1629807890406,-0.765625,0.078125,0.625
1629807890437,-0.78125,0.09375,0.59375
1629807890468,-0.78125,0.09375,0.609375
1629807890500,-0.765625,0.078125,0.640625
1629807890531,-0.765625,0.078125,0.640625
1629807890562,-0.75,0.078125,0.640625
1629807890593,-0.75,0.09375,0.640625
1629807890625,-0.765625,0.09375,0.625
1629807890656,-0.765625,0.09375,0.640625
1629807890687,-0.765625,0.09375,0.625
1629807890718,-0.765625,0.078125,0.640625
1629807890750,-0.75,0.078125,0.625
1629807890781,-0.75,0.09375,0.625
1629807890812,-0.765625,0.078125,0.625
1629807890843,-0.765625,0.09375,0.625
1629807890875,-0.765625,0.09375,0.625
1629807890906,-0.765625,0.09375,0.625
1629807890937,-0.765625,0.09375,0.625
1629807890968,-0.765625,0.09375,0.625
1629807891000,-0.765625,0.09375,0.625
1629807891031,-0.765625,0.09375,0.640625
1629807891062,-0.765625,0.09375,0.625
1629807891093,-0.765625,0.078125,0.625
1629807891125,-0.765625,0.09375,0.625
1629807891156,-0.765625,0.09375,0.625
1629807891187,-0.765625,0.09375,0.625
1629807891218,-0.765625,0.09375,0.625
1629807891250,-0.765625,0.09375,0.640625
1629807891281,-0.765625,0.078125,0.640625
1629807891312,-0.765625,0.09375,0.625
1629807891343,-0.765625,0.09375,0.625
1629807891375,-0.765625,0.09375,0.625
1629807891406,-0.765625,0.09375,0.625
1629807891437,-0.75,0.09375,0.640625
1629807891468,-0.78125,0.09375,0.625
1629807891500,-0.765625,0.09375,0.625
1629807891531,-0.765625,0.09375,0.625
1629807891562,-0.765625,0.09375,0.625
1629807891593,-0.765625,0.09375,0.625
1629807891625,-0.765625,0.09375,0.625
1629807891656,-0.765625,0.09375,0.625
1629807891687,-0.765625,0.09375,0.625
1629807891718,-0.765625,0.078125,0.625
1629807891750,-0.765625,0.09375,0.625
1629807891781,-0.78125,0.09375,0.625
1629807891812,-0.78125,0.078125,0.625
1629807891843,-0.78125,0.09375,0.609375
1629807891875,-0.78125,0.09375,0.609375
1629807891906,-0.78125,0.09375,0.609375
1629807891937,-0.765625,0.09375,0.609375
1629807891968,-0.78125,0.09375,0.625
1629807892000,-0.765625,0.09375,0.609375
1629807892031,-0.765625,0.09375,0.625
1629807892062,-0.765625,0.078125,0.625
1629807892093,-0.765625,0.078125,0.625
1629807892125,-0.765625,0.09375,0.625
1629807892156,-0.765625,0.09375,0.625
1629807892187,-0.78125,0.078125,0.625
1629807892218,-0.765625,0.078125,0.625
1629807892250,-0.765625,0.078125,0.625
1629807892281,-0.765625,0.09375,0.625
1629807892312,-0.765625,0.078125,0.625
1629807892343,-0.78125,0.09375,0.609375
1629807892375,-0.78125,0.09375,0.609375
1629807892406,-0.765625,0.078125,0.625
1629807892437,-0.765625,0.078125,0.625
1629807892468,-0.765625,0.09375,0.625
1629807892500,-0.765625,0.078125,0.609375
1629807892531,-0.765625,0.078125,0.609375
1629807892562,-0.765625,0.078125,0.625
1629807892593,-0.765625,0.078125,0.625
1629807892625,-0.765625,0.078125,0.625
1629807892656,-0.765625,0.078125,0.625
1629807892687,-0.78125,0.078125,0.609375
1629807892718,-0.78125,0.078125,0.609375
1629807892750,-0.765625,0.078125,0.609375
1629807892781,-0.78125,0.078125,0.609375
1629807892812,-0.78125,0.078125,0.625
1629807892843,-0.78125,0.078125,0.625
1629807892875,-0.765625,0.078125,0.625
1629807892906,-0.78125,0.078125,0.625
1629807892937,-0.78125,0.078125,0.609375
1629807892968,-0.78125,0.078125,0.609375
1629807893000,-0.78125,0.078125,0.609375
1629807893031,-0.765625,0.078125,0.625
1629807893062,-0.78125,0.078125,0.609375
1629807893093,-0.765625,0.078125,0.609375
1629807893125,-0.765625,0.078125,0.609375
1629807893156,-0.78125,0.078125,0.609375
1629807893187,-0.78125,0.078125,0.625
1629807893218,-0.78125,0.078125,0.625
1629807893250,-0.765625,0.078125,0.625
1629807893281,-0.78125,0.078125,0.609375
1629807893312,-0.78125,0.078125,0.609375
1629807893343,-0.78125,0.078125,0.609375
1629807893375,-0.78125,0.078125,0.59375
1629807893406,-0.78125,0.078125,0.609375
1629807893437,-0.78125,0.078125,0.609375
1629807893468,-0.78125,0.078125,0.609375
1629807893500,-0.78125,0.078125,0.609375
1629807893531,-0.78125,0.0625,0.625
1629807893562,-0.765625,0.078125,0.625
1629807893593,-0.78125,0.078125,0.625
1629807893625,-0.765625,0.078125,0.625
1629807893656,-0.78125,0.078125,0.609375
1629807893687,-0.78125,0.078125,0.609375
1629807893718,-0.765625,0.0625,0.609375
1629807893750,-0.78125,0.0625,0.609375
1629807893781,-0.78125,0.0625,0.609375
1629807893812,-0.78125,0.0625,0.609375
1629807893843,-0.78125,0.0625,0.609375
1629807893875,-0.78125,0.0625,0.625
1629807893906,-0.78125,0.0625,0.625
1629807893937,-0.78125,0.0625,0.625
1629807893968,-0.765625,0.0625,0.625
1629807894000,-0.765625,0.078125,0.609375
1629807894031,-0.765625,0.078125,0.625
1629807894062,-0.765625,0.078125,0.625
1629807894093,-0.78125,0.0625,0.625
1629807894125,-0.765625,0.0625,0.625
1629807894156,-0.78125,0.0625,0.625
1629807894187,-0.765625,0.0625,0.625
1629807894218,-0.765625,0.0625,0.625
1629807894250,-0.78125,0.0625,0.625
1629807894281,-0.765625,0.0625,0.625
1629807894312,-0.765625,0.078125,0.625
1629807894343,-0.765625,0.0625,0.625
1629807894375,-0.765625,0.0625,0.625
1629807894406,-0.765625,0.0625,0.625
1629807894437,-0.765625,0.0625,0.625
1629807894468,-0.765625,0.0625,0.625
1629807894500,-0.765625,0.0625,0.625
1629807894531,-0.78125,0.0625,0.625
1629807894562,-0.765625,0.0625,0.625
1629807894593,-0.765625,0.0625,0.625
1629807894625,-0.765625,0.0625,0.625
1629807894656,-0.765625,0.0625,0.625
1629807894687,-0.765625,0.0625,0.625
1629807894718,-0.765625,0.0625,0.625
1629807894750,-0.78125,0.0625,0.625
1629807894781,-0.765625,0.078125,0.625
1629807894812,-0.765625,0.0625,0.625
1629807894843,-0.78125,0.0625,0.609375
1629807894875,-0.765625,0.0625,0.625
1629807894906,-0.765625,0.0625,0.625
1629807894937,-0.78125,0.0625,0.625
1629807894968,-0.765625,0.0625,0.609375
1629807895000,-0.765625,0.0625,0.625
1629807895031,-0.765625,0.0625,0.625
1629807895062,-0.78125,0.0625,0.625
1629807895093,-0.765625,0.0625,0.625
1629807895125,-0.765625,0.0625,0.625
1629807895156,-0.765625,0.0625,0.625
1629807895187,-0.78125,0.0625,0.609375
1629807895218,-0.78125,0.0625,0.625
1629807895250,-0.765625,0.0625,0.625
1629807895281,-0.765625,0.0625,0.625
1629807895312,-0.765625,0.0625,0.625
1629807895343,-0.765625,0.0625,0.625
1629807895375,-0.78125,0.0625,0.625
1629807895406,-0.765625,0.0625,0.625
1629807895437,-0.765625,0.0625,0.625
1629807895468,-0.78125,0.0625,0.625
1629807895500,-0.765625,0.0625,0.625
1629807895531,-0.765625,0.0625,0.625
1629807895562,-0.765625,0.0625,0.59375
1629807895593,-0.765625,0.078125,0.640625
1629807895625,-0.765625,0.0625,0.625
1629807895656,-0.765625,0.0625,0.625
1629807895687,-0.765625,0.078125,0.625
1629807895718,-0.765625,0.0625,0.625
1629807895750,-0.765625,0.078125,0.625
1629807895781,-0.765625,0.078125,0.625
1629807895812,-0.765625,0.078125,0.625
1629807895843,-0.765625,0.078125,0.625
1629807895875,-0.765625,0.078125,0.625
1629807895906,-0.765625,0.078125,0.625
1629807895937,-0.765625,0.0625,0.625
1629807895968,-0.765625,0.078125,0.625
1629807896000,-0.78125,0.078125,0.609375
1629807896031,-0.765625,0.078125,0.625
1629807896062,-0.765625,0.078125,0.625
1629807896093,-0.78125,0.078125,0.609375
1629807896125,-0.78125,0.078125,0.609375
1629807896156,-0.765625,0.078125,0.625
1629807896187,-0.78125,0.078125,0.625
1629807896218,-0.78125,0.078125,0.609375
1629807896250,-0.78125,0.078125,0.625
1629807896281,-0.78125,0.078125,0.625
1629807896312,-0.765625,0.078125,0.625
1629807896343,-0.765625,0.078125,0.609375
1629807896375,-0.765625,0.078125,0.609375
1629807896406,-0.78125,0.078125,0.625
1629807896437,-0.78125,0.078125,0.59375
1629807896468,-0.78125,0.078125,0.609375
1629807896500,-0.78125,0.078125,0.625
1629807896531,-0.765625,0.078125,0.625
1629807896562,-0.765625,0.078125,0.609375
1629807896593,-0.78125,0.078125,0.609375
1629807896625,-0.765625,0.078125,0.609375
1629807896656,-0.765625,0.078125,0.625
1629807896687,-0.78125,0.078125,0.625
1629807896718,-0.78125,0.078125,0.625
1629807896750,-0.765625,0.078125,0.625
1629807896781,-0.78125,0.078125,0.625
1629807896812,-0.78125,0.09375,0.609375
1629807896843,-0.78125,0.09375,0.609375
1629807896875,-0.78125,0.078125,0.609375
1629807896906,-0.78125,0.078125,0.609375
1629807896937,-0.78125,0.078125,0.625
1629807896968,-0.765625,0.078125,0.609375
1629807897000,-0.765625,0.078125,0.625
1629807897031,-0.765625,0.078125,0.625
1629807897062,-0.78125,0.09375,0.609375
1629807897093,-0.796875,0.078125,0.578125
1629807897125,-0.78125,0.09375,0.609375
1629807897156,-0.78125,0.078125,0.609375
1629807897187,-0.78125,0.078125,0.609375
1629807897218,-0.78125,0.078125,0.609375
1629807897250,-0.78125,0.078125,0.609375
1629807897281,-0.78125,0.078125,0.609375
1629807897312,-0.78125,0.078125,0.609375
1629807897343,-0.765625,0.078125,0.625
1629807897375,-0.78125,0.078125,0.609375
1629807897406,-0.78125,0.078125,0.609375
1629807897437,-0.78125,0.078125,0.609375
1629807897468,-0.78125,0.078125,0.609375
1629807897500,-0.78125,0.078125,0.609375
1629807897531,-0.78125,0.078125,0.609375
1629807897562,-0.78125,0.078125,0.609375
1629807897593,-0.78125,0.078125,0.609375
1629807897625,-0.78125,0.078125,0.609375
1629807897656,-0.78125,0.078125,0.609375
1629807897687,-0.78125,0.078125,0.625
1629807897718,-0.78125,0.078125,0.609375
1629807897750,-0.78125,0.078125,0.609375
1629807897781,-0.78125,0.09375,0.609375
1629807897812,-0.78125,0.078125,0.609375
1629807897843,-0.78125,0.078125,0.609375
1629807897875,-0.78125,0.078125,0.609375
1629807897906,-0.765625,0.078125,0.609375
1629807897937,-0.78125,0.078125,0.609375
1629807897968,-0.78125,0.078125,0.609375
1629807898000,-0.78125,0.078125,0.609375
1629807898031,-0.78125,0.078125,0.609375
1629807898062,-0.78125,0.078125,0.609375
1629807898093,-0.78125,0.078125,0.59375
1629807898125,-0.78125,0.078125,0.609375
1629807898156,-0.78125,0.078125,0.609375
1629807898187,-0.78125,0.078125,0.609375
1629807898218,-0.78125,0.078125,0.609375
1629807898250,-0.78125,0.078125,0.609375
1629807898281,-0.78125,0.078125,0.609375
1629807898312,-0.78125,0.078125,0.609375
1629807898343,-0.78125,0.078125,0.609375
1629807898375,-0.78125,0.078125,0.609375
1629807898406,-0.78125,0.078125,0.609375
1629807898437,-0.78125,0.078125,0.609375
1629807898468,-0.78125,0.078125,0.609375
1629807898500,-0.78125,0.078125,0.625
1629807898531,-0.78125,0.078125,0.625
1629807898562,-0.78125,0.078125,0.609375
1629807898593,-0.78125,0.078125,0.609375
1629807898625,-0.765625,0.078125,0.609375
1629807898656,-0.78125,0.078125,0.609375
1629807898687,-0.78125,0.078125,0.609375
1629807898718,-0.78125,0.078125,0.609375
1629807898750,-0.78125,0.078125,0.609375
1629807898781,-0.78125,0.0625,0.625
1629807898812,-0.765625,0.078125,0.609375
1629807898843,-0.78125,0.078125,0.609375
1629807898875,-0.78125,0.078125,0.609375
1629807898906,-0.78125,0.078125,0.625
1629807898937,-0.78125,0.078125,0.609375
1629807898968,-0.78125,0.078125,0.609375
1629807899000,-0.78125,0.078125,0.609375
1629807899031,-0.78125,0.078125,0.609375
1629807899062,-0.78125,0.078125,0.609375
1629807899093,-0.78125,0.078125,0.609375
1629807899125,-0.78125,0.0625,0.609375
1629807899156,-0.78125,0.078125,0.609375
1629807899187,-0.78125,0.0625,0.609375
1629807899218,-0.78125,0.078125,0.609375
1629807899250,-0.78125,0.0625,0.625
1629807899281,-0.78125,0.0625,0.609375
1629807899312,-0.78125,0.0625,0.609375
1629807899343,-0.78125,0.078125,0.609375
1629807899375,-0.78125,0.0625,0.609375
1629807899406,-0.78125,0.078125,0.609375
1629807899437,-0.78125,0.0625,0.625
1629807899468,-0.78125,0.078125,0.609375
1629807899500,-0.78125,0.0625,0.609375
1629807899531,-0.78125,0.0625,0.609375
1629807899562,-0.78125,0.078125,0.609375
1629807899593,-0.78125,0.078125,0.609375
1629807899625,-0.78125,0.078125,0.609375
1629807899656,-0.78125,0.078125,0.609375
1629807899687,-0.78125,0.0625,0.609375
1629807899718,-0.765625,0.0625,0.625
1629807899750,-0.78125,0.0625,0.625
1629807899781,-0.78125,0.0625,0.609375
1629807899812,-0.78125,0.0625,0.609375
1629807899843,-0.78125,0.078125,0.609375
1629807899875,-0.78125,0.078125,0.609375
1629807899906,-0.78125,0.078125,0.609375
1629807899937,-0.78125,0.0625,0.609375
1629807899968,-0.78125,0.0625,0.625
1629807900000,-0.78125,0.0625,0.609375
1629807900031,-0.78125,0.0625,0.625
1629807900062,-0.78125,0.0625,0.625
1629807900093,-0.78125,0.0625,0.625
1629807900125,-0.765625,0.0625,0.609375
1629807900156,-0.78125,0.078125,0.625
1629807900187,-0.78125,0.078125,0.609375
1629807900218,-0.796875,0.0625,0.59375
1629807900250,-0.78125,0.0625,0.625
1629807900281,-0.78125,0.0625,0.609375
1629807900312,-0.78125,0.0625,0.625
1629807900343,-0.78125,0.0625,0.609375
1629807900375,-0.78125,0.0625,0.609375
1629807900406,-0.78125,0.0625,0.609375
1629807900437,-0.78125,0.0625,0.625
1629807900468,-0.78125,0.0625,0.625
1629807900500,-0.78125,0.0625,0.609375
1629807900531,-0.78125,0.0625,0.609375
1629807900562,-0.78125,0.0625,0.625
1629807900593,-0.78125,0.078125,0.625
1629807900625,-0.78125,0.078125,0.609375
1629807900656,-0.78125,0.0625,0.609375
1629807900687,-0.78125,0.0625,0.609375
1629807900718,-0.765625,0.0625,0.625
1629807900750,-0.78125,0.0625,0.609375
1629807900781,-0.78125,0.0625,0.609375
1629807900812,-0.78125,0.0625,0.625
1629807900843,-0.78125,0.0625,0.609375
1629807900875,-0.78125,0.0625,0.609375
1629807900906,-0.78125,0.0625,0.609375
1629807900937,-0.78125,0.0625,0.609375
1629807900968,-0.78125,0.0625,0.625
1629807901000,-0.78125,0.0625,0.625
1629807901031,-0.78125,0.0625,0.609375
1629807901062,-0.78125,0.0625,0.625
1629807901093,-0.765625,0.0625,0.609375
1629807901125,-0.78125,0.0625,0.609375
1629807901156,-0.78125,0.0625,0.609375
1629807901187,-0.78125,0.0625,0.625
1629807901218,-0.78125,0.0625,0.625
1629807901250,-0.78125,0.078125,0.609375
1629807901281,-0.78125,0.0625,0.609375
1629807901312,-0.78125,0.0625,0.609375
1629807901343,-0.78125,0.0625,0.609375
1629807901375,-0.78125,0.0625,0.609375
1629807901406,-0.78125,0.0625,0.625
1629807901437,-0.78125,0.078125,0.625
1629807901468,-0.78125,0.0625,0.625
1629807901500,-0.78125,0.078125,0.609375
1629807901531,-0.78125,0.0625,0.609375
1629807901562,-0.765625,0.0625,0.609375
1629807901593,-0.78125,0.0625,0.609375
1629807901625,-0.78125,0.078125,0.609375
1629807901656,-0.78125,0.0625,0.609375
1629807901687,-0.78125,0.078125,0.609375
1629807901718,-0.78125,0.078125,0.625
1629807901750,-0.765625,0.0625,0.625
1629807901781,-0.78125,0.0625,0.609375
1629807901812,-0.78125,0.078125,0.609375
1629807901843,-0.78125,0.078125,0.609375
1629807901875,-0.78125,0.078125,0.609375
1629807901906,-0.78125,0.0625,0.609375
1629807901937,-0.78125,0.0625,0.609375
1629807901968,-0.78125,0.078125,0.609375
1629807902000,-0.78125,0.0625,0.609375
1629807902031,-0.78125,0.078125,0.609375
1629807902062,-0.78125,0.078125,0.609375
1629807902093,-0.78125,0.078125,0.609375
1629807902125,-0.78125,0.078125,0.609375
1629807902156,-0.78125,0.078125,0.609375
1629807902187,-0.78125,0.078125,0.609375
1629807902218,-0.78125,0.078125,0.609375
1629807902250,-0.78125,0.078125,0.609375
1629807902281,-0.78125,0.078125,0.609375
1629807902312,-0.78125,0.078125,0.609375
1629807902343,-0.78125,0.078125,0.609375
1629807902375,-0.78125,0.078125,0.609375
1629807902406,-0.78125,0.078125,0.609375
1629807902437,-0.78125,0.078125,0.609375
1629807902468,-0.78125,0.078125,0.609375
1629807902500,-0.78125,0.078125,0.609375
1629807902531,-0.78125,0.078125,0.609375
1629807902562,-0.78125,0.078125,0.609375
1629807902593,-0.78125,0.078125,0.609375
1629807902625,-0.78125,0.078125,0.609375
1629807902656,-0.78125,0.078125,0.625
1629807902687,-0.78125,0.0625,0.609375
1629807902718,-0.78125,0.0625,0.609375
1629807902750,-0.78125,0.078125,0.609375
1629807902781,-0.78125,0.078125,0.609375
1629807902812,-0.78125,0.078125,0.609375
1629807902843,-0.78125,0.078125,0.609375
1629807902875,-0.78125,0.078125,0.59375
1629807902906,-0.78125,0.078125,0.609375
1629807902937,-0.78125,0.078125,0.609375
1629807902968,-0.78125,0.078125,0.609375
1629807903000,-0.78125,0.078125,0.609375
1629807903031,-0.78125,0.078125,0.609375
1629807903062,-0.78125,0.078125,0.609375
1629807903093,-0.78125,0.078125,0.609375
1629807903125,-0.78125,0.078125,0.609375
1629807903156,-0.78125,0.078125,0.609375
1629807903187,-0.78125,0.078125,0.609375
1629807903218,-0.78125,0.078125,0.609375
1629807903250,-0.78125,0.078125,0.609375
1629807903281,-0.78125,0.078125,0.609375
1629807903312,-0.78125,0.078125,0.609375
1629807903343,-0.78125,0.078125,0.609375
1629807903375,-0.78125,0.078125,0.609375
1629807903406,-0.78125,0.078125,0.609375
1629807903437,-0.78125,0.078125,0.609375
1629807903468,-0.78125,0.0625,0.609375
1629807903500,-0.78125,0.078125,0.609375
1629807903531,-0.78125,0.078125,0.609375
1629807903562,-0.78125,0.078125,0.609375
1629807903593,-0.78125,0.0625,0.609375
1629807903625,-0.78125,0.078125,0.609375
1629807903656,-0.78125,0.078125,0.609375
1629807903687,-0.78125,0.078125,0.609375
1629807903718,-0.78125,0.078125,0.609375
1629807903750,-0.78125,0.078125,0.609375
1629807903781,-0.78125,0.078125,0.609375
1629807903812,-0.78125,0.078125,0.609375
1629807903843,-0.78125,0.078125,0.609375
1629807903875,-0.78125,0.078125,0.609375
1629807903906,-0.78125,0.078125,0.609375
1629807903937,-0.78125,0.078125,0.609375
1629807903968,-0.78125,0.078125,0.609375
1629807904000,-0.78125,0.0625,0.609375
1629807904031,-0.78125,0.078125,0.609375
1629807904062,-0.78125,0.078125,0.609375
1629807904093,-0.78125,0.078125,0.609375
1629807904125,-0.78125,0.078125,0.609375
1629807904156,-0.78125,0.078125,0.609375
1629807904187,-0.78125,0.078125,0.609375
1629807904218,-0.78125,0.078125,0.609375
1629807904250,-0.78125,0.078125,0.609375
1629807904281,-0.78125,0.078125,0.609375
1629807904312,-0.78125,0.0625,0.625
1629807904343,-0.78125,0.078125,0.609375
1629807904375,-0.78125,0.078125,0.59375
1629807904406,-0.78125,0.0625,0.609375
1629807904437,-0.78125,0.0625,0.609375
1629807904468,-0.78125,0.078125,0.609375
1629807904500,-0.78125,0.078125,0.609375
1629807904531,-0.78125,0.0625,0.609375
1629807904562,-0.78125,0.0625,0.609375
1629807904593,-0.78125,0.0625,0.625
1629807904625,-0.78125,0.0625,0.625
1629807904656,-0.78125,0.0625,0.609375
1629807904687,-0.78125,0.0625,0.625
1629807904718,-0.78125,0.0625,0.625
1629807904750,-0.78125,0.0625,0.625
1629807904781,-0.78125,0.078125,0.625
1629807904812,-0.78125,0.0625,0.609375
1629807904843,-0.765625,0.0625,0.609375
1629807904875,-0.78125,0.0625,0.609375
1629807904906,-0.78125,0.0625,0.609375
1629807904937,-0.765625,0.046875,0.609375
1629807904968,-0.78125,0.0625,0.609375
1629807905000,-0.765625,0.0625,0.640625
1629807905031,-0.78125,0.0625,0.609375
1629807905062,-0.765625,0.046875,0.625
1629807905093,-0.78125,0.046875,0.609375
1629807905125,-0.78125,0.0625,0.59375
1629807905156,-0.78125,0.0625,0.609375
1629807905187,-0.78125,0.0625,0.609375
1629807905218,-0.765625,0.0625,0.625
1629807905250,-0.765625,0.0625,0.609375
1629807905281,-0.78125,0.046875,0.609375
1629807905312,-0.796875,0.0625,0.609375
1629807905343,-0.78125,0.0625,0.609375
1629807905375,-0.8125,0.0625,0.578125
1629807905406,-0.78125,0.0625,0.625
1629807905437,-0.78125,0.0625,0.59375
1629807905468,-0.828125,0.0625,0.5625
1629807905500,-0.828125,0.0625,0.546875
1629807905531,-0.8125,0.0625,0.578125
1629807905562,-0.8125,0.0625,0.546875
1629807905593,-0.8125,0.046875,0.546875
1629807905625,-0.828125,0.046875,0.53125
1629807905656,-0.859375,0.046875,0.515625
1629807905687,-0.875,0.046875,0.484375
1629807905718,-0.859375,0.0625,0.46875
1629807905750,-0.875,0.0625,0.46875
1629807905781,-0.890625,0.0625,0.453125
1629807905812,-0.890625,0.0625,0.453125
1629807905843,-0.90625,0.0625,0.4375
1629807905875,-0.890625,0.0625,0.453125
1629807905906,-0.890625,0.0625,0.453125
1629807905937,-0.90625,0.0625,0.4375
1629807905968,-0.890625,0.046875,0.4375
1629807906000,-0.875,0.046875,0.421875
1629807906031,-0.90625,0.046875,0.421875
1629807906062,-0.90625,0.03125,0.40625
1629807906093,-0.921875,0.046875,0.375
1629807906125,-0.90625,0.046875,0.375
1629807906156,-0.921875,0.046875,0.359375
1629807906187,-0.90625,0.046875,0.375
1629807906218,-0.953125,0.046875,0.296875
1629807906250,-0.96875,0.046875,0.25
1629807906281,-0.96875,0.046875,0.21875
1629807906312,-0.96875,0.046875,0.234375
1629807906343,-0.984375,0.046875,0.234375
1629807906375,-0.984375,0.03125,0.203125
1629807906406,-0.984375,0.046875,0.203125
1629807906437,-0.9375,0.0625,0.25
1629807906468,-0.96875,0.0625,0.265625
1629807906500,-0.9375,0.046875,0.21875
1629807906531,-0.984375,0.046875,0.1875
1629807906562,-0.984375,0.046875,0.203125
1629807906593,-0.96875,0.0625,0.234375
1629807906625,-0.953125,0.0625,0.21875
1629807906656,-0.984375,0.078125,0.171875
1629807906687,-0.953125,0.078125,0.234375
1629807906718,-0.96875,0.0625,0.1875
1629807906750,-0.984375,0.0625,0.109375
1629807906781,-1.0,0.0625,0.125
1629807906812,-1.03125,0.0625,0.1875
1629807906843,-1.0,0.0625,0.140625
1629807906875,-0.984375,0.078125,0.140625
1629807906906,-0.984375,0.0625,0.140625
1629807906937,-1.0,0.078125,0.140625
1629807906968,-0.984375,0.078125,0.140625
1629807907000,-1.0,0.078125,0.109375
1629807907031,-0.984375,0.078125,0.125
1629807907062,-0.984375,0.078125,0.140625
1629807907093,-0.984375,0.078125,0.125
1629807907125,-0.96875,0.0625,0.140625
1629807907156,-1.015625,0.0625,0.140625
1629807907187,-1.015625,0.078125,0.140625
1629807907218,-0.96875,0.078125,0.140625
1629807907250,-0.984375,0.0625,0.109375
1629807907281,-1.0,0.0625,0.109375
1629807907312,-1.0,0.0625,0.09375
1629807907343,-0.984375,0.0625,0.0625
1629807907375,-1.0,0.0625,0.046875
1629807907406,-1.0,0.0625,0.046875
1629807907437,-0.984375,0.046875,0.046875
1629807907468,-1.0,0.0625,0.046875
1629807907500,-1.0,0.078125,0.0625
1629807907531,-1.0,0.0625,0.09375
1629807907562,-0.984375,0.0625,0.09375
1629807907593,-0.96875,0.0625,0.078125
1629807907625,-1.015625,0.09375,0.125
1629807907656,-1.0,0.109375,0.125
1629807907687,-0.984375,0.125,0.171875
1629807907718,-1.015625,0.09375,0.140625
1629807907750,-1.0,0.09375,0.140625
1629807907781,-0.96875,0.09375,0.125
1629807907812,-0.96875,0.078125,0.109375
1629807907843,-0.96875,0.09375,0.109375
1629807907875,-0.984375,0.09375,0.109375
1629807907906,-1.0,0.09375,0.109375
1629807907937,-1.0,0.109375,0.125
1629807907968,-0.984375,0.09375,0.125
1629807908000,-0.984375,0.09375,0.125
1629807908031,-0.984375,0.09375,0.125
1629807908062,-0.984375,0.09375,0.125
1629807908093,-1.0,0.09375,0.109375
1629807908125,-0.984375,0.109375,0.140625
1629807908156,-0.984375,0.09375,0.140625
1629807908187,-0.984375,0.109375,0.125
1629807908218,-0.984375,0.09375,0.125
1629807908250,-0.984375,0.09375,0.140625
1629807908281,-0.984375,0.09375,0.140625
1629807908312,-0.984375,0.09375,0.140625
1629807908343,-0.984375,0.09375,0.140625
1629807908375,-0.984375,0.09375,0.125
1629807908406,-0.984375,0.09375,0.15625
1629807908437,-0.984375,0.09375,0.140625
1629807908468,-0.984375,0.09375,0.140625
1629807908500,-0.984375,0.09375,0.140625
1629807908531,-0.984375,0.09375,0.15625
1629807908562,-0.96875,0.09375,0.15625
1629807908593,-0.984375,0.109375,0.15625
1629807908625,-0.984375,0.109375,0.15625
1629807908656,-0.984375,0.09375,0.15625
1629807908687,-0.984375,0.09375,0.171875
1629807908718,-0.96875,0.09375,0.171875
1629807908750,-0.984375,0.09375,0.15625
1629807908781,-0.984375,0.09375,0.15625
1629807908812,-0.984375,0.09375,0.171875
1629807908843,-0.984375,0.09375,0.15625
1629807908875,-0.984375,0.09375,0.15625
1629807908906,-0.984375,0.09375,0.15625
1629807908937,-0.984375,0.09375,0.15625
1629807908968,-0.984375,0.09375,0.15625
1629807909000,-0.984375,0.09375,0.171875
1629807909031,-0.984375,0.09375,0.171875
1629807909062,-0.984375,0.09375,0.15625
1629807909093,-0.984375,0.09375,0.15625
1629807909125,-0.984375,0.09375,0.15625
1629807909156,-0.984375,0.09375,0.15625
1629807909187,-0.984375,0.09375,0.171875
1629807909218,-0.984375,0.09375,0.15625
1629807909250,-0.984375,0.09375,0.171875
1629807909281,-0.984375,0.09375,0.171875
1629807909312,-0.984375,0.09375,0.15625
1629807909343,-0.984375,0.09375,0.15625
1629807909375,-0.984375,0.09375,0.171875
1629807909406,-0.984375,0.09375,0.171875
1629807909437,-0.984375,0.09375,0.15625
1629807909468,-0.984375,0.09375,0.15625
1629807909500,-0.984375,0.09375,0.171875
1629807909531,-0.984375,0.09375,0.15625
1629807909562,-0.984375,0.109375,0.15625
1629807909593,-0.984375,0.09375,0.171875
1629807909625,-0.984375,0.09375,0.15625
1629807909656,-0.984375,0.09375,0.15625
1629807909687,-0.984375,0.09375,0.171875
1629807909718,-0.984375,0.09375,0.15625
1629807909750,-0.984375,0.09375,0.15625
1629807909781,-0.984375,0.09375,0.171875
1629807909812,-0.984375,0.09375,0.171875
1629807909843,-0.984375,0.09375,0.171875
1629807909875,-0.984375,0.09375,0.15625
1629807909906,-0.984375,0.09375,0.171875
1629807909937,-0.984375,0.09375,0.171875
1629807909968,-0.984375,0.09375,0.171875
1629807910000,-0.984375,0.09375,0.15625
1629807910031,-0.984375,0.09375,0.15625
1629807910062,-0.984375,0.09375,0.171875
1629807910093,-0.984375,0.109375,0.15625
1629807910125,-0.984375,0.09375,0.171875
1629807910156,-0.984375,0.09375,0.171875
1629807910187,-0.984375,0.09375,0.15625
1629807910218,-0.984375,0.09375,0.171875
1629807910250,-0.984375,0.09375,0.15625
1629807910281,-0.984375,0.09375,0.15625
1629807910312,-0.984375,0.09375,0.171875
1629807910343,-0.984375,0.09375,0.171875
1629807910375,-0.984375,0.09375,0.171875
1629807910406,-0.984375,0.09375,0.171875
1629807910437,-0.984375,0.09375,0.15625
1629807910468,-0.984375,0.09375,0.15625
1629807910500,-0.984375,0.09375,0.15625
1629807910531,-0.984375,0.09375,0.171875
1629807910562,-0.984375,0.109375,0.15625
1629807910593,-0.984375,0.09375,0.15625
1629807910625,-0.984375,0.09375,0.15625
1629807910656,-0.984375,0.09375,0.171875
1629807910687,-0.984375,0.09375,0.171875
1629807910718,-0.984375,0.09375,0.171875
1629807910750,-0.984375,0.09375,0.15625
1629807910781,-0.984375,0.09375,0.15625
1629807910812,-0.984375,0.09375,0.171875
1629807910843,-0.984375,0.09375,0.15625
1629807910875,-0.984375,0.09375,0.15625
1629807910906,-0.96875,0.09375,0.171875
1629807910937,-0.984375,0.09375,0.171875
1629807910968,-0.984375,0.09375,0.15625
1629807911000,-0.984375,0.09375,0.15625
1629807911031,-0.984375,0.09375,0.15625
1629807911062,-0.984375,0.09375,0.171875
1629807911093,-0.984375,0.09375,0.15625
1629807911125,-0.984375,0.09375,0.171875
1629807911156,-0.984375,0.09375,0.15625
1629807911187,-0.984375,0.09375,0.15625
1629807911218,-0.984375,0.09375,0.171875
1629807911250,-0.984375,0.09375,0.171875
1629807911281,-0.984375,0.09375,0.15625
1629807911312,-0.984375,0.09375,0.171875
1629807911343,-0.984375,0.09375,0.171875
1629807911375,-0.984375,0.09375,0.171875
1629807911406,-0.984375,0.09375,0.171875
1629807911437,-0.984375,0.09375,0.171875
1629807911468,-0.984375,0.09375,0.171875
1629807911500,-0.96875,0.09375,0.171875
1629807911531,-0.984375,0.09375,0.15625
1629807911562,-0.984375,0.09375,0.171875
1629807911593,-0.984375,0.09375,0.171875
1629807911625,-0.984375,0.09375,0.15625
1629807911656,-0.984375,0.09375,0.15625
1629807911687,-0.984375,0.09375,0.171875
1629807911718,-0.984375,0.09375,0.171875
1629807911750,-0.984375,0.09375,0.171875
1629807911781,-0.984375,0.09375,0.171875
1629807911812,-0.984375,0.09375,0.171875
1629807911843,-0.984375,0.09375,0.171875
1629807911875,-0.984375,0.09375,0.15625
1629807911906,-0.984375,0.09375,0.171875
1629807911937,-0.984375,0.09375,0.15625
1629807911968,-0.984375,0.09375,0.15625
1629807912000,-0.984375,0.09375,0.171875
1629807912031,-0.984375,0.09375,0.15625
1629807912062,-0.984375,0.09375,0.15625
1629807912093,-0.984375,0.09375,0.171875
1629807912125,-0.984375,0.09375,0.15625
1629807912156,-0.984375,0.09375,0.171875
1629807912187,-0.984375,0.09375,0.171875
1629807912218,-0.984375,0.09375,0.171875
1629807912250,-0.984375,0.09375,0.171875
1629807912281,-0.984375,0.09375,0.15625
1629807912312,-0.984375,0.09375,0.15625
1629807912343,-0.984375,0.09375,0.171875
1629807912375,-0.984375,0.09375,0.171875
1629807912406,-0.984375,0.09375,0.15625
1629807912437,-0.984375,0.09375,0.15625
1629807912468,-0.984375,0.09375,0.171875
1629807912500,-0.984375,0.09375,0.171875
1629807912531,-0.984375,0.09375,0.15625
1629807912562,-0.984375,0.09375,0.15625
1629807912593,-0.984375,0.09375,0.171875
1629807912625,-0.984375,0.09375,0.15625
1629807912656,-0.984375,0.09375,0.15625
1629807912687,-0.984375,0.09375,0.15625
1629807912718,-0.984375,0.09375,0.15625
1629807912750,-0.984375,0.09375,0.171875
1629807912781,-0.984375,0.09375,0.171875
1629807912812,-0.984375,0.09375,0.15625
1629807912843,-0.984375,0.09375,0.15625
1629807912875,-0.96875,0.09375,0.171875
1629807912906,-0.984375,0.09375,0.171875
1629807912937,-0.984375,0.09375,0.15625
1629807912968,-0.984375,0.09375,0.15625
1629807913000,-0.984375,0.09375,0.171875
1629807913031,-0.984375,0.09375,0.171875
1629807913062,-0.984375,0.09375,0.15625
1629807913093,-0.984375,0.09375,0.171875
1629807913125,-0.984375,0.09375,0.171875
1629807913156,-0.984375,0.09375,0.15625
1629807913187,-0.984375,0.09375,0.15625
1629807913218,-0.984375,0.09375,0.15625
1629807913250,-0.984375,0.09375,0.15625
1629807913281,-0.984375,0.09375,0.15625
1629807913312,-0.984375,0.09375,0.15625
1629807913343,-0.984375,0.09375,0.15625
1629807913375,-0.984375,0.09375,0.15625
1629807913406,-0.984375,0.09375,0.15625
1629807913437,-0.984375,0.09375,0.15625
1629807913468,-0.984375,0.109375,0.15625
1629807913500,-0.984375,0.09375,0.15625
1629807913531,-0.984375,0.09375,0.15625
1629807913562,-0.984375,0.09375,0.15625
1629807913593,-0.984375,0.09375,0.15625
1629807913625,-0.984375,0.109375,0.15625
1629807913656,-0.984375,0.109375,0.15625
1629807913687,-0.984375,0.109375,0.15625
1629807913718,-0.984375,0.109375,0.15625
1629807913750,-0.984375,0.09375,0.15625
1629807913781,-0.984375,0.09375,0.15625
1629807913812,-0.984375,0.109375,0.15625
1629807913843,-0.984375,0.109375,0.15625
1629807913875,-0.984375,0.109375,0.15625
1629807913906,-0.984375,0.109375,0.15625
1629807913937,-0.984375,0.109375,0.15625
1629807913968,-0.984375,0.109375,0.15625
1629807914000,-0.984375,0.109375,0.15625
1629807914031,-0.984375,0.109375,0.15625
1629807914062,-0.984375,0.109375,0.15625
1629807914093,-0.984375,0.109375,0.15625
1629807914125,-0.984375,0.109375,0.15625
1629807914156,-0.984375,0.109375,0.15625
1629807914187,-0.984375,0.09375,0.15625
1629807914218,-0.984375,0.109375,0.15625
1629807914250,-0.984375,0.109375,0.15625
1629807914281,-0.984375,0.109375,0.15625
1629807914312,-0.984375,0.109375,0.15625
1629807914343,-0.984375,0.109375,0.15625
1629807914375,-0.984375,0.109375,0.140625
1629807914406,-0.984375,0.109375,0.15625
1629807914437,-0.984375,0.109375,0.15625
1629807914468,-0.984375,0.109375,0.15625
1629807914500,-0.984375,0.109375,0.140625
1629807914531,-0.984375,0.109375,0.140625
1629807914562,-0.984375,0.109375,0.140625
1629807914593,-0.984375,0.109375,0.15625
1629807914625,-0.984375,0.109375,0.15625
1629807914656,-0.984375,0.109375,0.140625
1629807914687,-0.984375,0.109375,0.15625
1629807914718,-0.984375,0.109375,0.15625
1629807914750,-0.984375,0.109375,0.140625
1629807914781,-0.984375,0.109375,0.140625
1629807914812,-0.984375,0.109375,0.140625
1629807914843,-0.984375,0.109375,0.140625
1629807914875,-0.984375,0.109375,0.140625
1629807914906,-0.984375,0.109375,0.140625
1629807914937,-0.984375,0.109375,0.140625
1629807914968,-0.984375,0.109375,0.15625
1629807915000,-0.984375,0.109375,0.140625
1629807915031,-0.984375,0.109375,0.15625
1629807915062,-0.984375,0.109375,0.15625
1629807915093,-0.984375,0.109375,0.140625
1629807915125,-0.984375,0.109375,0.140625
1629807915156,-0.984375,0.109375,0.15625
1629807915187,-0.984375,0.109375,0.140625
1629807915218,-0.984375,0.109375,0.15625
1629807915250,-0.984375,0.109375,0.15625
1629807915281,-0.984375,0.109375,0.140625
1629807915312,-0.984375,0.109375,0.140625
1629807915343,-0.984375,0.109375,0.140625
1629807915375,-0.984375,0.109375,0.15625
1629807915406,-0.984375,0.109375,0.15625
1629807915437,-0.984375,0.109375,0.15625
1629807915468,-0.984375,0.109375,0.15625
1629807915500,-0.984375,0.109375,0.140625
1629807915531,-0.984375,0.109375,0.15625
1629807915562,-0.984375,0.109375,0.15625
1629807915593,-0.984375,0.109375,0.140625
1629807915625,-0.984375,0.109375,0.15625
1629807915656,-0.984375,0.109375,0.15625
1629807915687,-0.984375,0.109375,0.140625
1629807915718,-0.984375,0.109375,0.15625
1629807915750,-0.984375,0.109375,0.15625
1629807915781,-0.984375,0.109375,0.15625
1629807915812,-0.984375,0.109375,0.140625
1629807915843,-0.984375,0.109375,0.15625
1629807915875,-0.984375,0.109375,0.15625
1629807915906,-0.984375,0.109375,0.140625
1629807915937,-0.984375,0.109375,0.15625
1629807915968,-0.984375,0.109375,0.15625
1629807916000,-0.984375,0.109375,0.15625
1629807916031,-0.984375,0.109375,0.140625
1629807916062,-0.984375,0.109375,0.140625
1629807916093,-0.984375,0.109375,0.15625
1629807916125,-0.984375,0.109375,0.15625
1629807916156,-0.984375,0.109375,0.15625
1629807916187,-0.984375,0.109375,0.15625
1629807916218,-0.984375,0.109375,0.15625
1629807916250,-0.984375,0.09375,0.140625
1629807916281,-0.984375,0.09375,0.15625
1629807916312,-0.984375,0.109375,0.15625
1629807916343,-0.984375,0.109375,0.15625
1629807916375,-0.984375,0.109375,0.15625
1629807916406,-0.984375,0.109375,0.15625
1629807916437,-0.984375,0.109375,0.15625
1629807916468,-0.984375,0.109375,0.15625
1629807916500,-0.984375,0.109375,0.15625
1629807916531,-0.984375,0.109375,0.15625
1629807916562,-0.984375,0.109375,0.15625
1629807916593,-0.984375,0.109375,0.15625
1629807916625,-0.984375,0.09375,0.15625
1629807916656,-0.984375,0.109375,0.15625
1629807916687,-0.984375,0.109375,0.15625
1629807916718,-0.984375,0.109375,0.15625
1629807916750,-0.984375,0.109375,0.15625
1629807916781,-0.984375,0.109375,0.15625
1629807916812,-0.984375,0.109375,0.15625
1629807916843,-0.984375,0.109375,0.15625
1629807916875,-0.984375,0.109375,0.15625
1629807916906,-0.984375,0.109375,0.15625
1629807916937,-0.984375,0.09375,0.15625
1629807916968,-0.984375,0.109375,0.15625
1629807917000,-0.984375,0.109375,0.15625
1629807917031,-0.984375,0.109375,0.15625
1629807917062,-0.984375,0.109375,0.15625
1629807917093,-0.984375,0.109375,0.15625
1629807917125,-0.984375,0.109375,0.15625
1629807917156,-0.984375,0.109375,0.15625
1629807917187,-0.984375,0.109375,0.15625
1629807917218,-0.984375,0.09375,0.15625
1629807917250,-0.984375,0.09375,0.15625
1629807917281,-0.984375,0.109375,0.15625
1629807917312,-0.984375,0.109375,0.15625
1629807917343,-0.984375,0.109375,0.15625
1629807917375,-0.984375,0.109375,0.15625
1629807917406,-0.984375,0.109375,0.15625
1629807917437,-0.984375,0.109375,0.15625
1629807917468,-0.984375,0.109375,0.15625
1629807917500,-0.984375,0.109375,0.15625
1629807917531,-0.984375,0.109375,0.15625
1629807917562,-0.984375,0.09375,0.15625
1629807917593,-0.984375,0.09375,0.15625
1629807917625,-0.984375,0.109375,0.15625
1629807917656,-0.984375,0.109375,0.15625
1629807917687,-0.984375,0.09375,0.15625
1629807917718,-0.984375,0.109375,0.15625
1629807917750,-0.984375,0.09375,0.15625
1629807917781,-0.984375,0.109375,0.15625
1629807917812,-0.984375,0.109375,0.15625
1629807917843,-0.984375,0.09375,0.15625
1629807917875,-0.984375,0.109375,0.15625
1629807917906,-0.984375,0.109375,0.15625
1629807917937,-0.984375,0.09375,0.15625
1629807917968,-0.984375,0.109375,0.15625
1629807918000,-0.984375,0.109375,0.15625
1629807918031,-0.984375,0.09375,0.15625
1629807918062,-0.984375,0.109375,0.15625
1629807918093,-0.984375,0.109375,0.15625
1629807918125,-0.984375,0.09375,0.140625
1629807918156,-0.984375,0.09375,0.15625
1629807918187,-0.984375,0.09375,0.15625
1629807918218,-0.984375,0.109375,0.15625
1629807918250,-0.984375,0.109375,0.15625
1629807918281,-0.984375,0.09375,0.15625
1629807918312,-0.984375,0.09375,0.15625
1629807918343,-0.984375,0.09375,0.171875
1629807918375,-0.984375,0.09375,0.15625
1629807918406,-0.984375,0.109375,0.15625
1629807918437,-0.984375,0.109375,0.15625
1629807918468,-0.984375,0.09375,0.15625
1629807918500,-0.984375,0.09375,0.15625
1629807918531,-0.984375,0.109375,0.15625
1629807918562,-0.984375,0.09375,0.15625
1629807918593,-0.984375,0.09375,0.15625
1629807918625,-0.984375,0.09375,0.15625
1629807918656,-0.984375,0.09375,0.15625
1629807918687,-0.984375,0.09375,0.15625
1629807918718,-0.984375,0.09375,0.15625
1629807918750,-0.984375,0.09375,0.15625
1629807918781,-0.984375,0.09375,0.15625
1629807918812,-0.984375,0.09375,0.15625
1629807918843,-0.984375,0.09375,0.15625
1629807918875,-0.984375,0.109375,0.15625
1629807918906,-0.984375,0.09375,0.15625
1629807918937,-0.984375,0.09375,0.15625
1629807918968,-0.984375,0.09375,0.15625
1629807919000,-0.984375,0.09375,0.15625
1629807919031,-0.984375,0.09375,0.15625
1629807919062,-0.984375,0.109375,0.15625
1629807919093,-0.984375,0.09375,0.15625
1629807919125,-0.984375,0.09375,0.15625
1629807919156,-0.984375,0.09375,0.15625
1629807919187,-0.984375,0.109375,0.15625
1629807919218,-0.984375,0.09375,0.140625
1629807919250,-0.984375,0.09375,0.15625
1629807919281,-0.984375,0.109375,0.15625
1629807919312,-0.984375,0.109375,0.15625
1629807919343,-0.984375,0.109375,0.15625
1629807919375,-0.984375,0.09375,0.15625
1629807919406,-0.984375,0.09375,0.15625
1629807919437,-0.984375,0.09375,0.15625
1629807919468,-0.984375,0.09375,0.15625
1629807919500,-0.984375,0.09375,0.140625
1629807919531,-0.984375,0.109375,0.15625
1629807919562,-0.984375,0.109375,0.15625
1629807919593,-0.984375,0.109375,0.15625
1629807919625,-0.984375,0.109375,0.15625
1629807919656,-0.984375,0.09375,0.15625
1629807919687,-0.984375,0.09375,0.15625
1629807919718,-0.984375,0.109375,0.15625
1629807919750,-0.984375,0.109375,0.15625
1629807919781,-0.984375,0.109375,0.15625
1629807919812,-0.984375,0.109375,0.15625
1629807919843,-0.984375,0.109375,0.15625
1629807919875,-0.984375,0.109375,0.15625
1629807919906,-0.984375,0.109375,0.15625
1629807919937,-0.984375,0.109375,0.15625
1629807919968,-0.984375,0.109375,0.15625
1629807920000,-0.984375,0.109375,0.15625
1629807920031,-0.984375,0.109375,0.15625
1629807920062,-0.984375,0.109375,0.15625
1629807920093,-0.984375,0.109375,0.140625
1629807920125,-0.984375,0.109375,0.15625
1629807920156,-0.984375,0.109375,0.140625
1629807920187,-0.984375,0.109375,0.15625
1629807920218,-0.984375,0.109375,0.15625
1629807920250,-0.984375,0.109375,0.140625
1629807920281,-0.984375,0.109375,0.15625
1629807920312,-0.984375,0.09375,0.15625
1629807920343,-0.984375,0.109375,0.15625
1629807920375,-0.984375,0.109375,0.140625
1629807920406,-0.984375,0.109375,0.140625
1629807920437,-0.984375,0.109375,0.15625
1629807920468,-0.984375,0.109375,0.140625
1629807920500,-0.984375,0.109375,0.15625
1629807920531,-0.984375,0.109375,0.15625
1629807920562,-0.984375,0.109375,0.15625
1629807920593,-0.984375,0.109375,0.15625
1629807920625,-0.984375,0.109375,0.15625
1629807920656,-0.984375,0.109375,0.140625
1629807920687,-0.984375,0.109375,0.15625
1629807920718,-0.984375,0.125,0.140625
1629807920750,-0.984375,0.109375,0.140625
1629807920781,-0.984375,0.109375,0.15625
1629807920812,-0.984375,0.109375,0.140625
1629807920843,-0.984375,0.109375,0.140625
1629807920875,-0.984375,0.109375,0.140625
1629807920906,-0.984375,0.109375,0.140625
1629807920937,-0.984375,0.109375,0.140625
1629807920968,-0.984375,0.109375,0.140625
1629807921000,-0.984375,0.109375,0.140625
1629807921031,-0.984375,0.109375,0.140625
1629807921062,-0.984375,0.109375,0.140625
1629807921093,-0.984375,0.109375,0.140625
1629807921125,-0.984375,0.109375,0.140625
1629807921156,-0.96875,0.109375,0.15625
1629807921187,-0.984375,0.109375,0.140625
1629807921218,-0.984375,0.109375,0.140625
1629807921250,-0.984375,0.109375,0.15625
1629807921281,-0.96875,0.109375,0.171875
1629807921312,-1.0,0.125,0.109375
1629807921343,-0.984375,0.125,0.109375
1629807921375,-0.984375,0.109375,0.125
1629807921406,-1.0,0.109375,0.125
1629807921437,-0.984375,0.109375,0.140625
1629807921468,-0.984375,0.109375,0.140625
1629807921500,-0.96875,0.109375,0.15625
1629807921531,-0.96875,0.109375,0.171875
1629807921562,-0.984375,0.109375,0.15625
1629807921593,-0.984375,0.109375,0.15625
1629807921625,-0.984375,0.109375,0.140625
1629807921656,-0.96875,0.109375,0.15625
1629807921687,-0.984375,0.109375,0.15625
1629807921718,-0.984375,0.109375,0.15625
1629807921750,-0.984375,0.109375,0.15625
1629807921781,-0.984375,0.109375,0.15625
1629807921812,-0.984375,0.109375,0.15625
1629807921843,-0.984375,0.109375,0.15625
1629807921875,-0.984375,0.109375,0.15625
1629807921906,-0.984375,0.109375,0.15625
1629807921937,-0.984375,0.109375,0.15625
1629807921968,-0.984375,0.109375,0.15625
1629807922000,-0.984375,0.109375,0.15625
1629807922031,-0.984375,0.109375,0.15625
1629807922062,-0.984375,0.109375,0.15625
1629807922093,-0.984375,0.109375,0.15625
1629807922125,-0.984375,0.109375,0.15625
1629807922156,-0.984375,0.109375,0.15625
1629807922187,-0.96875,0.09375,0.15625
1629807922218,-0.984375,0.109375,0.15625
1629807922250,-0.984375,0.109375,0.15625
1629807922281,-0.984375,0.109375,0.15625
1629807922312,-0.984375,0.109375,0.15625
1629807922343,-0.984375,0.09375,0.171875
1629807922375,-0.984375,0.09375,0.15625
1629807922406,-0.984375,0.09375,0.15625
1629807922437,-0.984375,0.109375,0.15625
1629807922468,-0.984375,0.109375,0.171875
1629807922500,-0.984375,0.109375,0.15625
1629807922531,-0.984375,0.109375,0.15625
1629807922562,-0.984375,0.109375,0.15625
1629807922593,-0.984375,0.109375,0.15625
1629807922625,-0.984375,0.109375,0.15625
1629807922656,-0.984375,0.109375,0.15625
1629807922687,-0.984375,0.09375,0.15625
1629807922718,-0.984375,0.109375,0.15625
1629807922750,-0.96875,0.109375,0.15625
1629807922781,-0.96875,0.109375,0.15625
1629807922812,-0.984375,0.09375,0.15625
1629807922843,-0.984375,0.109375,0.15625
1629807922875,-0.984375,0.109375,0.15625
1629807922906,-0.984375,0.109375,0.15625
1629807922937,-0.984375,0.09375,0.15625
1629807922968,-0.984375,0.09375,0.15625
1629807923000,-0.984375,0.109375,0.15625
1629807923031,-0.984375,0.109375,0.15625
1629807923062,-0.984375,0.109375,0.15625
1629807923093,-0.984375,0.09375,0.15625
1629807923125,-0.984375,0.09375,0.15625
1629807923156,-0.984375,0.09375,0.15625
1629807923187,-0.984375,0.09375,0.15625
1629807923218,-0.984375,0.109375,0.15625
1629807923250,-0.984375,0.109375,0.15625
1629807923281,-0.984375,0.109375,0.15625
1629807923312,-0.984375,0.09375,0.15625
1629807923343,-0.984375,0.09375,0.15625
1629807923375,-0.984375,0.109375,0.15625
1629807923406,-0.984375,0.09375,0.15625
1629807923437,-0.984375,0.09375,0.15625
1629807923468,-0.984375,0.09375,0.15625
1629807923500,-0.984375,0.09375,0.15625
1629807923531,-0.984375,0.09375,0.15625
1629807923562,-0.984375,0.09375,0.15625
1629807923593,-0.984375,0.09375,0.15625
1629807923625,-0.984375,0.109375,0.15625
1629807923656,-0.984375,0.09375,0.15625
1629807923687,-0.984375,0.09375,0.15625
1629807923718,-0.984375,0.09375,0.15625
1629807923750,-0.984375,0.09375,0.140625
1629807923781,-0.984375,0.09375,0.15625
1629807923812,-0.984375,0.09375,0.15625
1629807923843,-0.984375,0.09375,0.15625
1629807923875,-0.984375,0.109375,0.15625
1629807923906,-0.984375,0.09375,0.15625
1629807923937,-0.984375,0.09375,0.15625
1629807923968,-0.984375,0.09375,0.15625
1629807924000,-0.984375,0.09375,0.15625
1629807924031,-0.984375,0.09375,0.140625
1629807924062,-0.984375,0.09375,0.140625
1629807924093,-0.984375,0.109375,0.125
1629807924125,-0.984375,0.109375,0.171875
1629807924156,-0.984375,0.109375,0.171875
1629807924187,-1.0,0.109375,0.15625
1629807924218,-1.0,0.109375,0.171875
1629807924250,-0.984375,0.109375,0.171875
1629807924281,-0.96875,0.09375,0.15625
1629807924312,-1.0,0.09375,0.140625
1629807924343,-0.984375,0.09375,0.15625
1629807924375,-0.984375,0.09375,0.171875
1629807924406,-0.984375,0.09375,0.140625
1629807924437,-1.0,0.09375,0.125
1629807924468,-0.984375,0.109375,0.171875
1629807924500,-0.984375,0.09375,0.15625
1629807924531,-0.984375,0.09375,0.140625
1629807924562,-0.984375,0.09375,0.171875
1629807924593,-0.984375,0.09375,0.171875
1629807924625,-0.96875,0.09375,0.171875
1629807924656,-0.984375,0.09375,0.140625
1629807924687,-0.984375,0.09375,0.15625
1629807924718,-0.984375,0.09375,0.171875
1629807924750,-0.984375,0.09375,0.15625
1629807924781,-0.984375,0.109375,0.140625
1629807924812,-0.984375,0.109375,0.140625
1629807924843,-0.984375,0.09375,0.15625
1629807924875,-0.984375,0.09375,0.15625
1629807924906,-0.984375,0.09375,0.140625
1629807924937,-0.984375,0.09375,0.15625
1629807924968,-0.984375,0.09375,0.15625
1629807925000,-0.984375,0.09375,0.15625
1629807925031,-0.984375,0.09375,0.15625
1629807925062,-0.984375,0.09375,0.15625
1629807925093,-0.984375,0.09375,0.171875
1629807925125,-0.984375,0.09375,0.15625
1629807925156,-0.984375,0.09375,0.140625
1629807925187,-0.984375,0.09375,0.125
1629807925218,-0.984375,0.09375,0.140625
1629807925250,-0.984375,0.09375,0.140625
1629807925281,-0.984375,0.09375,0.140625
1629807925312,-0.984375,0.09375,0.140625
1629807925343,-1.0,0.09375,0.140625
1629807925375,-0.984375,0.09375,0.140625
1629807925406,-0.984375,0.09375,0.125
1629807925437,-0.984375,0.09375,0.125
1629807925468,-0.984375,0.09375,0.125
1629807925500,-0.984375,0.09375,0.125
1629807925531,-0.984375,0.09375,0.125
1629807925562,-0.984375,0.09375,0.140625
1629807925593,-0.984375,0.09375,0.125
1629807925625,-0.984375,0.09375,0.125
1629807925656,-0.984375,0.09375,0.140625
1629807925687,-0.984375,0.09375,0.125
1629807925718,-0.984375,0.09375,0.125
1629807925750,-0.984375,0.09375,0.125
1629807925781,-1.0,0.109375,0.125
1629807925812,-0.984375,0.09375,0.125
1629807925843,-0.96875,0.09375,0.140625
1629807925875,-0.984375,0.09375,0.125
1629807925906,-0.984375,0.09375,0.140625
1629807925937,-0.984375,0.09375,0.125
1629807925968,-0.984375,0.109375,0.125
1629807926000,-0.984375,0.09375,0.125
1629807926031,-0.984375,0.09375,0.125
1629807926062,-0.96875,0.09375,0.125
1629807926093,-1.0,0.09375,0.109375
1629807926125,-0.984375,0.09375,0.125
1629807926156,-0.984375,0.09375,0.125
1629807926187,-0.984375,0.09375,0.109375
1629807926218,-0.984375,0.09375,0.109375
1629807926250,-0.984375,0.09375,0.125
1629807926281,-0.984375,0.09375,0.109375
1629807926312,-0.984375,0.09375,0.109375
1629807926343,-1.0,0.09375,0.09375
1629807926375,-1.0,0.09375,0.09375
1629807926406,-1.0,0.09375,0.09375
1629807926437,-0.984375,0.09375,0.09375
1629807926468,-0.984375,0.09375,0.109375
1629807926500,-0.984375,0.09375,0.09375
1629807926531,-1.0,0.09375,0.09375
1629807926562,-1.0,0.078125,0.09375
1629807926593,-0.984375,0.09375,0.09375
1629807926625,-0.984375,0.09375,0.078125
1629807926656,-0.984375,0.09375,0.078125
1629807926687,-1.0,0.09375,0.0625
1629807926718,-0.984375,0.078125,0.078125
1629807926750,-0.984375,0.09375,0.0625
1629807926781,-1.015625,0.09375,0.046875
1629807926812,-1.0,0.09375,0.046875
1629807926843,-1.0,0.109375,0.0625
1629807926875,-1.0,0.109375,0.0625
1629807926906,-0.984375,0.09375,0.0625
1629807926937,-1.0,0.09375,0.0625
1629807926968,-0.984375,0.09375,0.078125
1629807927000,-1.0,0.09375,0.0625
1629807927031,-0.984375,0.09375,0.0625
1629807927062,-1.0,0.09375,0.0625
1629807927093,-1.0,0.09375,0.0625
1629807927125,-1.0,0.09375,0.0625
1629807927156,-0.984375,0.09375,0.046875
1629807927187,-1.0,0.09375,0.0625
1629807927218,-0.984375,0.09375,0.078125
1629807927250,-1.0,0.09375,0.078125
1629807927281,-1.0,0.09375,0.078125
1629807927312,-0.984375,0.09375,0.078125
1629807927343,-0.984375,0.09375,0.0625
1629807927375,-1.0,0.09375,0.0625
1629807927406,-0.984375,0.09375,0.046875
1629807927437,-1.0,0.109375,0.03125
1629807927468,-1.0,0.09375,0.015625
1629807927500,-1.0,0.09375,0.015625
1629807927531,-1.0,0.09375,0.03125
1629807927562,-0.984375,0.09375,0.015625
1629807927593,-0.984375,0.09375,0.0
1629807927625,-1.0,0.09375,0.0
1629807927656,-1.0,0.09375,-0.015625
1629807927687,-1.0,0.09375,-0.03125
1629807927718,-1.015625,0.09375,-0.03125
1629807927750,-1.0,0.09375,-0.03125
1629807927781,-1.0,0.09375,-0.03125
1629807927812,-1.0,0.09375,-0.046875
1629807927843,-0.984375,0.09375,-0.03125
1629807927875,-0.984375,0.09375,-0.015625
1629807927906,-1.0,0.09375,-0.015625
1629807927937,-1.015625,0.09375,-0.03125
1629807927968,-0.96875,0.09375,-0.046875
1629807928000,-0.984375,0.09375,-0.0625
1629807928031,-0.96875,0.09375,-0.09375
1629807928062,-0.984375,0.078125,-0.125
1629807928093,-0.984375,0.078125,-0.171875
1629807928125,-0.984375,0.09375,-0.171875
1629807928156,-0.984375,0.09375,-0.15625
1629807928187,-0.984375,0.09375,-0.203125
1629807928218,-1.0,0.109375,-0.234375
1629807928250,-0.984375,0.109375,-0.21875
1629807928281,-0.984375,0.109375,-0.25
1629807928312,-0.96875,0.109375,-0.25
1629807928343,-0.984375,0.09375,-0.21875
1629807928375,-0.96875,0.09375,-0.234375
1629807928406,-0.953125,0.09375,-0.25
1629807928437,-0.96875,0.09375,-0.234375
1629807928468,-0.953125,0.09375,-0.234375
1629807928500,-0.953125,0.09375,-0.25
1629807928531,-0.96875,0.078125,-0.25
1629807928562,-0.953125,0.09375,-0.234375
1629807928593,-0.96875,0.09375,-0.234375
1629807928625,-0.96875,0.09375,-0.25
1629807928656,-0.96875,0.09375,-0.25
1629807928687,-0.96875,0.09375,-0.25
1629807928718,-0.96875,0.09375,-0.25
1629807928750,-0.96875,0.09375,-0.25
1629807928781,-0.953125,0.078125,-0.25
1629807928812,-0.953125,0.09375,-0.234375
1629807928843,-0.96875,0.09375,-0.265625
1629807928875,-0.96875,0.09375,-0.265625
1629807928906,-0.96875,0.09375,-0.25
1629807928937,-0.96875,0.09375,-0.234375
1629807928968,-0.96875,0.09375,-0.25
1629807929000,-0.96875,0.09375,-0.25
1629807929031,-0.953125,0.09375,-0.234375
1629807929062,-0.953125,0.09375,-0.25
1629807929093,-0.953125,0.09375,-0.25
1629807929125,-0.96875,0.09375,-0.25
1629807929156,-0.96875,0.09375,-0.265625
1629807929187,-0.96875,0.078125,-0.265625
1629807929218,-0.96875,0.078125,-0.25
1629807929250,-0.953125,0.09375,-0.234375
1629807929281,-0.984375,0.09375,-0.265625
1629807929312,-0.96875,0.078125,-0.28125
1629807929343,-0.953125,0.078125,-0.265625
1629807929375,-0.953125,0.078125,-0.28125
1629807929406,-0.953125,0.078125,-0.296875
1629807929437,-0.9375,0.078125,-0.28125
1629807929468,-0.9375,0.078125,-0.28125
1629807929500,-0.953125,0.078125,-0.28125
1629807929531,-0.96875,0.078125,-0.3125
1629807929562,-0.96875,0.078125,-0.265625
1629807929593,-0.96875,0.078125,-0.265625
1629807929625,-0.953125,0.078125,-0.265625
1629807929656,-0.953125,0.078125,-0.265625
1629807929687,-0.953125,0.078125,-0.28125
1629807929718,-0.953125,0.078125,-0.28125
1629807929750,-0.953125,0.078125,-0.28125
1629807929781,-0.96875,0.078125,-0.28125
1629807929812,-0.953125,0.078125,-0.265625
1629807929843,-0.953125,0.078125,-0.28125
1629807929875,-0.953125,0.078125,-0.28125
1629807929906,-0.953125,0.078125,-0.28125
1629807929937,-0.953125,0.078125,-0.28125
1629807929968,-0.953125,0.078125,-0.28125
1629807930000,-0.953125,0.078125,-0.28125
1629807930031,-0.96875,0.078125,-0.28125
1629807930062,-0.953125,0.078125,-0.28125
1629807930093,-0.953125,0.078125,-0.28125
1629807930125,-0.9375,0.0625,-0.296875
1629807930156,-0.953125,0.0625,-0.296875
1629807930187,-0.953125,0.078125,-0.296875
1629807930218,-0.953125,0.078125,-0.296875
1629807930250,-0.953125,0.078125,-0.28125
1629807930281,-0.953125,0.078125,-0.28125
1629807930312,-0.953125,0.078125,-0.28125
1629807930343,-0.96875,0.078125,-0.28125
1629807930375,-0.953125,0.078125,-0.296875
1629807930406,-0.953125,0.078125,-0.296875
1629807930437,-0.96875,0.0625,-0.296875
1629807930468,-0.953125,0.078125,-0.296875
1629807930500,-0.953125,0.078125,-0.265625
1629807930531,-1.0,0.078125,-0.265625
1629807930562,-0.984375,0.078125,-0.265625
1629807930593,-0.953125,0.078125,-0.234375
1629807930625,-0.96875,0.078125,-0.25
1629807930656,-0.953125,0.0625,-0.28125
1629807930687,-0.96875,0.078125,-0.234375
1629807930718,-0.96875,0.078125,-0.21875
1629807930750,-0.96875,0.078125,-0.21875
1629807930781,-1.0,0.078125,-0.203125
1629807930812,-1.0,0.078125,-0.203125
1629807930843,-0.96875,0.078125,-0.234375
1629807930875,-0.953125,0.078125,-0.234375
1629807930906,-0.96875,0.0625,-0.25
1629807930937,-0.96875,0.0625,-0.25
1629807930968,-0.953125,0.0625,-0.234375
1629807931000,-0.953125,0.0625,-0.234375
1629807931031,-0.984375,0.0625,-0.25
1629807931062,-1.0,0.0625,-0.1875
1629807931093,-0.96875,0.0625,-0.21875
1629807931125,-0.984375,0.0625,-0.21875
1629807931156,-0.984375,0.0625,-0.203125
1629807931187,-0.984375,0.0625,-0.203125
1629807931218,-0.96875,0.0625,-0.21875
1629807931250,-0.953125,0.0625,-0.234375
1629807931281,-0.984375,0.0625,-0.234375
1629807931312,-0.96875,0.0625,-0.21875
1629807931343,-0.96875,0.0625,-0.21875
1629807931375,-1.0,0.0625,-0.21875
1629807931406,-0.984375,0.0625,-0.21875
1629807931437,-0.96875,0.0625,-0.203125
1629807931468,-0.984375,0.046875,-0.21875
1629807931500,-0.9375,0.046875,-0.234375
1629807931531,-0.9375,0.0625,-0.1875
1629807931562,-0.984375,0.0625,-0.1875
1629807931593,-1.0,0.046875,-0.203125
1629807931625,-0.984375,0.046875,-0.203125
1629807931656,-0.96875,0.0625,-0.171875
1629807931687,-0.96875,0.046875,-0.1875
1629807931718,-0.96875,0.0625,-0.203125
1629807931750,-0.96875,0.0625,-0.1875
1629807931781,-0.984375,0.0625,-0.1875
1629807931812,-0.984375,0.0625,-0.203125
1629807931843,-0.984375,0.0625,-0.1875
1629807931875,-0.984375,0.0625,-0.171875
1629807931906,-0.984375,0.0625,-0.1875
1629807931937,-0.984375,0.0625,-0.171875
1629807931968,-0.984375,0.0625,-0.1875
1629807932000,-0.96875,0.0625,-0.1875
1629807932031,-0.984375,0.0625,-0.15625
1629807932062,-0.984375,0.0625,-0.15625
1629807932093,-0.984375,0.0625,-0.15625
1629807932125,-0.984375,0.0625,-0.15625
1629807932156,-0.984375,0.0625,-0.15625
1629807932187,-0.984375,0.0625,-0.15625
1629807932218,-0.984375,0.0625,-0.140625
1629807932250,-0.984375,0.0625,-0.140625
1629807932281,-1.0,0.0625,-0.140625
1629807932312,-1.0,0.0625,-0.125
1629807932343,-0.984375,0.0625,-0.109375
1629807932375,-1.0,0.0625,-0.109375
1629807932406,-1.015625,0.0625,-0.109375
1629807932437,-0.984375,0.0625,-0.09375
1629807932468,-0.984375,0.0625,-0.09375
1629807932500,-0.984375,0.0625,-0.078125
1629807932531,-1.0,0.0625,-0.0625
1629807932562,-1.0,0.046875,-0.046875
1629807932593,-1.0,0.0625,-0.046875
1629807932625,-0.96875,0.0625,-0.03125
1629807932656,-0.984375,0.09375,-0.046875
1629807932687,-1.0,0.078125,-0.09375
1629807932718,-1.015625,0.078125,-0.125
1629807932750,-1.0,0.078125,-0.09375
1629807932781,-1.0,0.078125,-0.078125
1629807932812,-1.0,0.0625,-0.09375
1629807932843,-1.0,0.0625,-0.09375
1629807932875,-0.984375,0.0625,-0.078125
1629807932906,-0.984375,0.0625,-0.09375
1629807932937,-0.984375,0.078125,-0.078125
1629807932968,-0.984375,0.078125,-0.078125
1629807933000,-0.96875,0.078125,-0.0625
1629807933031,-1.0,0.078125,-0.078125
1629807933062,-1.0,0.078125,-0.109375
1629807933093,-1.0,0.078125,-0.125
1629807933125,-1.0,0.078125,-0.109375
1629807933156,-1.0,0.078125,-0.109375
1629807933187,-1.0,0.078125,-0.109375
1629807933218,-1.0,0.09375,-0.109375
1629807933250,-0.984375,0.078125,-0.109375
1629807933281,-0.984375,0.078125,-0.109375
1629807933312,-1.0,0.078125,-0.109375
1629807933343,-1.0,0.078125,-0.109375
1629807933375,-0.984375,0.078125,-0.109375
1629807933406,-0.984375,0.078125,-0.09375
1629807933437,-1.0,0.078125,-0.109375
1629807933468,-0.984375,0.078125,-0.109375
1629807933500,-0.984375,0.078125,-0.109375
1629807933531,-0.984375,0.078125,-0.109375
1629807933562,-0.984375,0.078125,-0.109375
1629807933593,-0.984375,0.078125,-0.109375
1629807933625,-0.984375,0.09375,-0.109375
1629807933656,-1.0,0.078125,-0.109375
1629807933687,-0.984375,0.078125,-0.109375
1629807933718,-1.0,0.078125,-0.09375
1629807933750,-1.0,0.09375,-0.09375
1629807933781,-0.984375,0.09375,-0.109375
1629807933812,-1.0,0.078125,-0.109375
1629807933843,-0.984375,0.078125,-0.09375
1629807933875,-0.984375,0.09375,-0.09375
1629807933906,-0.984375,0.09375,-0.109375
1629807933937,-0.984375,0.09375,-0.09375
1629807933968,-1.0,0.078125,-0.078125
1629807934000,-1.0,0.078125,-0.09375
1629807934031,-0.984375,0.078125,-0.078125
1629807934062,-0.984375,0.078125,-0.078125
1629807934093,-0.984375,0.078125,-0.078125
1629807934125,-1.0,0.09375,-0.09375
1629807934156,-0.984375,0.09375,-0.09375
1629807934187,-1.0,0.078125,-0.09375
1629807934218,-0.984375,0.078125,-0.078125
1629807934250,-0.984375,0.078125,-0.09375
1629807934281,-0.984375,0.078125,-0.078125
1629807934312,-0.984375,0.09375,-0.09375
1629807934343,-0.984375,0.078125,-0.078125
1629807934375,-0.984375,0.078125,-0.078125
1629807934406,-1.0,0.09375,-0.078125
1629807934437,-1.0,0.078125,-0.09375
1629807934468,-0.984375,0.09375,-0.09375
1629807934500,-0.984375,0.09375,-0.078125
1629807934531,-1.0,0.078125,-0.078125
1629807934562,-1.0,0.078125,-0.078125
1629807934593,-1.0,0.078125,-0.078125
1629807934625,-0.984375,0.09375,-0.078125
1629807934656,-1.0,0.078125,-0.078125
1629807934687,-1.0,0.09375,-0.078125
1629807934718,-1.0,0.09375,-0.078125
1629807934750,-0.984375,0.09375,-0.078125
1629807934781,-1.0,0.078125,-0.078125
1629807934812,-1.0,0.078125,-0.078125
1629807934843,-1.0,0.09375,-0.078125
1629807934875,-1.0,0.09375,-0.078125
1629807934906,-1.0,0.09375,-0.078125
1629807934937,-1.0,0.078125,-0.078125
1629807934968,-1.0,0.078125,-0.078125
1629807935000,-0.984375,0.078125,-0.078125
1629807935031,-0.984375,0.078125,-0.078125
1629807935062,-1.0,0.09375,-0.078125
1629807935093,-1.0,0.09375,-0.078125
1629807935125,-1.0,0.09375,-0.078125
1629807935156,-1.0,0.09375,-0.0625
1629807935187,-0.984375,0.09375,-0.0625
1629807935218,-1.0,0.078125,-0.078125
1629807935250,-1.0,0.078125,-0.0625
1629807935281,-1.0,0.078125,-0.0625
1629807935312,-0.96875,0.09375,-0.078125
1629807935343,-1.0,0.078125,-0.078125
1629807935375,-0.984375,0.078125,-0.078125
1629807935406,-1.0,0.078125,-0.0625
1629807935437,-0.984375,0.078125,-0.078125
1629807935468,-1.0,0.078125,-0.0625
1629807935500,-1.0,0.078125,-0.0625
1629807935531,-1.0,0.078125,-0.078125
1629807935562,-1.0,0.078125,-0.078125
1629807935593,-1.0,0.078125,-0.078125
1629807935625,-0.984375,0.078125,-0.0625
1629807935656,-1.0,0.078125,-0.078125
1629807935687,-1.0,0.078125,-0.0625
1629807935718,-1.0,0.09375,-0.0625
1629807935750,-0.984375,0.09375,-0.0625
1629807935781,-0.984375,0.078125,-0.0625
1629807935812,-1.0,0.078125,-0.0625
1629807935843,-1.0,0.078125,-0.0625
1629807935875,-1.0,0.09375,-0.0625
1629807935906,-1.0,0.09375,-0.0625
1629807935937,-0.984375,0.09375,-0.0625
1629807935968,-1.0,0.078125,-0.0625
1629807936000,-0.984375,0.078125,-0.0625
1629807936031,-0.984375,0.078125,-0.0625
1629807936062,-1.0,0.078125,-0.0625
1629807936093,-1.0,0.09375,-0.0625
1629807936125,-1.0,0.09375,-0.0625
1629807936156,-0.984375,0.09375,-0.0625
1629807936187,-1.0,0.09375,-0.0625
1629807936218,-0.984375,0.09375,-0.0625
1629807936250,-1.0,0.09375,-0.0625
1629807936281,-1.0,0.078125,-0.0625
1629807936312,-1.0,0.09375,-0.0625
1629807936343,-1.0,0.09375,-0.046875
1629807936375,-1.0,0.078125,-0.0625
1629807936406,-1.0,0.09375,-0.0625
1629807936437,-1.0,0.078125,-0.0625
1629807936468,-1.0,0.09375,-0.0625
1629807936500,-1.0,0.09375,-0.046875
1629807936531,-1.0,0.09375,-0.0625
1629807936562,-1.0,0.09375,-0.0625
1629807936593,-0.984375,0.09375,-0.0625
1629807936625,-1.0,0.09375,-0.0625
1629807936656,-1.0,0.078125,-0.0625
1629807936687,-1.0,0.09375,-0.046875
1629807936718,-1.0,0.09375,-0.046875
1629807936750,-0.984375,0.078125,-0.0625
1629807936781,-1.0,0.078125,-0.0625
1629807936812,-1.0,0.078125,-0.0625
1629807936843,-1.0,0.09375,-0.046875
1629807936875,-1.0,0.09375,-0.0625
1629807936906,-1.0,0.09375,-0.0625
1629807936937,-1.0,0.09375,-0.0625
1629807936968,-1.0,0.09375,-0.0625
1629807937000,-0.984375,0.09375,-0.0625
1629807937031,-0.984375,0.09375,-0.0625
1629807937062,-1.0,0.09375,-0.046875
1629807937093,-0.984375,0.09375,-0.0625
1629807937125,-1.0,0.09375,-0.0625
1629807937156,-1.0,0.09375,-0.0625
1629807937187,-1.0,0.09375,-0.0625
1629807937218,-0.984375,0.09375,-0.046875
1629807937250,-1.0,0.09375,-0.046875
1629807937281,-1.0,0.09375,-0.046875
1629807937312,-1.0,0.09375,-0.046875
1629807937343,-0.984375,0.09375,-0.046875
1629807937375,-0.984375,0.09375,-0.0625
1629807937406,-1.0,0.09375,-0.046875
1629807937437,-1.0,0.09375,-0.046875
1629807937468,-1.0,0.09375,-0.046875
1629807937500,-1.0,0.09375,-0.046875
1629807937531,-0.984375,0.09375,-0.046875
1629807937562,-1.0,0.09375,-0.046875
1629807937593,-1.0,0.09375,-0.046875
1629807937625,-0.984375,0.109375,-0.046875
1629807937656,-1.0,0.109375,-0.046875
1629807937687,-1.015625,0.09375,-0.078125
1629807937718,-1.0,0.109375,-0.015625
1629807937750,-1.0,0.09375,-0.03125
1629807937781,-1.0,0.109375,-0.046875
1629807937812,-0.984375,0.109375,-0.046875
1629807937843,-0.984375,0.109375,-0.046875
1629807937875,-1.0,0.109375,-0.03125
1629807937906,-1.0,0.109375,-0.03125
1629807937937,-0.984375,0.109375,-0.03125
1629807937968,-1.0,0.109375,-0.046875
1629807938000,-0.984375,0.109375,-0.046875
1629807938031,-1.0,0.109375,-0.046875
1629807938062,-1.0,0.109375,-0.046875
1629807938093,-1.0,0.109375,-0.046875
1629807938125,-1.0,0.109375,-0.046875
1629807938156,-1.0,0.109375,-0.046875
1629807938187,-1.0,0.09375,-0.046875
1629807938218,-1.0,0.109375,-0.046875
1629807938250,-1.0,0.109375,-0.046875
1629807938281,-1.0,0.109375,-0.046875
1629807938312,-1.0,0.109375,-0.046875
1629807938343,-0.984375,0.109375,-0.046875
1629807938375,-1.0,0.109375,-0.046875
1629807938406,-1.0,0.109375,-0.046875
1629807938437,-1.0,0.109375,-0.046875
1629807938468,-0.984375,0.109375,-0.046875
1629807938500,-0.984375,0.109375,-0.03125
1629807938531,-0.984375,0.109375,-0.046875
1629807938562,-1.0,0.109375,-0.046875
1629807938593,-1.0,0.09375,-0.03125
1629807938625,-0.984375,0.09375,-0.046875
1629807938656,-0.984375,0.109375,-0.046875
1629807938687,-0.984375,0.109375,-0.046875
1629807938718,-0.984375,0.109375,-0.046875
1629807938750,-1.0,0.09375,-0.046875
1629807938781,-1.0,0.09375,-0.046875
1629807938812,-0.984375,0.09375,-0.046875
1629807938843,-1.0,0.109375,-0.046875
1629807938875,-0.984375,0.109375,-0.03125
1629807938906,-1.0,0.109375,-0.046875
1629807938937,-1.0,0.109375,-0.046875
1629807938968,-0.984375,0.109375,-0.046875
1629807939000,-1.0,0.09375,-0.046875
1629807939031,-1.0,0.109375,-0.046875
1629807939062,-1.0,0.109375,-0.046875
1629807939093,-1.0,0.109375,-0.03125
1629807939125,-1.0,0.09375,-0.046875
1629807939156,-1.0,0.09375,-0.046875
1629807939187,-1.0,0.09375,-0.03125
1629807939218,-1.0,0.109375,-0.046875
1629807939250,-1.0,0.09375,-0.046875
1629807939281,-0.984375,0.09375,-0.046875
1629807939312,-1.0,0.109375,-0.03125
1629807939343,-0.984375,0.109375,-0.046875
1629807939375,-1.0,0.09375,-0.046875
1629807939406,-1.0,0.09375,-0.046875
1629807939437,-1.0,0.09375,-0.03125
1629807939468,-1.0,0.109375,-0.03125
1629807939500,-1.0,0.109375,-0.046875
1629807939531,-0.984375,0.09375,-0.03125
1629807939562,-1.0,0.09375,-0.03125
1629807939593,-1.0,0.09375,-0.03125
1629807939625,-1.0,0.09375,-0.03125
1629807939656,-1.0,0.109375,-0.03125
1629807939687,-1.0,0.09375,-0.03125
1629807939718,-0.984375,0.109375,-0.03125
1629807939750,-1.0,0.109375,-0.03125
1629807939781,-0.984375,0.109375,-0.03125
1629807939812,-1.0,0.109375,-0.03125
1629807939843,-1.0,0.109375,-0.03125
1629807939875,-1.0,0.109375,-0.03125
1629807939906,-1.0,0.109375,-0.03125
1629807939937,-1.0,0.09375,-0.03125
1629807939968,-1.0,0.09375,-0.015625
1629807940000,-1.0,0.09375,-0.015625
1629807940031,-1.0,0.09375,-0.015625
1629807940062,-0.984375,0.109375,-0.015625
1629807940093,-0.984375,0.109375,-0.015625
1629807940125,-1.0,0.109375,-0.03125
1629807940156,-1.0,0.109375,-0.015625
1629807940187,-1.0,0.09375,-0.015625
1629807940218,-0.984375,0.09375,-0.015625
1629807940250,-1.0,0.09375,-0.03125
1629807940281,-1.0,0.09375,-0.015625
1629807940312,-1.0,0.09375,-0.015625
1629807940343,-1.0,0.109375,-0.015625
1629807940375,-1.0,0.09375,-0.015625
1629807940406,-0.984375,0.09375,-0.015625
1629807940437,-1.0,0.09375,-0.015625
1629807940468,-1.0,0.09375,-0.015625
1629807940500,-1.0,0.09375,-0.015625
1629807940531,-1.0,0.109375,0.0
1629807940562,-0.984375,0.109375,0.0
1629807940593,-1.0,0.109375,-0.015625
1629807940625,-1.0,0.109375,-0.015625
1629807940656,-1.0,0.109375,0.0
1629807940687,-1.0,0.09375,0.0
1629807940718,-1.0,0.09375,0.0
1629807940750,-0.984375,0.09375,-0.015625
1629807940781,-1.0,0.09375,0.0
1629807940812,-1.0,0.09375,0.0
1629807940843,-1.0,0.09375,0.0
1629807940875,-1.0,0.09375,0.0
1629807940906,-1.0,0.09375,0.0
1629807940937,-1.0,0.09375,0.0
1629807940968,-1.0,0.09375,-0.015625
1629807941000,-1.0,0.09375,0.0
1629807941031,-1.0,0.09375,0.0
1629807941062,-1.0,0.09375,0.0
1629807941093,-1.0,0.09375,0.0
1629807941125,-0.984375,0.09375,0.0
1629807941156,-1.0,0.09375,0.0
1629807941187,-1.0,0.09375,0.0
1629807941218,-1.0,0.09375,0.0
1629807941250,-1.0,0.09375,0.0
1629807941281,-1.0,0.09375,-0.015625
1629807941312,-0.984375,0.09375,-0.015625
1629807941343,-1.0,0.09375,-0.015625
1629807941375,-1.0,0.09375,0.0
1629807941406,-1.0,0.09375,0.0
1629807941437,-1.0,0.09375,-0.015625
1629807941468,-1.0,0.09375,0.0
1629807941500,-0.984375,0.09375,-0.015625
1629807941531,-0.984375,0.09375,-0.015625
1629807941562,-1.0,0.09375,-0.015625
1629807941593,-0.984375,0.09375,-0.015625
1629807941625,-1.0,0.09375,-0.015625
1629807941656,-1.0,0.09375,0.0
1629807941687,-1.0,0.09375,-0.015625
1629807941718,-1.0,0.09375,0.0
1629807941750,-1.0,0.09375,-0.015625
1629807941781,-0.984375,0.09375,-0.015625
1629807941812,-1.0,0.09375,0.0
1629807941843,-1.0,0.09375,0.0
1629807941875,-1.0,0.09375,0.0
1629807941906,-1.0,0.09375,-0.015625
1629807941937,-1.0,0.09375,-0.015625
1629807941968,-1.0,0.09375,0.0
1629807942000,-1.0,0.09375,0.0
1629807942031,-1.0,0.09375,-0.015625
1629807942062,-1.0,0.09375,0.0
1629807942093,-1.0,0.09375,-0.015625
1629807942125,-0.984375,0.09375,-0.015625
1629807942156,-1.0,0.09375,-0.015625
1629807942187,-0.984375,0.09375,-0.015625
1629807942218,-1.0,0.09375,-0.015625
1629807942250,-1.0,0.109375,0.0
1629807942281,-1.0,0.09375,-0.015625
1629807942312,-1.0,0.09375,0.0
1629807942343,-1.0,0.09375,0.0
1629807942375,-1.0,0.09375,0.0
1629807942406,-1.0,0.09375,0.0
1629807942437,-1.0,0.09375,0.0
1629807942468,-1.0,0.09375,0.0
1629807942500,-1.0,0.09375,0.0
1629807942531,-1.0,0.09375,0.0
1629807942562,-1.0,0.09375,0.0
1629807942593,-1.0,0.109375,0.0
1629807942625,-1.0,0.09375,0.0
1629807942656,-1.0,0.09375,0.0
1629807942687,-1.0,0.09375,0.0
1629807942718,-1.0,0.09375,0.0
1629807942750,-1.0,0.09375,0.0
1629807942781,-1.0,0.09375,0.0
1629807942812,-1.0,0.09375,0.0
1629807942843,-1.0,0.09375,0.0
1629807942875,-1.0,0.09375,0.0
1629807942906,-1.0,0.09375,0.0
1629807942937,-1.0,0.09375,0.0
1629807942968,-1.0,0.09375,0.0
1629807943000,-1.0,0.09375,0.0
1629807943031,-1.0,0.109375,0.0
1629807943062,-1.0,0.09375,0.0
1629807943093,-1.0,0.09375,0.0
1629807943125,-1.0,0.09375,0.0
1629807943156,-0.984375,0.09375,0.0
1629807943187,-0.984375,0.109375,0.0
1629807943218,-0.984375,0.109375,0.0
1629807943250,-1.0,0.109375,0.0
1629807943281,-1.0,0.109375,0.0
1629807943312,-1.0,0.109375,0.0
1629807943343,-1.0,0.09375,0.0
1629807943375,-1.0,0.09375,-0.015625
1629807943406,-1.0,0.109375,0.0
1629807943437,-1.0,0.109375,0.0
1629807943468,-1.0,0.109375,-0.015625
1629807943500,-1.0,0.109375,-0.015625
1629807943531,-0.984375,0.109375,0.0
1629807943562,-1.0,0.09375,-0.015625
1629807943593,-1.0,0.09375,-0.015625
1629807943625,-1.0,0.09375,0.0
1629807943656,-1.0,0.109375,0.0
1629807943687,-1.0,0.109375,-0.015625
1629807943718,-0.984375,0.09375,-0.015625
1629807943750,-1.0,0.09375,0.0
1629807943781,-0.984375,0.109375,0.0
1629807943812,-1.0,0.109375,-0.015625
1629807943843,-1.0,0.109375,-0.015625
1629807943875,-1.0,0.109375,0.0
1629807943906,-1.0,0.109375,0.0
1629807943937,-1.0,0.109375,-0.015625
1629807943968,-1.015625,0.109375,-0.015625
1629807944000,-1.0,0.109375,-0.015625
1629807944031,-1.0,0.109375,0.0
1629807944062,-1.0,0.109375,-0.015625
1629807944093,-1.0,0.109375,-0.03125
1629807944125,-1.0,0.109375,-0.015625
1629807944156,-1.0,0.109375,-0.015625
1629807944187,-0.984375,0.109375,0.0
1629807944218,-0.96875,0.09375,-0.015625
1629807944250,-1.046875,0.125,-0.078125
1629807944281,-1.015625,0.09375,0.03125
1629807944312,-1.0,0.078125,0.015625
1629807944343,-1.0,0.09375,-0.015625
1629807944375,-1.0,0.109375,-0.015625
1629807944406,-1.0,0.109375,-0.015625
1629807944437,-1.0,0.109375,0.0
1629807944468,-1.0,0.109375,-0.015625
1629807944500,-0.984375,0.09375,0.0
1629807944531,-1.0,0.09375,0.0
1629807944562,-1.0,0.09375,0.0
1629807944593,-1.0,0.09375,-0.015625
1629807944625,-1.0,0.109375,0.0
1629807944656,-1.0,0.109375,-0.015625
1629807944687,-1.0,0.109375,-0.015625
1629807944718,-1.0,0.109375,0.0
1629807944750,-1.0,0.09375,-0.015625
1629807944781,-1.0,0.109375,0.0
1629807944812,-1.0,0.09375,-0.015625
1629807944843,-1.0,0.09375,-0.015625
1629807944875,-1.0,0.09375,-0.015625
1629807944906,-1.0,0.09375,-0.015625
1629807944937,-1.0,0.109375,-0.015625
1629807944968,-1.0,0.09375,0.0
1629807945000,-1.015625,0.109375,-0.015625
1629807945031,-1.0,0.09375,0.0
1629807945062,-1.0,0.09375,0.0
1629807945093,-1.0,0.09375,0.0
1629807945125,-1.0,0.09375,0.0
1629807945156,-0.984375,0.09375,0.0
1629807945187,-1.0,0.109375,0.0
1629807945218,-1.0,0.109375,0.0
1629807945250,-1.0,0.109375,0.0
1629807945281,-0.984375,0.109375,0.0
1629807945312,-1.0,0.109375,0.0
1629807945343,-1.0,0.09375,0.0
1629807945375,-0.984375,0.09375,0.015625
1629807945406,-1.0,0.09375,0.015625
1629807945437,-1.0,0.09375,0.0
1629807945468,-1.0,0.09375,0.015625
1629807945500,-1.0,0.09375,0.015625
1629807945531,-0.984375,0.09375,0.0
1629807945562,-1.0,0.109375,0.0
1629807945593,-1.0,0.09375,0.015625
1629807945625,-1.0,0.09375,0.015625
1629807945656,-0.96875,0.09375,0.03125
1629807945687,-0.984375,0.109375,0.03125
1629807945718,-1.0,0.109375,0.03125
1629807945750,-1.0,0.109375,0.03125
1629807945781,-1.0,0.109375,0.03125
1629807945812,-0.984375,0.109375,0.03125
1629807945843,-0.984375,0.109375,0.03125
1629807945875,-1.0,0.09375,0.03125
1629807945906,-1.0,0.09375,0.046875
1629807945937,-0.984375,0.109375,0.046875
1629807945968,-1.0,0.109375,0.046875
1629807946000,-1.0,0.109375,0.046875
1629807946031,-1.0,0.109375,0.046875
1629807946062,-1.0,0.109375,0.046875
1629807946093,-1.0,0.109375,0.046875
1629807946125,-1.0,0.109375,0.046875
1629807946156,-1.0,0.109375,0.046875
1629807946187,-1.0,0.109375,0.046875
1629807946218,-1.0,0.09375,0.046875
1629807946250,-1.0,0.109375,0.046875
1629807946281,-1.0,0.109375,0.046875
1629807946312,-0.984375,0.109375,0.046875
1629807946343,-1.0,0.109375,0.046875
1629807946375,-1.0,0.109375,0.046875
1629807946406,-1.0,0.09375,0.046875
1629807946437,-0.984375,0.109375,0.046875
1629807946468,-0.984375,0.109375,0.046875
1629807946500,-1.0,0.109375,0.046875
1629807946531,-1.0,0.109375,0.0625
1629807946562,-1.0,0.109375,0.0625
1629807946593,-1.0,0.109375,0.046875
1629807946625,-0.984375,0.109375,0.046875
1629807946656,-0.984375,0.09375,0.046875
1629807946687,-1.0,0.109375,0.046875
1629807946718,-0.984375,0.109375,0.046875
1629807946750,-1.0,0.09375,0.046875
1629807946781,-1.0,0.09375,0.046875
1629807946812,-1.0,0.09375,0.046875
1629807946843,-0.984375,0.09375,0.046875
1629807946875,-0.984375,0.09375,0.046875
1629807946906,-1.0,0.109375,0.046875
1629807946937,-0.984375,0.109375,0.046875
1629807946968,-0.984375,0.109375,0.046875
1629807947000,-1.0,0.109375,0.046875
1629807947031,-1.0,0.109375,0.046875
1629807947062,-1.0,0.109375,0.046875
1629807947093,-1.0,0.09375,0.046875
1629807947125,-0.984375,0.109375,0.046875
1629807947156,-1.0,0.09375,0.046875
1629807947187,-0.984375,0.09375,0.046875
1629807947218,-1.0,0.109375,0.046875
1629807947250,-1.0,0.109375,0.046875
1629807947281,-1.0,0.109375,0.046875
1629807947312,-0.984375,0.109375,0.046875
1629807947343,-1.0,0.109375,0.046875
1629807947375,-0.984375,0.109375,0.046875
1629807947406,-1.0,0.109375,0.046875
1629807947437,-0.984375,0.109375,0.046875
1629807947468,-0.984375,0.109375,0.046875
1629807947500,-1.0,0.109375,0.046875
1629807947531,-1.0,0.109375,0.0625
1629807947562,-0.984375,0.109375,0.0625
1629807947593,-0.984375,0.109375,0.046875
1629807947625,-0.984375,0.109375,0.046875
1629807947656,-1.0,0.109375,0.046875
1629807947687,-0.984375,0.109375,0.046875
1629807947718,-0.984375,0.109375,0.046875
1629807947750,-0.984375,0.109375,0.046875
1629807947781,-1.0,0.109375,0.046875
1629807947812,-0.984375,0.09375,0.0625
1629807947843,-0.984375,0.109375,0.0625
1629807947875,-0.984375,0.109375,0.046875
1629807947906,-1.0,0.109375,0.0625
1629807947937,-0.984375,0.109375,0.0625
1629807947968,-1.0,0.109375,0.046875
1629807948000,-0.984375,0.109375,0.0625
1629807948031,-0.984375,0.109375,0.0625
1629807948062,-0.984375,0.109375,0.0625
1629807948093,-1.0,0.109375,0.0625
1629807948125,-1.0,0.109375,0.0625
1629807948156,-1.0,0.109375,0.0625
1629807948187,-0.984375,0.109375,0.078125
1629807948218,-0.984375,0.109375,0.078125
1629807948250,-1.0,0.109375,0.0625
1629807948281,-0.984375,0.109375,0.0625
1629807948312,-1.0,0.109375,0.0625
1629807948343,-1.0,0.109375,0.0625
1629807948375,-0.984375,0.109375,0.078125
1629807948406,-0.984375,0.109375,0.078125
1629807948437,-1.0,0.109375,0.078125
1629807948468,-0.984375,0.109375,0.078125
1629807948500,-0.984375,0.109375,0.078125
1629807948531,-0.984375,0.109375,0.078125
1629807948562,-1.0,0.109375,0.078125
1629807948593,-1.0,0.109375,0.09375
1629807948625,-0.984375,0.109375,0.078125
1629807948656,-0.984375,0.109375,0.078125
1629807948687,-0.984375,0.109375,0.078125
1629807948718,-0.984375,0.109375,0.078125
