timestamp,ax,ay,az
1629800379781,0.890625,0.40625,0.21875
1629800379812,0.890625,0.40625,0.21875
1629800379843,0.890625,0.40625,0.21875
1629800379875,0.890625,0.40625,0.21875
1629800379906,0.890625,0.40625,0.21875
1629800379937,0.890625,0.40625,0.21875
1629800379968,0.890625,0.40625,0.234375
1629800380000,0.890625,0.40625,0.21875
1629800380031,0.890625,0.40625,0.234375
1629800380062,0.890625,0.40625,0.21875
1629800380093,0.890625,0.40625,0.21875
1629800380125,0.890625,0.40625,0.21875
1629800380156,0.890625,0.40625,0.21875
1629800380187,0.890625,0.40625,0.21875
1629800380218,0.890625,0.40625,0.21875
1629800380250,0.890625,0.40625,0.21875
1629800380281,0.890625,0.40625,0.21875
1629800380312,0.890625,0.40625,0.234375
1629800380343,0.890625,0.40625,0.21875
1629800380375,0.890625,0.40625,0.234375
1629800380406,0.890625,0.40625,0.21875
1629800380437,0.890625,0.40625,0.21875
1629800380468,0.890625,0.40625,0.21875
1629800380500,0.890625,0.40625,0.21875
1629800380531,0.890625,0.40625,0.21875
1629800380562,0.890625,0.40625,0.21875
1629800380593,0.890625,0.40625,0.21875
1629800380625,0.890625,0.40625,0.21875
1629800380656,0.890625,0.40625,0.21875
1629800380687,0.890625,0.40625,0.21875
1629800380718,0.890625,0.40625,0.21875
1629800380750,0.890625,0.40625,0.21875
1629800380781,0.890625,0.390625,0.21875
1629800380812,0.890625,0.390625,0.21875
1629800380843,0.890625,0.390625,0.21875
1629800380875,0.890625,0.40625,0.21875
1629800380906,0.890625,0.40625,0.21875
1629800380937,0.890625,0.40625,0.234375
1629800380968,0.890625,0.390625,0.21875
1629800381000,0.890625,0.40625,0.21875
1629800381031,0.890625,0.390625,0.21875
1629800381062,0.890625,0.40625,0.21875
1629800381093,0.890625,0.40625,0.21875
1629800381125,0.890625,0.390625,0.21875
1629800381156,0.890625,0.390625,0.21875
1629800381187,0.890625,0.40625,0.21875
1629800381218,0.890625,0.390625,0.21875
1629800381250,0.890625,0.40625,0.21875
1629800381281,0.890625,0.40625,0.21875
1629800381312,0.890625,0.40625,0.21875
1629800381343,0.890625,0.40625,0.21875
1629800381375,0.890625,0.390625,0.234375
1629800381406,0.890625,0.390625,0.21875
1629800381437,0.890625,0.390625,0.21875
1629800381468,0.890625,0.40625,0.21875
1629800381500,0.890625,0.390625,0.21875
1629800381531,0.890625,0.40625,0.21875
1629800381562,0.890625,0.390625,0.21875
1629800381593,0.890625,0.40625,0.21875
1629800381625,0.875,0.40625,0.21875
1629800381656,0.875,0.40625,0.234375
1629800381687,0.875,0.390625,0.234375
1629800381718,0.875,0.40625,0.25
1629800381750,0.875,0.40625,0.234375
1629800381781,0.890625,0.421875,0.234375
1629800381812,0.875,0.421875,0.21875
1629800381843,0.90625,0.4375,0.21875
1629800381875,0.875,0.4375,0.21875
1629800381906,0.875,0.4375,0.234375
1629800381937,0.859375,0.453125,0.265625
1629800381968,0.828125,0.4375,0.265625
1629800382000,0.828125,0.453125,0.265625
1629800382031,0.84375,0.46875,0.28125
1629800382062,0.796875,0.46875,0.265625
1629800382093,0.84375,0.515625,0.265625
1629800382125,0.84375,0.515625,0.265625
1629800382156,0.828125,0.515625,0.265625
1629800382187,0.8125,0.515625,0.25
1629800382218,0.828125,0.53125,0.25
1629800382250,0.84375,0.53125,0.25
1629800382281,0.796875,0.515625,0.21875
1629800382312,0.8125,0.53125,0.265625
1629800382343,0.8125,0.53125,0.265625
1629800382375,0.8125,0.515625,0.265625
1629800382406,0.859375,0.53125,0.21875
1629800382437,0.734375,0.578125,0.265625
1629800382468,0.765625,0.578125,0.296875
1629800382500,0.828125,0.59375,0.296875
1629800382531,0.796875,0.59375,0.296875
1629800382562,0.765625,0.59375,0.296875
1629800382593,0.78125,0.578125,0.21875
1629800382625,0.796875,0.546875,0.203125
1629800382656,0.640625,0.515625,0.078125
1629800382687,0.71875,0.484375,0.046875
1629800382718,0.78125,0.46875,-0.078125
1629800382750,1.171875,0.40625,-0.265625
1629800382781,0.96875,0.4375,-0.390625
1629800382812,0.90625,0.421875,-0.359375
1629800382843,0.921875,0.4375,-0.203125
1629800382875,0.890625,0.515625,-0.125
1629800382906,0.703125,0.515625,-0.078125
1629800382937,0.765625,0.53125,-0.046875
1629800382968,0.921875,0.484375,-0.0625
1629800383000,0.921875,0.46875,-0.09375
1629800383031,0.9375,0.46875,-0.09375
1629800383062,0.890625,0.453125,-0.109375
1629800383093,0.875,0.4375,-0.125
1629800383125,0.859375,0.46875,-0.125
1629800383156,0.859375,0.46875,-0.125
1629800383187,0.90625,0.46875,-0.109375
1629800383218,0.90625,0.46875,-0.109375
1629800383250,0.90625,0.46875,-0.109375
1629800383281,0.875,0.46875,-0.109375
1629800383312,0.890625,0.46875,-0.125
1629800383343,0.921875,0.46875,-0.125
1629800383375,0.875,0.453125,-0.125
1629800383406,0.875,0.453125,-0.078125
1629800383437,0.890625,0.46875,-0.078125
1629800383468,0.9375,0.46875,-0.078125
1629800383500,0.890625,0.46875,-0.078125
1629800383531,0.90625,0.453125,-0.03125
1629800383562,0.875,0.453125,0.015625
1629800383593,0.96875,0.453125,0.046875
1629800383625,0.890625,0.421875,-0.015625
1629800383656,0.890625,0.4375,0.015625
1629800383687,0.859375,0.40625,0.09375
1629800383718,0.9375,0.390625,0.03125
1629800383750,0.953125,0.40625,0.03125
1629800383781,0.859375,0.421875,0.109375
1629800383812,0.859375,0.40625,0.0625
1629800383843,0.9375,0.40625,0.09375
1629800383875,0.84375,0.40625,0.09375
1629800383906,0.890625,0.40625,0.0625
1629800383937,0.953125,0.40625,0.03125
1629800383968,0.890625,0.421875,0.109375
1629800384000,0.890625,0.4375,0.125
1629800384031,0.90625,0.359375,0.0
1629800384062,0.890625,0.375,-0.046875
1629800384093,0.859375,0.4375,0.03125
1629800384125,0.859375,0.453125,0.046875
1629800384156,0.953125,0.46875,0.03125
1629800384187,0.96875,0.46875,-0.015625
1629800384218,0.984375,0.46875,-0.015625
1629800384250,0.90625,0.453125,-0.015625
1629800384281,0.859375,0.453125,-0.015625
1629800384312,0.890625,0.4375,0.0
1629800384343,0.890625,0.4375,0.015625
1629800384375,0.828125,0.421875,0.03125
1629800384406,0.859375,0.421875,0.03125
1629800384437,0.96875,0.46875,0.015625
1629800384468,0.984375,0.46875,0.0
1629800384500,0.953125,0.53125,-0.03125
1629800384531,0.9375,0.546875,0.0
1629800384562,0.875,0.546875,-0.03125
1629800384593,0.90625,0.546875,-0.0625
1629800384625,0.859375,0.5625,-0.078125
1629800384656,0.859375,0.5625,-0.09375
1629800384687,0.90625,0.5625,-0.078125
1629800384718,0.890625,0.53125,-0.109375
1629800384750,0.953125,0.5,-0.03125
1629800384781,0.90625,0.5,0.0
1629800384812,0.890625,0.5,0.0625
1629800384843,0.859375,0.484375,0.046875
1629800384875,0.875,0.4375,0.0625
1629800384906,0.96875,0.40625,0.109375
1629800384937,0.953125,0.375,0.078125
1629800384968,0.9375,0.296875,0.078125
1629800385000,0.96875,0.28125,0.125
1629800385031,0.953125,0.234375,0.125
1629800385062,0.921875,0.1875,0.21875
1629800385093,0.875,0.140625,0.28125
1629800385125,0.8125,0.046875,0.28125
1629800385156,0.859375,0.09375,0.3125
1629800385187,0.84375,0.15625,0.328125
1629800385218,0.78125,0.265625,0.359375
1629800385250,0.734375,0.28125,0.34375
1629800385281,0.921875,0.296875,0.28125
1629800385312,0.953125,0.328125,0.21875
1629800385343,1.015625,0.34375,0.15625
1629800385375,1.109375,0.390625,0.0625
1629800385406,1.03125,0.46875,0.078125
1629800385437,0.828125,0.53125,0.15625
1629800385468,0.921875,0.578125,0.171875
1629800385500,0.921875,0.546875,0.171875
1629800385531,0.890625,0.453125,0.171875
1629800385562,0.890625,0.4375,0.171875
1629800385593,0.921875,0.390625,0.171875
1629800385625,0.859375,0.359375,0.203125
1629800385656,0.828125,0.28125,0.203125
1629800385687,1.0,0.234375,0.21875
1629800385718,0.984375,0.25,0.203125
1629800385750,0.890625,0.296875,0.203125
1629800385781,0.890625,0.3125,0.21875
1629800385812,0.9375,0.328125,0.21875
1629800385843,0.953125,0.328125,0.1875
1629800385875,0.953125,0.328125,0.1875
1629800385906,0.9375,0.328125,0.1875
1629800385937,0.953125,0.296875,0.15625
1629800385968,0.96875,0.28125,0.140625
1629800386000,0.921875,0.3125,0.203125
1629800386031,0.890625,0.328125,0.234375
1629800386062,0.90625,0.328125,0.234375
1629800386093,0.9375,0.328125,0.21875
1629800386125,0.9375,0.3125,0.21875
1629800386156,0.921875,0.3125,0.21875
1629800386187,0.9375,0.296875,0.21875
1629800386218,0.9375,0.296875,0.21875
1629800386250,0.9375,0.28125,0.21875
1629800386281,0.9375,0.265625,0.21875
1629800386312,0.921875,0.28125,0.234375
1629800386343,0.9375,0.28125,0.203125
1629800386375,0.9375,0.296875,0.203125
1629800386406,0.9375,0.296875,0.203125
1629800386437,0.9375,0.296875,0.203125
1629800386468,0.9375,0.3125,0.203125
1629800386500,0.9375,0.296875,0.203125
1629800386531,0.9375,0.296875,0.203125
1629800386562,0.9375,0.296875,0.203125
1629800386593,0.9375,0.28125,0.21875
1629800386625,0.9375,0.296875,0.21875
1629800386656,0.9375,0.296875,0.21875
1629800386687,0.9375,0.296875,0.21875
1629800386718,0.9375,0.296875,0.203125
1629800386750,0.9375,0.296875,0.21875
1629800386781,0.9375,0.296875,0.203125
1629800386812,0.9375,0.296875,0.203125
1629800386843,0.9375,0.296875,0.203125
1629800386875,0.9375,0.296875,0.203125
1629800386906,0.9375,0.296875,0.203125
1629800386937,0.9375,0.296875,0.203125
1629800386968,0.9375,0.296875,0.203125
1629800387000,0.9375,0.296875,0.21875
1629800387031,0.9375,0.296875,0.203125
1629800387062,0.9375,0.296875,0.203125
1629800387093,0.9375,0.296875,0.21875
1629800387125,0.9375,0.296875,0.21875
1629800387156,0.9375,0.296875,0.203125
1629800387187,0.9375,0.296875,0.203125
1629800387218,0.9375,0.296875,0.203125
1629800387250,0.9375,0.296875,0.21875
1629800387281,0.9375,0.296875,0.21875
1629800387312,0.9375,0.296875,0.21875
1629800387343,0.9375,0.296875,0.21875
1629800387375,0.9375,0.296875,0.203125
1629800387406,0.9375,0.296875,0.21875
1629800387437,0.9375,0.296875,0.21875
1629800387468,0.9375,0.296875,0.203125
1629800387500,0.9375,0.296875,0.21875
1629800387531,0.9375,0.296875,0.21875
1629800387562,0.9375,0.296875,0.21875
1629800387593,0.9375,0.296875,0.21875
1629800387625,0.9375,0.296875,0.21875
1629800387656,0.9375,0.296875,0.21875
1629800387687,0.9375,0.296875,0.21875
1629800387718,0.9375,0.296875,0.21875
1629800387750,0.9375,0.296875,0.21875
1629800387781,0.9375,0.296875,0.21875
1629800387812,0.9375,0.296875,0.203125
1629800387843,0.9375,0.296875,0.203125
1629800387875,0.9375,0.296875,0.203125
1629800387906,0.9375,0.296875,0.203125
1629800387937,0.9375,0.296875,0.21875
1629800387968,0.9375,0.296875,0.21875
1629800388000,0.9375,0.296875,0.21875
1629800388031,0.9375,0.296875,0.21875
1629800388062,0.9375,0.296875,0.21875
1629800388093,0.9375,0.296875,0.21875
1629800388125,0.9375,0.296875,0.21875
1629800388156,0.9375,0.296875,0.21875
1629800388187,0.9375,0.296875,0.21875
1629800388218,0.9375,0.296875,0.21875
1629800388250,0.9375,0.296875,0.21875
1629800388281,0.9375,0.296875,0.21875
1629800388312,0.9375,0.296875,0.21875
1629800388343,0.9375,0.296875,0.203125
1629800388375,0.9375,0.296875,0.21875
1629800388406,0.9375,0.296875,0.21875
1629800388437,0.9375,0.296875,0.21875
1629800388468,0.9375,0.296875,0.21875
1629800388500,0.9375,0.296875,0.21875
1629800388531,0.9375,0.296875,0.21875
1629800388562,0.9375,0.296875,0.21875
1629800388593,0.9375,0.296875,0.21875
1629800388625,0.9375,0.296875,0.21875
1629800388656,0.9375,0.296875,0.21875
1629800388687,0.9375,0.296875,0.21875
1629800388718,0.953125,0.28125,0.21875
1629800388750,0.9375,0.296875,0.21875
1629800388781,0.9375,0.296875,0.21875
1629800388812,0.953125,0.28125,0.21875
1629800388843,0.953125,0.28125,0.21875
1629800388875,0.9375,0.28125,0.21875
1629800388906,0.921875,0.296875,0.21875
1629800388937,0.90625,0.296875,0.21875
1629800388968,0.9375,0.296875,0.21875
1629800389000,0.921875,0.296875,0.21875
1629800389031,0.921875,0.3125,0.21875
1629800389062,0.9375,0.296875,0.21875
1629800389093,0.921875,0.296875,0.21875
1629800389125,0.9375,0.296875,0.203125
1629800389156,0.921875,0.3125,0.203125
1629800389187,0.9375,0.3125,0.234375
1629800389218,0.921875,0.296875,0.234375
1629800389250,0.921875,0.296875,0.234375
1629800389281,0.9375,0.296875,0.234375
1629800389312,0.9375,0.3125,0.234375
1629800389343,0.921875,0.3125,0.21875
1629800389375,0.9375,0.296875,0.21875
1629800389406,0.9375,0.296875,0.21875
1629800389437,0.9375,0.296875,0.234375
1629800389468,0.9375,0.296875,0.234375
1629800389500,0.921875,0.296875,0.234375
1629800389531,0.921875,0.3125,0.234375
1629800389562,0.9375,0.3125,0.234375
1629800389593,0.921875,0.3125,0.234375
1629800389625,0.921875,0.296875,0.234375
1629800389656,0.921875,0.296875,0.234375
1629800389687,0.921875,0.296875,0.21875
1629800389718,0.9375,0.3125,0.21875
1629800389750,0.9375,0.3125,0.21875
1629800389781,0.9375,0.3125,0.21875
1629800389812,0.9375,0.3125,0.21875
1629800389843,0.9375,0.3125,0.234375
1629800389875,0.9375,0.3125,0.234375
1629800389906,0.9375,0.296875,0.234375
1629800389937,0.921875,0.3125,0.234375
1629800389968,0.921875,0.3125,0.234375
1629800390000,0.9375,0.296875,0.21875
1629800390031,0.9375,0.3125,0.21875
1629800390062,0.9375,0.296875,0.21875
1629800390093,0.921875,0.296875,0.234375
1629800390125,0.9375,0.296875,0.21875
1629800390156,0.9375,0.3125,0.234375
1629800390187,0.921875,0.3125,0.21875
1629800390218,0.9375,0.3125,0.234375
1629800390250,0.9375,0.3125,0.21875
1629800390281,0.9375,0.296875,0.21875
1629800390312,0.9375,0.3125,0.234375
1629800390343,0.921875,0.296875,0.21875
1629800390375,0.921875,0.3125,0.234375
1629800390406,0.9375,0.296875,0.234375
1629800390437,0.9375,0.296875,0.21875
1629800390468,0.9375,0.3125,0.21875
1629800390500,0.9375,0.3125,0.21875
1629800390531,0.9375,0.3125,0.21875
1629800390562,0.9375,0.3125,0.21875
1629800390593,0.9375,0.296875,0.21875
1629800390625,0.921875,0.3125,0.21875
1629800390656,0.921875,0.296875,0.21875
1629800390687,0.921875,0.296875,0.234375
1629800390718,0.9375,0.3125,0.234375
1629800390750,0.9375,0.296875,0.234375
1629800390781,0.9375,0.296875,0.21875
1629800390812,0.921875,0.296875,0.234375
1629800390843,0.9375,0.3125,0.21875
1629800390875,0.921875,0.3125,0.21875
1629800390906,0.921875,0.296875,0.21875
1629800390937,0.9375,0.296875,0.234375
1629800390968,0.9375,0.296875,0.21875
1629800391000,0.9375,0.3125,0.21875
1629800391031,0.9375,0.296875,0.234375
1629800391062,0.921875,0.296875,0.234375
1629800391093,0.9375,0.296875,0.234375
1629800391125,0.9375,0.3125,0.234375
1629800391156,0.921875,0.3125,0.234375
1629800391187,0.921875,0.296875,0.21875
1629800391218,0.9375,0.296875,0.234375
1629800391250,0.921875,0.3125,0.234375
1629800391281,0.921875,0.296875,0.21875
1629800391312,0.9375,0.296875,0.234375
1629800391343,0.921875,0.296875,0.234375
1629800391375,0.9375,0.296875,0.234375
1629800391406,0.9375,0.3125,0.21875
1629800391437,0.9375,0.3125,0.234375
1629800391468,0.9375,0.296875,0.234375
1629800391500,0.9375,0.296875,0.234375
1629800391531,0.921875,0.3125,0.234375
1629800391562,0.9375,0.3125,0.234375
1629800391593,0.921875,0.3125,0.234375
1629800391625,0.9375,0.296875,0.234375
1629800391656,0.9375,0.296875,0.234375
1629800391687,0.96875,0.296875,0.21875
1629800391718,0.984375,0.296875,0.234375
1629800391750,1.03125,0.34375,0.265625
1629800391781,1.328125,0.5,0.40625
1629800391812,1.265625,0.390625,0.421875
1629800391843,1.140625,0.40625,0.53125
1629800391875,0.984375,0.375,0.546875
1629800391906,0.953125,0.484375,0.671875
1629800391937,0.96875,0.40625,0.71875
1629800391968,1.0625,0.453125,0.953125
1629800392000,1.1875,0.234375,1.203125
1629800392031,1.140625,0.140625,1.109375
1629800392062,0.28125,-0.25,0.6875
1629800392093,-0.46875,-0.65625,0.078125
1629800392125,-0.1875,-0.8125,-0.03125
1629800392156,0.765625,-0.796875,0.46875
1629800392187,0.4375,-0.671875,0.4375
1629800392218,0.0625,-0.46875,0.40625
1629800392250,-0.3125,-0.578125,0.21875
1629800392281,-0.390625,-0.53125,0.21875
1629800392312,0.265625,-0.75,0.265625
1629800392343,0.046875,-0.671875,0.3125
1629800392375,0.171875,-0.734375,0.296875
1629800392406,0.25,-0.859375,0.328125
1629800392437,0.171875,-0.828125,0.28125
1629800392468,0.390625,-1.03125,0.265625
1629800392500,0.21875,-1.015625,0.359375
1629800392531,0.1875,-1.0,0.359375
1629800392562,0.109375,-0.953125,0.265625
1629800392593,0.140625,-0.9375,0.25
1629800392625,0.1875,-0.96875,0.296875
1629800392656,0.203125,-0.953125,0.3125
1629800392687,0.125,-0.96875,0.328125
1629800392718,0.203125,-0.9375,0.359375
1629800392750,0.21875,-0.953125,0.328125
1629800392781,0.15625,-1.0,0.265625
1629800392812,0.234375,-0.953125,0.28125
1629800392843,0.234375,-0.9375,0.3125
1629800392875,0.1875,-0.953125,0.3125
1629800392906,0.15625,-0.953125,0.359375
1629800392937,0.078125,-0.96875,0.3125
1629800392968,0.171875,-0.953125,0.234375
1629800393000,0.203125,-0.953125,0.21875
1629800393031,0.1875,-0.9375,0.234375
1629800393062,0.21875,-0.9375,0.3125
1629800393093,0.21875,-0.953125,0.34375
1629800393125,0.078125,-0.984375,0.296875
1629800393156,0.109375,-0.96875,0.3125
1629800393187,0.140625,-0.984375,0.296875
1629800393218,0.15625,-0.96875,0.34375
1629800393250,0.125,-0.96875,0.328125
1629800393281,0.125,-0.953125,0.265625
1629800393312,0.125,-0.96875,0.265625
1629800393343,0.1875,-1.015625,0.21875
1629800393375,0.15625,-0.953125,0.28125
1629800393406,0.15625,-0.96875,0.296875
1629800393437,0.140625,-0.984375,0.265625
1629800393468,0.203125,-0.96875,0.28125
1629800393500,0.203125,-1.03125,0.28125
1629800393531,0.28125,-0.96875,0.296875
1629800393562,0.265625,-0.921875,0.234375
1629800393593,0.15625,-0.890625,0.03125
1629800393625,0.28125,-0.921875,0.140625
1629800393656,0.09375,-0.921875,0.390625
1629800393687,0.0,-0.984375,0.375
1629800393718,-0.03125,-0.984375,0.234375
1629800393750,0.28125,-1.09375,0.109375
1629800393781,0.15625,-1.015625,0.1875
1629800393812,0.0625,-0.984375,0.15625
1629800393843,0.046875,-0.96875,0.21875
1629800393875,-0.03125,-0.921875,0.3125
1629800393906,0.171875,-0.953125,0.296875
1629800393937,0.25,-0.984375,0.21875
1629800393968,0.15625,-0.984375,0.1875
1629800394000,0.125,-0.9375,0.265625
1629800394031,0.15625,-0.953125,0.296875
1629800394062,0.203125,-1.0,0.265625
1629800394093,0.15625,-0.984375,0.25
1629800394125,0.125,-0.984375,0.25
1629800394156,0.15625,-0.953125,0.328125
1629800394187,0.171875,-0.9375,0.3125
1629800394218,0.21875,-0.875,0.3125
1629800394250,0.203125,-0.921875,0.265625
1629800394281,0.03125,-0.90625,0.21875
1629800394312,0.15625,-0.859375,0.34375
1629800394343,0.171875,-0.90625,0.328125
1629800394375,0.25,-1.0625,0.25
1629800394406,0.359375,-1.15625,0.15625
1629800394437,0.234375,-1.203125,0.125
1629800394468,0.125,-1.09375,0.234375
1629800394500,0.109375,-1.03125,0.265625
1629800394531,0.03125,-1.0,0.203125
1629800394562,-0.0625,-0.9375,0.21875
1629800394593,-0.140625,-0.9375,0.234375
1629800394625,-0.078125,-0.90625,0.25
1629800394656,0.03125,-0.953125,0.21875
1629800394687,0.03125,-0.984375,0.25
1629800394718,0.046875,-1.0,0.265625
1629800394750,-0.015625,-1.0,0.25
1629800394781,0.03125,-1.0,0.25
1629800394812,0.03125,-0.984375,0.25
1629800394843,0.046875,-1.0,0.25
1629800394875,0.015625,-0.96875,0.25
1629800394906,0.03125,-0.96875,0.234375
1629800394937,0.046875,-0.984375,0.203125
1629800394968,-0.03125,-0.96875,0.234375
1629800395000,-0.015625,-0.984375,0.234375
1629800395031,0.046875,-1.0,0.21875
1629800395062,0.109375,-1.0,0.21875
1629800395093,0.015625,-1.015625,0.203125
1629800395125,-0.015625,-0.984375,0.21875
1629800395156,0.0625,-0.984375,0.234375
1629800395187,0.046875,-1.0,0.21875
1629800395218,-0.015625,-0.96875,0.1875
1629800395250,-0.0625,-0.953125,0.1875
1629800395281,-0.03125,-0.953125,0.21875
1629800395312,-0.03125,-0.921875,0.203125
1629800395343,-0.046875,-0.828125,0.171875
1629800395375,-0.09375,-0.71875,0.03125
1629800395406,-0.0625,-0.703125,0.046875
1629800395437,0.0,-0.59375,0.1875
1629800395468,0.046875,-0.546875,0.265625
1629800395500,0.203125,-0.578125,0.375
1629800395531,0.5,-0.640625,0.359375
1629800395562,0.671875,-0.640625,0.40625
1629800395593,0.640625,-0.75,0.4375
1629800395625,0.875,-0.75,0.4375
1629800395656,0.890625,-0.65625,0.34375
1629800395687,0.65625,-0.40625,0.40625
1629800395718,0.640625,-0.3125,0.5625
1629800395750,0.484375,-0.296875,0.546875
1629800395781,0.921875,-0.203125,0.46875
1629800395812,1.234375,-0.0625,0.265625
1629800395843,1.40625,0.09375,0.5625
1629800395875,0.78125,0.140625,0.3125
1629800395906,0.9375,0.265625,0.078125
1629800395937,1.234375,0.375,-0.1875
1629800395968,1.1875,0.53125,-0.140625
1629800396000,1.140625,0.59375,-0.1875
1629800396031,1.390625,0.515625,-0.296875
1629800396062,1.328125,0.421875,-0.296875
1629800396093,0.84375,0.4375,-0.125
1629800396125,0.8125,0.4375,-0.078125
1629800396156,0.890625,0.375,-0.03125
1629800396187,0.953125,0.359375,-0.0625
1629800396218,0.984375,0.3125,-0.0625
1629800396250,0.921875,0.34375,-0.015625
1629800396281,0.921875,0.359375,0.0
1629800396312,0.90625,0.359375,-0.015625
1629800396343,0.984375,0.375,0.0
1629800396375,0.9375,0.359375,0.0
1629800396406,0.921875,0.34375,0.0
1629800396437,0.953125,0.359375,0.0
1629800396468,0.921875,0.359375,0.03125
1629800396500,0.9375,0.359375,0.0
1629800396531,0.953125,0.359375,0.0
1629800396562,0.921875,0.375,0.0
1629800396593,0.90625,0.375,0.0
1629800396625,0.953125,0.390625,-0.015625
1629800396656,0.953125,0.375,-0.03125
1629800396687,0.921875,0.375,-0.015625
1629800396718,0.9375,0.375,0.0
1629800396750,0.9375,0.375,0.0
1629800396781,0.96875,0.375,-0.015625
1629800396812,0.953125,0.375,0.0
1629800396843,0.9375,0.375,0.015625
1629800396875,0.921875,0.34375,0.015625
1629800396906,0.9375,0.34375,0.015625
1629800396937,0.90625,0.34375,0.03125
1629800396968,0.9375,0.34375,0.0
1629800397000,0.953125,0.34375,0.0
1629800397031,0.953125,0.359375,0.0
1629800397062,0.953125,0.34375,0.0
1629800397093,0.953125,0.34375,-0.015625
1629800397125,0.9375,0.359375,0.0
1629800397156,0.9375,0.359375,0.0
1629800397187,0.9375,0.359375,0.0
1629800397218,0.9375,0.359375,0.0
1629800397250,0.9375,0.359375,0.0
1629800397281,0.9375,0.359375,0.0
1629800397312,0.9375,0.359375,0.0
1629800397343,0.953125,0.359375,0.0
1629800397375,0.9375,0.359375,0.0
1629800397406,0.9375,0.359375,0.0
1629800397437,0.9375,0.359375,0.0
1629800397468,0.9375,0.359375,0.0
1629800397500,0.9375,0.359375,0.0
1629800397531,0.9375,0.359375,0.0
1629800397562,0.9375,0.359375,0.0
1629800397593,0.953125,0.359375,0.0
1629800397625,0.953125,0.359375,0.0
1629800397656,0.9375,0.359375,0.0
1629800397687,0.9375,0.359375,-0.015625
1629800397718,0.9375,0.359375,-0.015625
1629800397750,0.9375,0.359375,-0.015625
1629800397781,0.9375,0.359375,-0.015625
1629800397812,0.9375,0.359375,-0.015625
1629800397843,0.9375,0.359375,-0.015625
1629800397875,0.9375,0.359375,-0.015625
1629800397906,0.9375,0.34375,0.0
1629800397937,0.9375,0.359375,0.0
1629800397968,0.953125,0.359375,-0.015625
1629800398000,0.9375,0.359375,-0.015625
1629800398031,0.9375,0.359375,-0.015625
1629800398062,0.9375,0.359375,-0.015625
1629800398093,0.9375,0.359375,-0.015625
1629800398125,0.9375,0.359375,0.0
1629800398156,0.9375,0.359375,-0.015625
1629800398187,0.9375,0.359375,-0.015625
1629800398218,0.953125,0.359375,-0.015625
1629800398250,0.9375,0.359375,-0.015625
1629800398281,0.9375,0.359375,0.0
1629800398312,0.9375,0.359375,-0.015625
1629800398343,0.953125,0.359375,-0.015625
1629800398375,0.9375,0.359375,-0.015625
1629800398406,0.9375,0.359375,-0.015625
1629800398437,0.9375,0.359375,-0.015625
1629800398468,0.9375,0.359375,-0.015625
1629800398500,0.9375,0.359375,-0.015625
1629800398531,0.9375,0.359375,-0.015625
1629800398562,0.9375,0.359375,0.0
1629800398593,0.9375,0.359375,-0.015625
1629800398625,0.9375,0.359375,-0.015625
1629800398656,0.9375,0.359375,-0.015625
1629800398687,0.9375,0.359375,-0.015625
1629800398718,0.9375,0.359375,-0.015625
1629800398750,0.9375,0.359375,-0.015625
1629800398781,0.9375,0.359375,-0.015625
1629800398812,0.9375,0.359375,-0.015625
1629800398843,0.9375,0.359375,-0.015625
1629800398875,0.9375,0.359375,0.0
1629800398906,0.9375,0.359375,-0.015625
1629800398937,0.9375,0.359375,-0.015625
1629800398968,0.953125,0.359375,-0.015625
1629800399000,0.9375,0.359375,0.0
1629800399031,0.9375,0.359375,0.0
1629800399062,0.9375,0.359375,-0.015625
1629800399093,0.9375,0.359375,-0.015625
1629800399125,0.953125,0.359375,-0.015625
1629800399156,0.9375,0.359375,-0.015625
1629800399187,0.9375,0.359375,-0.015625
1629800399218,0.953125,0.359375,0.0
1629800399250,0.9375,0.359375,-0.015625
1629800399281,0.9375,0.359375,-0.015625
1629800399312,0.9375,0.359375,-0.015625
1629800399343,0.9375,0.359375,-0.015625
1629800399375,0.9375,0.359375,0.0
1629800399406,0.9375,0.359375,0.0
1629800399437,0.9375,0.359375,0.0
1629800399468,0.9375,0.359375,0.0
1629800399500,0.9375,0.359375,-0.015625
1629800399531,0.9375,0.359375,0.0
1629800399562,0.9375,0.359375,0.0
1629800399593,0.9375,0.359375,0.0
1629800399625,0.9375,0.359375,0.0
1629800399656,0.9375,0.359375,0.0
1629800399687,0.9375,0.359375,-0.015625
1629800399718,0.9375,0.359375,-0.015625
1629800399750,0.9375,0.359375,-0.015625
1629800399781,0.9375,0.359375,0.0
1629800399812,0.9375,0.359375,0.0
1629800399843,0.953125,0.359375,-0.015625
1629800399875,0.9375,0.359375,0.0
1629800399906,0.9375,0.359375,0.0
1629800399937,0.9375,0.359375,-0.015625
1629800399968,0.9375,0.359375,0.0
1629800400000,0.9375,0.359375,0.0
1629800400031,0.9375,0.359375,-0.015625
1629800400062,0.9375,0.359375,0.0
1629800400093,0.9375,0.359375,0.0
1629800400125,0.9375,0.359375,0.0
1629800400156,0.9375,0.359375,-0.015625
1629800400187,0.9375,0.359375,-0.015625
1629800400218,0.9375,0.359375,-0.015625
1629800400250,0.9375,0.359375,0.0
1629800400281,0.9375,0.359375,0.0
1629800400312,0.9375,0.359375,-0.015625
1629800400343,0.9375,0.359375,0.0
1629800400375,0.9375,0.359375,0.0
1629800400406,0.9375,0.359375,-0.015625
1629800400437,0.9375,0.359375,0.0
1629800400468,0.9375,0.359375,0.0
1629800400500,0.9375,0.359375,-0.015625
1629800400531,0.9375,0.359375,-0.015625
1629800400562,0.9375,0.359375,-0.015625
1629800400593,0.9375,0.359375,-0.015625
1629800400625,0.9375,0.359375,0.0
1629800400656,0.9375,0.359375,-0.015625
1629800400687,0.9375,0.359375,-0.015625
1629800400718,0.9375,0.359375,0.0
1629800400750,0.9375,0.359375,0.0
1629800400781,0.9375,0.359375,0.0
1629800400812,0.9375,0.359375,0.0
1629800400843,0.953125,0.34375,0.0
1629800400875,0.9375,0.34375,0.0
1629800400906,0.9375,0.359375,0.0
1629800400937,0.9375,0.34375,0.0
1629800400968,0.9375,0.359375,0.0
1629800401000,0.9375,0.359375,0.0
1629800401031,0.9375,0.34375,0.0
1629800401062,0.953125,0.359375,0.0
1629800401093,0.9375,0.359375,0.0
1629800401125,0.9375,0.359375,0.0
1629800401156,0.9375,0.359375,0.0
1629800401187,0.9375,0.359375,0.0
1629800401218,0.9375,0.359375,0.0
1629800401250,0.9375,0.359375,0.0
1629800401281,0.9375,0.359375,0.0
1629800401312,0.9375,0.34375,-0.015625
1629800401343,0.9375,0.359375,0.0
1629800401375,0.9375,0.34375,0.0
1629800401406,0.9375,0.359375,0.0
1629800401437,0.9375,0.359375,0.0
1629800401468,0.9375,0.359375,0.0
1629800401500,0.9375,0.359375,0.0
1629800401531,0.9375,0.359375,-0.015625
1629800401562,0.9375,0.359375,0.0
1629800401593,0.9375,0.359375,0.0
1629800401625,0.9375,0.359375,-0.015625
1629800401656,0.9375,0.359375,0.0
1629800401687,0.9375,0.359375,0.0
1629800401718,0.9375,0.359375,0.0
1629800401750,0.9375,0.359375,0.0
1629800401781,0.953125,0.359375,-0.015625
1629800401812,0.9375,0.359375,0.0
1629800401843,0.9375,0.359375,0.0
1629800401875,0.9375,0.359375,0.0
1629800401906,0.953125,0.359375,0.0
1629800401937,0.9375,0.359375,0.0
1629800401968,0.9375,0.359375,0.0
1629800402000,0.9375,0.359375,0.0
1629800402031,0.9375,0.359375,0.0
1629800402062,0.9375,0.359375,0.0
1629800402093,0.9375,0.359375,0.0
1629800402125,0.9375,0.359375,0.0
1629800402156,0.9375,0.359375,0.0
1629800402187,0.9375,0.359375,0.0
1629800402218,0.9375,0.359375,0.0
1629800402250,0.9375,0.359375,0.0
1629800402281,0.9375,0.359375,0.0
1629800402312,0.9375,0.359375,0.0
1629800402343,0.9375,0.359375,0.0
1629800402375,0.9375,0.359375,0.0
1629800402406,0.953125,0.359375,-0.015625
1629800402437,0.9375,0.359375,0.0
1629800402468,0.9375,0.359375,0.0
1629800402500,0.9375,0.359375,0.0
1629800402531,0.9375,0.34375,0.0
1629800402562,0.9375,0.34375,0.0
1629800402593,0.953125,0.359375,0.0
1629800402625,0.9375,0.359375,0.0
1629800402656,0.9375,0.34375,0.0
1629800402687,0.9375,0.359375,0.0
1629800402718,0.9375,0.34375,0.0
1629800402750,0.9375,0.359375,0.0
1629800402781,0.9375,0.359375,0.0
1629800402812,0.9375,0.359375,0.0
1629800402843,0.9375,0.359375,0.0
1629800402875,0.9375,0.359375,0.0
1629800402906,0.9375,0.359375,0.0
1629800402937,0.9375,0.34375,0.0
1629800402968,0.9375,0.359375,0.0
1629800403000,0.9375,0.359375,0.0
1629800403031,0.9375,0.359375,0.0
1629800403062,0.9375,0.359375,0.0
1629800403093,0.9375,0.359375,0.0
1629800403125,0.9375,0.34375,0.0
1629800403156,0.9375,0.359375,0.0
1629800403187,0.9375,0.359375,0.0
1629800403218,0.9375,0.359375,0.0
1629800403250,0.9375,0.359375,0.0
1629800403281,0.9375,0.359375,0.0
1629800403312,0.9375,0.359375,0.0
1629800403343,0.9375,0.359375,0.0
1629800403375,0.953125,0.359375,0.0
1629800403406,0.9375,0.359375,0.0
1629800403437,0.9375,0.359375,0.0
1629800403468,0.9375,0.359375,0.0
1629800403500,0.9375,0.359375,0.0
1629800403531,0.9375,0.359375,0.0
1629800403562,0.9375,0.359375,0.0
1629800403593,0.9375,0.359375,0.0
1629800403625,0.9375,0.359375,0.0
1629800403656,0.9375,0.359375,0.0
1629800403687,0.9375,0.359375,0.0
1629800403718,0.9375,0.359375,0.0
1629800403750,0.9375,0.359375,0.0
1629800403781,0.9375,0.359375,0.0
1629800403812,0.9375,0.359375,0.0
1629800403843,0.9375,0.34375,0.0
1629800403875,0.9375,0.34375,0.0
1629800403906,0.9375,0.34375,0.0
1629800403937,0.9375,0.359375,0.0
1629800403968,0.9375,0.359375,0.0
1629800404000,0.9375,0.359375,0.0
1629800404031,0.9375,0.359375,0.0
1629800404062,0.9375,0.359375,0.0
1629800404093,0.9375,0.359375,0.0
1629800404125,0.9375,0.359375,0.0
1629800404156,0.9375,0.359375,0.0
1629800404187,0.9375,0.359375,0.0
1629800404218,0.9375,0.359375,0.0
1629800404250,0.953125,0.359375,0.0
1629800404281,0.9375,0.359375,0.0
1629800404312,0.9375,0.359375,0.0
1629800404343,0.9375,0.359375,0.0
1629800404375,0.9375,0.359375,0.0
1629800404406,0.9375,0.359375,0.0
1629800404437,0.9375,0.359375,0.0
1629800404468,0.9375,0.359375,0.0
1629800404500,0.9375,0.359375,0.0
1629800404531,0.9375,0.359375,0.0
1629800404562,0.9375,0.359375,0.0
1629800404593,0.9375,0.359375,0.0
1629800404625,0.9375,0.359375,0.0
1629800404656,0.9375,0.359375,0.0
1629800404687,0.9375,0.359375,0.0
1629800404718,0.9375,0.359375,0.0
1629800404750,0.9375,0.359375,0.0
1629800404781,0.9375,0.359375,0.0
1629800404812,0.9375,0.359375,0.0
1629800404843,0.9375,0.359375,0.0
1629800404875,0.9375,0.359375,0.0
1629800404906,0.9375,0.359375,0.0
1629800404937,0.9375,0.359375,0.0
1629800404968,0.9375,0.359375,0.0
1629800405000,0.9375,0.359375,0.0
1629800405031,0.9375,0.359375,0.0
1629800405062,0.9375,0.359375,0.0
1629800405093,0.9375,0.359375,0.0
1629800405125,0.9375,0.359375,0.0
1629800405156,0.9375,0.359375,0.0
1629800405187,0.9375,0.359375,0.0
1629800405218,0.9375,0.359375,0.0
1629800405250,0.9375,0.359375,0.0
1629800405281,0.9375,0.359375,0.0
1629800405312,0.953125,0.359375,0.0
1629800405343,0.9375,0.359375,0.0
1629800405375,0.9375,0.359375,0.0
1629800405406,0.9375,0.359375,0.0
1629800405437,0.9375,0.359375,-0.015625
1629800405468,0.9375,0.359375,0.0
1629800405500,0.9375,0.359375,0.0
1629800405531,0.9375,0.359375,0.0
1629800405562,0.9375,0.359375,0.0
1629800405593,0.9375,0.359375,0.0
1629800405625,0.9375,0.359375,0.0
1629800405656,0.9375,0.359375,0.0
1629800405687,0.9375,0.359375,-0.015625
1629800405718,0.9375,0.359375,0.0
1629800405750,0.9375,0.359375,0.0
1629800405781,0.9375,0.359375,0.0
1629800405812,0.9375,0.359375,0.0
1629800405843,0.9375,0.359375,0.0
1629800405875,0.9375,0.359375,0.0
1629800405906,0.9375,0.359375,0.0
1629800405937,0.9375,0.359375,0.0
1629800405968,0.9375,0.359375,0.0
1629800406000,0.9375,0.359375,0.0
1629800406031,0.9375,0.359375,0.0
1629800406062,0.9375,0.359375,0.0
1629800406093,0.9375,0.359375,0.0
1629800406125,0.9375,0.359375,0.0
1629800406156,0.953125,0.359375,0.0
1629800406187,0.9375,0.359375,0.0
1629800406218,0.9375,0.359375,0.0
1629800406250,0.9375,0.359375,0.0
1629800406281,0.9375,0.359375,0.0
1629800406312,0.9375,0.359375,0.0
1629800406343,0.9375,0.359375,0.0
1629800406375,0.9375,0.359375,0.0
1629800406406,0.953125,0.359375,0.0
1629800406437,0.953125,0.359375,0.0
1629800406468,0.984375,0.40625,0.015625
1629800406500,1.03125,0.453125,0.03125
1629800406531,1.171875,0.515625,0.046875
1629800406562,1.234375,0.515625,0.015625
1629800406593,1.40625,0.5625,0.046875
1629800406625,1.265625,0.578125,0.015625
1629800406656,1.234375,0.546875,0.0
1629800406687,1.578125,0.40625,0.1875
1629800406718,1.484375,0.359375,0.3125
1629800406750,1.390625,0.28125,0.625
1629800406781,0.84375,-0.109375,0.5
1629800406812,0.671875,-0.203125,0.546875
1629800406843,0.09375,-0.296875,0.390625
1629800406875,-0.03125,-0.609375,0.015625
1629800406906,0.0625,-0.84375,-0.0625
1629800406937,0.203125,-0.71875,0.25
1629800406968,0.03125,-0.578125,0.265625
1629800407000,-0.515625,-0.625,0.1875
1629800407031,-0.234375,-0.75,-0.046875
1629800407062,-0.21875,-0.765625,-0.015625
1629800407093,-0.25,-0.8125,0.046875
1629800407125,-0.203125,-0.796875,0.125
1629800407156,-0.21875,-0.796875,0.296875
1629800407187,-0.203125,-0.84375,0.359375
1629800407218,-0.21875,-0.859375,0.3125
1629800407250,-0.203125,-0.890625,0.328125
1629800407281,-0.125,-0.90625,0.375
1629800407312,-0.1875,-1.015625,0.359375
1629800407343,-0.21875,-1.0,0.34375
1629800407375,-0.171875,-0.984375,0.375
1629800407406,-0.125,-1.015625,0.40625
1629800407437,-0.171875,-0.96875,0.234375
1629800407468,-0.203125,-0.96875,0.140625
1629800407500,-0.21875,-0.953125,0.203125
1629800407531,-0.171875,-0.921875,0.34375
1629800407562,-0.1875,-0.9375,0.40625
1629800407593,-0.21875,-0.9375,0.359375
1629800407625,-0.1875,-0.953125,0.328125
1629800407656,-0.171875,-0.953125,0.265625
1629800407687,-0.21875,-0.953125,0.25
1629800407718,-0.109375,-0.9375,0.375
1629800407750,-0.140625,-0.984375,0.328125
1629800407781,-0.171875,-0.953125,0.28125
1629800407812,-0.203125,-0.953125,0.234375
1629800407843,-0.203125,-0.953125,0.28125
1629800407875,-0.171875,-0.9375,0.3125
1629800407906,-0.1875,-0.9375,0.328125
1629800407937,-0.203125,-0.9375,0.328125
1629800407968,-0.203125,-0.9375,0.328125
1629800408000,-0.203125,-0.96875,0.328125
1629800408031,-0.171875,-0.96875,0.328125
1629800408062,-0.1875,-0.9375,0.296875
1629800408093,-0.203125,-0.953125,0.296875
1629800408125,-0.171875,-0.953125,0.34375
1629800408156,-0.171875,-0.9375,0.296875
1629800408187,-0.171875,-0.953125,0.296875
1629800408218,-0.203125,-0.9375,0.3125
1629800408250,-0.1875,-0.921875,0.359375
1629800408281,-0.171875,-0.953125,0.34375
1629800408312,-0.203125,-0.96875,0.265625
1629800408343,-0.234375,-0.953125,0.265625
1629800408375,-0.203125,-0.96875,0.265625
1629800408406,-0.171875,-0.953125,0.296875
1629800408437,-0.21875,-0.953125,0.28125
1629800408468,-0.203125,-0.96875,0.25
1629800408500,-0.171875,-0.96875,0.28125
1629800408531,-0.21875,-0.96875,0.28125
1629800408562,-0.25,-0.96875,0.234375
1629800408593,-0.203125,-0.953125,0.234375
1629800408625,-0.234375,-0.953125,0.234375
1629800408656,-0.21875,-0.96875,0.21875
1629800408687,-0.203125,-0.953125,0.21875
1629800408718,-0.1875,-0.953125,0.25
1629800408750,-0.1875,-0.96875,0.296875
1629800408781,-0.234375,-0.953125,0.3125
1629800408812,-0.234375,-0.953125,0.3125
1629800408843,-0.21875,-0.953125,0.34375
1629800408875,-0.234375,-0.9375,0.296875
1629800408906,-0.234375,-0.9375,0.265625
1629800408937,-0.1875,-0.9375,0.296875
1629800408968,-0.1875,-0.953125,0.3125
1629800409000,-0.234375,-0.953125,0.28125
1629800409031,-0.234375,-0.9375,0.265625
1629800409062,-0.203125,-0.9375,0.265625
1629800409093,-0.234375,-0.90625,0.28125
1629800409125,-0.265625,-0.875,0.265625
1629800409156,-0.28125,-0.84375,0.234375
1629800409187,-0.28125,-0.78125,0.171875
1629800409218,-0.265625,-0.71875,0.1875
1629800409250,-0.15625,-0.6875,0.25
1629800409281,-0.15625,-0.734375,0.265625
1629800409312,0.015625,-0.734375,0.28125
1629800409343,0.203125,-0.671875,0.5
1629800409375,0.203125,-0.734375,0.53125
1629800409406,0.4375,-0.78125,0.46875
1629800409437,0.609375,-0.75,0.5
1629800409468,0.6875,-0.78125,0.484375
1629800409500,0.578125,-0.625,0.375
1629800409531,0.578125,-0.484375,0.359375
1629800409562,0.75,-0.375,0.421875
1629800409593,0.40625,-0.15625,0.703125
1629800409625,0.296875,-0.265625,0.515625
1629800409656,1.03125,-0.078125,0.546875
1629800409687,1.03125,-0.03125,0.6875
1629800409718,0.765625,0.171875,0.671875
1629800409750,1.15625,0.375,0.359375
1629800409781,1.265625,0.390625,0.34375
1629800409812,1.3125,0.4375,0.265625
1629800409843,1.171875,0.4375,0.046875
1629800409875,0.96875,0.453125,0.09375
1629800409906,1.015625,0.375,-0.078125
1629800409937,1.359375,0.375,-0.296875
1629800409968,1.171875,0.390625,-0.109375
1629800410000,0.796875,0.390625,0.046875
1629800410031,0.75,0.328125,0.03125
1629800410062,1.046875,0.328125,0.046875
1629800410093,1.046875,0.3125,0.046875
1629800410125,0.9375,0.265625,0.03125
1629800410156,0.921875,0.265625,0.03125
1629800410187,0.953125,0.265625,0.015625
1629800410218,0.953125,0.296875,0.03125
1629800410250,0.953125,0.296875,0.015625
1629800410281,0.96875,0.3125,0.03125
1629800410312,0.953125,0.3125,0.03125
1629800410343,0.96875,0.328125,0.03125
1629800410375,0.953125,0.3125,0.015625
1629800410406,0.921875,0.3125,0.03125
1629800410437,0.9375,0.328125,0.03125
1629800410468,0.96875,0.3125,0.015625
1629800410500,0.96875,0.3125,0.015625
1629800410531,0.953125,0.328125,0.015625
1629800410562,0.96875,0.328125,0.015625
1629800410593,0.953125,0.328125,0.015625
1629800410625,0.953125,0.3125,0.015625
1629800410656,0.953125,0.3125,0.015625
1629800410687,0.953125,0.3125,0.0
1629800410718,0.953125,0.3125,0.015625
1629800410750,0.953125,0.328125,0.015625
1629800410781,0.953125,0.328125,0.015625
1629800410812,0.953125,0.328125,0.0
1629800410843,0.953125,0.328125,0.015625
1629800410875,0.953125,0.328125,0.015625
1629800410906,0.953125,0.328125,0.015625
1629800410937,0.953125,0.328125,0.015625
1629800410968,0.953125,0.328125,0.0
1629800411000,0.953125,0.328125,0.0
1629800411031,0.953125,0.328125,0.0
1629800411062,0.953125,0.328125,0.015625
1629800411093,0.953125,0.328125,0.015625
1629800411125,0.953125,0.328125,0.015625
1629800411156,0.953125,0.328125,0.015625
1629800411187,0.953125,0.328125,0.015625
1629800411218,0.953125,0.328125,0.015625
1629800411250,0.953125,0.3125,0.015625
1629800411281,0.953125,0.3125,0.0
1629800411312,0.953125,0.3125,0.015625
1629800411343,0.953125,0.3125,0.015625
1629800411375,0.953125,0.3125,0.0
1629800411406,0.953125,0.3125,0.015625
1629800411437,0.953125,0.3125,0.0
1629800411468,0.953125,0.3125,0.0
1629800411500,0.953125,0.3125,0.015625
1629800411531,0.953125,0.3125,0.015625
1629800411562,0.953125,0.3125,0.015625
1629800411593,0.953125,0.3125,0.015625
1629800411625,0.953125,0.3125,0.015625
1629800411656,0.953125,0.3125,0.015625
1629800411687,0.96875,0.3125,0.015625
1629800411718,0.953125,0.3125,0.015625
1629800411750,0.953125,0.3125,0.015625
1629800411781,0.953125,0.3125,0.015625
1629800411812,0.96875,0.3125,0.015625
1629800411843,0.96875,0.3125,0.0
1629800411875,0.953125,0.3125,0.015625
1629800411906,0.953125,0.3125,0.0
1629800411937,0.953125,0.3125,0.0
1629800411968,0.953125,0.3125,0.015625
1629800412000,0.953125,0.3125,0.015625
1629800412031,0.953125,0.3125,0.015625
1629800412062,0.953125,0.3125,0.015625
1629800412093,0.96875,0.3125,0.015625
1629800412125,0.953125,0.3125,0.015625
1629800412156,0.953125,0.3125,0.015625
1629800412187,0.953125,0.3125,0.015625
1629800412218,0.953125,0.3125,0.015625
1629800412250,0.953125,0.3125,0.015625
1629800412281,0.953125,0.3125,0.015625
1629800412312,0.953125,0.3125,0.015625
1629800412343,0.953125,0.3125,0.015625
1629800412375,0.953125,0.3125,0.015625
1629800412406,0.953125,0.3125,0.015625
1629800412437,0.953125,0.3125,0.015625
1629800412468,0.96875,0.3125,0.015625
1629800412500,0.953125,0.3125,0.015625
1629800412531,0.96875,0.3125,0.015625
1629800412562,0.953125,0.3125,0.015625
1629800412593,0.953125,0.3125,0.015625
1629800412625,0.96875,0.3125,0.015625
1629800412656,0.953125,0.3125,0.015625
1629800412687,0.953125,0.3125,0.015625
1629800412718,0.953125,0.3125,0.015625
1629800412750,0.953125,0.3125,0.015625
1629800412781,0.953125,0.3125,0.015625
1629800412812,0.96875,0.3125,0.015625
1629800412843,0.96875,0.3125,0.015625
1629800412875,0.953125,0.3125,0.015625
1629800412906,0.953125,0.3125,0.015625
1629800412937,0.953125,0.3125,0.015625
1629800412968,0.953125,0.3125,0.015625
1629800413000,0.96875,0.3125,0.015625
1629800413031,0.953125,0.3125,0.015625
1629800413062,0.953125,0.3125,0.015625
1629800413093,0.953125,0.3125,0.015625
1629800413125,0.953125,0.3125,0.015625
1629800413156,0.953125,0.3125,0.015625
1629800413187,0.953125,0.3125,0.015625
1629800413218,0.953125,0.3125,0.015625
1629800413250,0.953125,0.3125,0.015625
1629800413281,0.953125,0.3125,0.015625
1629800413312,0.953125,0.3125,0.015625
1629800413343,0.953125,0.3125,0.015625
1629800413375,0.953125,0.3125,0.015625
1629800413406,0.953125,0.3125,0.015625
1629800413437,0.96875,0.3125,0.015625
1629800413468,0.953125,0.3125,0.015625
1629800413500,0.953125,0.3125,0.015625
1629800413531,0.953125,0.3125,0.015625
1629800413562,0.953125,0.3125,0.015625
1629800413593,0.953125,0.3125,0.015625
1629800413625,0.953125,0.3125,0.015625
1629800413656,0.953125,0.3125,0.015625
1629800413687,0.953125,0.3125,0.015625
1629800413718,0.96875,0.3125,0.015625
1629800413750,0.96875,0.3125,0.015625
1629800413781,0.953125,0.3125,0.015625
1629800413812,0.953125,0.3125,0.015625
1629800413843,0.953125,0.3125,0.015625
1629800413875,0.953125,0.3125,0.015625
1629800413906,0.953125,0.3125,0.015625
1629800413937,0.953125,0.3125,0.015625
1629800413968,0.96875,0.3125,0.015625
1629800414000,0.953125,0.3125,0.015625
1629800414031,0.953125,0.3125,0.015625
1629800414062,0.96875,0.3125,0.015625
1629800414093,0.953125,0.3125,0.015625
1629800414125,0.953125,0.3125,0.015625
1629800414156,0.953125,0.3125,0.015625
1629800414187,0.953125,0.3125,0.015625
1629800414218,0.96875,0.3125,0.015625
1629800414250,0.96875,0.3125,0.015625
1629800414281,0.953125,0.3125,0.015625
1629800414312,0.953125,0.3125,0.015625
1629800414343,0.953125,0.3125,0.015625
1629800414375,0.953125,0.328125,0.015625
1629800414406,0.953125,0.328125,0.015625
1629800414437,0.953125,0.328125,0.015625
1629800414468,0.953125,0.328125,0.015625
1629800414500,0.953125,0.328125,0.015625
1629800414531,0.953125,0.328125,0.015625
1629800414562,0.953125,0.328125,0.015625
1629800414593,0.953125,0.328125,0.015625
1629800414625,0.953125,0.328125,0.015625
1629800414656,0.953125,0.328125,0.015625
1629800414687,0.953125,0.328125,0.015625
1629800414718,0.953125,0.328125,0.015625
1629800414750,0.953125,0.328125,0.015625
1629800414781,0.953125,0.328125,0.015625
1629800414812,0.953125,0.328125,0.015625
1629800414843,0.953125,0.328125,0.015625
1629800414875,0.953125,0.328125,0.015625
1629800414906,0.953125,0.328125,0.015625
1629800414937,0.953125,0.328125,0.015625
1629800414968,0.953125,0.328125,0.015625
1629800415000,0.953125,0.328125,0.015625
1629800415031,0.953125,0.328125,0.015625
1629800415062,0.953125,0.328125,0.015625
1629800415093,0.953125,0.328125,0.015625
1629800415125,0.953125,0.328125,0.015625
1629800415156,0.953125,0.328125,0.015625
1629800415187,0.953125,0.328125,0.015625
1629800415218,0.953125,0.328125,0.015625
1629800415250,0.953125,0.328125,0.015625
1629800415281,0.953125,0.328125,0.015625
1629800415312,0.953125,0.328125,0.015625
1629800415343,0.953125,0.328125,0.015625
1629800415375,0.953125,0.328125,0.015625
1629800415406,0.953125,0.328125,0.015625
1629800415437,0.953125,0.328125,0.015625
1629800415468,0.953125,0.328125,0.0
1629800415500,0.953125,0.328125,0.015625
1629800415531,0.953125,0.328125,0.015625
1629800415562,0.953125,0.328125,0.015625
1629800415593,0.953125,0.3125,0.015625
1629800415625,0.953125,0.328125,0.015625
1629800415656,0.953125,0.328125,0.015625
1629800415687,0.953125,0.328125,0.015625
1629800415718,0.953125,0.328125,0.015625
1629800415750,0.953125,0.328125,0.015625
1629800415781,0.953125,0.3125,0.015625
1629800415812,0.953125,0.3125,0.015625
1629800415843,0.953125,0.328125,0.015625
1629800415875,0.953125,0.328125,0.015625
1629800415906,0.953125,0.3125,0.015625
1629800415937,0.953125,0.3125,0.015625
1629800415968,0.953125,0.3125,0.015625
1629800416000,0.953125,0.328125,0.015625
1629800416031,0.953125,0.328125,0.015625
1629800416062,0.953125,0.3125,0.015625
1629800416093,0.953125,0.3125,0.015625
1629800416125,0.953125,0.3125,0.015625
1629800416156,0.953125,0.3125,0.015625
1629800416187,0.953125,0.3125,0.015625
1629800416218,0.953125,0.3125,0.015625
1629800416250,0.953125,0.3125,0.015625
1629800416281,0.953125,0.3125,0.015625
1629800416312,0.953125,0.328125,0.015625
1629800416343,0.953125,0.328125,0.015625
1629800416375,0.953125,0.328125,0.015625
1629800416406,0.953125,0.3125,0.015625
1629800416437,0.953125,0.3125,0.015625
1629800416468,0.953125,0.3125,0.015625
1629800416500,0.953125,0.3125,0.015625
1629800416531,0.953125,0.328125,0.015625
1629800416562,0.953125,0.3125,0.015625
1629800416593,0.953125,0.3125,0.015625
1629800416625,0.953125,0.3125,0.015625
1629800416656,0.953125,0.3125,0.015625
1629800416687,0.953125,0.3125,0.015625
1629800416718,0.953125,0.3125,0.015625
1629800416750,0.953125,0.3125,0.015625
1629800416781,0.953125,0.328125,0.015625
1629800416812,0.953125,0.3125,0.015625
1629800416843,0.953125,0.3125,0.015625
1629800416875,0.953125,0.3125,0.015625
1629800416906,0.953125,0.3125,0.015625
1629800416937,0.953125,0.3125,0.015625
1629800416968,0.953125,0.3125,0.015625
1629800417000,0.953125,0.3125,0.015625
1629800417031,0.953125,0.3125,0.015625
1629800417062,0.953125,0.3125,0.015625
1629800417093,0.953125,0.3125,0.015625
1629800417125,0.953125,0.3125,0.015625
1629800417156,0.953125,0.3125,0.015625
1629800417187,0.953125,0.3125,0.015625
1629800417218,0.953125,0.3125,0.015625
1629800417250,0.953125,0.3125,0.015625
1629800417281,0.953125,0.3125,0.015625
1629800417312,0.953125,0.3125,0.015625
1629800417343,0.953125,0.3125,0.015625
1629800417375,0.953125,0.3125,0.03125
1629800417406,0.953125,0.328125,0.015625
1629800417437,0.953125,0.3125,0.015625
1629800417468,0.953125,0.3125,0.015625
1629800417500,0.953125,0.3125,0.03125
1629800417531,0.953125,0.3125,0.015625
1629800417562,0.953125,0.3125,0.015625
1629800417593,0.953125,0.3125,0.015625
1629800417625,0.953125,0.3125,0.015625
1629800417656,0.953125,0.3125,0.015625
1629800417687,0.953125,0.328125,0.015625
1629800417718,0.953125,0.3125,0.015625
1629800417750,0.953125,0.3125,0.015625
1629800417781,0.953125,0.3125,0.015625
1629800417812,0.953125,0.3125,0.03125
1629800417843,0.953125,0.3125,0.015625
1629800417875,0.953125,0.3125,0.015625
1629800417906,0.953125,0.3125,0.015625
1629800417937,0.953125,0.328125,0.015625
1629800417968,0.953125,0.3125,0.015625
1629800418000,0.953125,0.328125,0.015625
1629800418031,0.953125,0.3125,0.015625
1629800418062,0.953125,0.3125,0.015625
1629800418093,0.953125,0.328125,0.015625
1629800418125,0.953125,0.3125,0.015625
1629800418156,0.953125,0.3125,0.015625
1629800418187,0.953125,0.328125,0.015625
1629800418218,0.953125,0.3125,0.015625
1629800418250,0.953125,0.3125,0.03125
1629800418281,0.953125,0.328125,0.015625
1629800418312,0.953125,0.328125,0.015625
1629800418343,0.953125,0.3125,0.015625
1629800418375,0.953125,0.3125,0.015625
1629800418406,0.953125,0.3125,0.015625
1629800418437,0.953125,0.3125,0.015625
1629800418468,0.953125,0.328125,0.015625
1629800418500,0.953125,0.328125,0.015625
1629800418531,0.953125,0.328125,0.015625
1629800418562,0.953125,0.3125,0.015625
1629800418593,0.953125,0.328125,0.015625
1629800418625,0.953125,0.328125,0.015625
1629800418656,0.953125,0.328125,0.015625
1629800418687,0.953125,0.3125,0.015625
1629800418718,0.953125,0.328125,0.015625
1629800418750,0.953125,0.3125,0.015625
1629800418781,0.953125,0.3125,0.015625
1629800418812,0.953125,0.3125,0.015625
1629800418843,0.953125,0.3125,0.015625
1629800418875,0.953125,0.3125,0.015625
1629800418906,0.953125,0.328125,0.015625
1629800418937,0.953125,0.3125,0.015625
1629800418968,0.953125,0.3125,0.015625
1629800419000,0.953125,0.3125,0.015625
1629800419031,0.953125,0.3125,0.015625
1629800419062,0.953125,0.3125,0.015625
1629800419093,0.953125,0.328125,0.015625
1629800419125,0.953125,0.3125,0.015625
1629800419156,0.953125,0.3125,0.015625
1629800419187,0.953125,0.3125,0.015625
1629800419218,0.953125,0.3125,0.015625
1629800419250,0.953125,0.3125,0.015625
1629800419281,0.953125,0.3125,0.015625
1629800419312,0.953125,0.3125,0.015625
1629800419343,0.953125,0.3125,0.015625
1629800419375,0.953125,0.3125,0.015625
1629800419406,0.953125,0.3125,0.015625
1629800419437,0.953125,0.3125,0.015625
1629800419468,0.953125,0.3125,0.015625
1629800419500,0.953125,0.3125,0.015625
1629800419531,0.953125,0.3125,0.015625
1629800419562,0.953125,0.3125,0.015625
1629800419593,0.953125,0.3125,0.015625
1629800419625,0.953125,0.3125,0.015625
1629800419656,0.953125,0.3125,0.015625
1629800419687,0.953125,0.3125,0.03125
1629800419718,0.953125,0.3125,0.015625
1629800419750,0.953125,0.3125,0.015625
1629800419781,0.953125,0.328125,0.015625
1629800419812,0.953125,0.3125,0.015625
1629800419843,0.953125,0.328125,0.015625
1629800419875,0.953125,0.328125,0.015625
1629800419906,0.953125,0.3125,0.015625
1629800419937,0.953125,0.3125,0.015625
1629800419968,0.953125,0.3125,0.015625
1629800420000,0.953125,0.3125,0.015625
1629800420031,0.953125,0.3125,0.015625
1629800420062,0.953125,0.3125,0.03125
1629800420093,0.953125,0.3125,0.015625
1629800420125,0.953125,0.3125,0.015625
1629800420156,0.953125,0.3125,0.015625
1629800420187,0.953125,0.3125,0.03125
1629800420218,0.953125,0.3125,0.015625
1629800420250,0.953125,0.328125,0.015625
1629800420281,0.953125,0.328125,0.03125
1629800420312,0.953125,0.3125,0.015625
1629800420343,0.953125,0.3125,0.015625
1629800420375,0.953125,0.328125,0.015625
1629800420406,0.953125,0.3125,0.015625
1629800420437,0.953125,0.328125,0.015625
1629800420468,0.953125,0.3125,0.015625
1629800420500,0.953125,0.3125,0.015625
1629800420531,0.953125,0.3125,0.015625
1629800420562,0.953125,0.3125,0.015625
1629800420593,0.953125,0.3125,0.015625
1629800420625,0.953125,0.3125,0.03125
1629800420656,0.953125,0.3125,0.015625
1629800420687,0.953125,0.3125,0.015625
1629800420718,0.953125,0.3125,0.015625
1629800420750,0.953125,0.3125,0.015625
1629800420781,0.953125,0.328125,0.015625
1629800420812,0.953125,0.3125,0.015625
1629800420843,0.953125,0.328125,0.015625
1629800420875,0.953125,0.328125,0.015625
1629800420906,0.953125,0.3125,0.015625
1629800420937,0.953125,0.3125,0.015625
1629800420968,0.953125,0.3125,0.015625
1629800421000,0.953125,0.3125,0.015625
1629800421031,0.953125,0.3125,0.015625
1629800421062,0.953125,0.3125,0.015625
1629800421093,0.953125,0.3125,0.015625
1629800421125,0.953125,0.3125,0.015625
1629800421156,0.96875,0.3125,0.015625
1629800421187,0.953125,0.3125,0.015625
1629800421218,0.953125,0.3125,0.015625
1629800421250,0.953125,0.3125,0.015625
1629800421281,0.953125,0.328125,0.015625
1629800421312,0.953125,0.3125,0.015625
1629800421343,0.953125,0.3125,0.015625
1629800421375,0.953125,0.3125,0.015625
1629800421406,0.953125,0.3125,0.015625
1629800421437,0.953125,0.3125,0.03125
1629800421468,0.953125,0.3125,0.015625
1629800421500,0.953125,0.3125,0.015625
1629800421531,0.953125,0.3125,0.015625
1629800421562,0.953125,0.3125,0.015625
1629800421593,0.953125,0.3125,0.03125
1629800421625,0.953125,0.328125,0.015625
1629800421656,0.953125,0.3125,0.03125
1629800421687,0.953125,0.3125,0.015625
1629800421718,0.953125,0.3125,0.015625
1629800421750,0.953125,0.3125,0.015625
1629800421781,0.953125,0.3125,0.015625
1629800421812,0.953125,0.328125,0.015625
1629800421843,0.953125,0.328125,0.015625
1629800421875,0.953125,0.3125,0.015625
1629800421906,0.953125,0.328125,0.015625
1629800421937,0.953125,0.3125,0.015625
1629800421968,0.953125,0.3125,0.015625
1629800422000,0.96875,0.328125,0.015625
1629800422031,0.953125,0.3125,0.015625
1629800422062,0.953125,0.3125,0.015625
1629800422093,0.953125,0.328125,0.015625
1629800422125,0.953125,0.328125,0.015625
1629800422156,0.953125,0.3125,0.015625
1629800422187,0.953125,0.328125,0.015625
1629800422218,0.953125,0.3125,0.015625
1629800422250,0.953125,0.3125,0.015625
1629800422281,0.953125,0.328125,0.015625
1629800422312,0.953125,0.328125,0.015625
1629800422343,0.953125,0.3125,0.015625
1629800422375,0.953125,0.328125,0.015625
1629800422406,0.953125,0.3125,0.015625
1629800422437,0.953125,0.3125,0.015625
1629800422468,0.953125,0.3125,0.015625
1629800422500,0.953125,0.3125,0.015625
1629800422531,0.953125,0.3125,0.015625
1629800422562,0.953125,0.328125,0.015625
1629800422593,0.953125,0.328125,0.015625
1629800422625,0.953125,0.3125,0.015625
1629800422656,0.953125,0.328125,0.015625
1629800422687,0.953125,0.328125,0.015625
1629800422718,0.953125,0.3125,0.015625
1629800422750,0.96875,0.3125,0.015625
1629800422781,0.953125,0.328125,0.015625
1629800422812,0.953125,0.328125,0.015625
1629800422843,0.953125,0.3125,0.015625
1629800422875,0.953125,0.328125,0.015625
1629800422906,0.953125,0.3125,0.015625
1629800422937,0.953125,0.3125,0.015625
1629800422968,0.953125,0.3125,0.015625
1629800423000,0.953125,0.3125,0.015625
1629800423031,0.953125,0.3125,0.015625
1629800423062,0.953125,0.328125,0.015625
1629800423093,0.953125,0.328125,0.015625
1629800423125,0.953125,0.3125,0.015625
1629800423156,0.953125,0.3125,0.015625
1629800423187,0.953125,0.328125,0.015625
1629800423218,0.953125,0.3125,0.015625
1629800423250,0.953125,0.3125,0.015625
1629800423281,0.953125,0.3125,0.015625
1629800423312,0.953125,0.3125,0.015625
1629800423343,0.953125,0.328125,0.015625
1629800423375,0.953125,0.3125,0.015625
1629800423406,0.953125,0.328125,0.015625
1629800423437,0.953125,0.328125,0.015625
1629800423468,0.953125,0.328125,0.015625
1629800423500,0.953125,0.3125,0.015625
1629800423531,0.953125,0.3125,0.015625
1629800423562,0.953125,0.3125,0.03125
1629800423593,0.953125,0.3125,0.015625
1629800423625,0.953125,0.328125,0.015625
1629800423656,0.953125,0.328125,0.015625
1629800423687,0.953125,0.3125,0.015625
1629800423718,0.953125,0.328125,0.015625
1629800423750,0.953125,0.3125,0.015625
1629800423781,0.953125,0.3125,0.03125
1629800423812,0.953125,0.3125,0.015625
1629800423843,0.953125,0.3125,0.015625
1629800423875,0.953125,0.3125,0.015625
1629800423906,0.953125,0.3125,0.015625
1629800423937,0.953125,0.3125,0.015625
1629800423968,0.953125,0.3125,0.015625
1629800424000,0.953125,0.3125,0.015625
1629800424031,0.953125,0.3125,0.015625
1629800424062,0.953125,0.3125,0.015625
1629800424093,0.953125,0.3125,0.015625
1629800424125,0.953125,0.328125,0.015625
1629800424156,0.953125,0.3125,0.015625
1629800424187,0.953125,0.3125,0.015625
1629800424218,0.953125,0.328125,0.015625
1629800424250,0.953125,0.3125,0.015625
1629800424281,0.953125,0.3125,0.015625
1629800424312,0.953125,0.3125,0.015625
1629800424343,0.96875,0.3125,0.015625
1629800424375,0.953125,0.328125,0.015625
1629800424406,0.953125,0.3125,0.015625
1629800424437,0.953125,0.3125,0.015625
1629800424468,0.953125,0.3125,0.015625
1629800424500,0.953125,0.3125,0.015625
1629800424531,0.953125,0.3125,0.015625
1629800424562,0.953125,0.3125,0.015625
1629800424593,0.953125,0.3125,0.015625
1629800424625,0.953125,0.3125,0.015625
1629800424656,0.953125,0.3125,0.015625
1629800424687,0.953125,0.328125,0.015625
1629800424718,0.953125,0.3125,0.015625
1629800424750,0.953125,0.3125,0.015625
1629800424781,0.953125,0.3125,0.015625
1629800424812,0.953125,0.3125,0.015625
1629800424843,0.953125,0.328125,0.015625
1629800424875,0.953125,0.328125,0.015625
1629800424906,0.953125,0.3125,0.015625
1629800424937,0.953125,0.328125,0.03125
1629800424968,0.953125,0.3125,0.015625
1629800425000,0.953125,0.3125,0.015625
1629800425031,0.953125,0.328125,0.015625
1629800425062,0.953125,0.3125,0.015625
1629800425093,0.953125,0.3125,0.015625
1629800425125,0.953125,0.3125,0.015625
1629800425156,0.953125,0.3125,0.015625
1629800425187,0.953125,0.3125,0.015625
1629800425218,0.953125,0.3125,0.015625
1629800425250,0.953125,0.3125,0.015625
1629800425281,0.953125,0.328125,0.015625
1629800425312,0.953125,0.3125,0.03125
1629800425343,0.953125,0.328125,0.015625
1629800425375,0.953125,0.3125,0.015625
1629800425406,0.953125,0.3125,0.015625
1629800425437,0.953125,0.3125,0.03125
1629800425468,0.953125,0.3125,0.015625
1629800425500,0.953125,0.328125,0.015625
1629800425531,0.953125,0.328125,0.015625
1629800425562,0.953125,0.3125,0.015625
1629800425593,0.953125,0.3125,0.015625
1629800425625,0.953125,0.328125,0.015625
1629800425656,0.953125,0.328125,0.015625
1629800425687,0.953125,0.3125,0.015625
1629800425718,0.953125,0.328125,0.015625
1629800425750,0.953125,0.328125,0.015625
1629800425781,0.953125,0.3125,0.015625
1629800425812,0.953125,0.328125,0.015625
1629800425843,0.953125,0.328125,0.015625
1629800425875,0.953125,0.3125,0.015625
1629800425906,0.953125,0.328125,0.015625
1629800425937,0.953125,0.3125,0.015625
1629800425968,0.953125,0.3125,0.015625
1629800426000,0.953125,0.3125,0.015625
1629800426031,0.96875,0.3125,0.015625
1629800426062,0.953125,0.3125,0.015625
1629800426093,0.953125,0.328125,0.015625
1629800426125,0.953125,0.328125,0.015625
1629800426156,0.953125,0.328125,0.015625
1629800426187,0.953125,0.3125,0.015625
1629800426218,0.953125,0.3125,0.015625
1629800426250,0.953125,0.3125,0.015625
1629800426281,0.953125,0.3125,0.015625
1629800426312,0.953125,0.3125,0.015625
1629800426343,0.953125,0.3125,0.015625
1629800426375,0.953125,0.3125,0.015625
1629800426406,0.953125,0.3125,0.015625
1629800426437,0.953125,0.3125,0.015625
1629800426468,0.953125,0.3125,0.015625
1629800426500,0.953125,0.3125,0.015625
1629800426531,0.953125,0.3125,0.015625
1629800426562,0.953125,0.3125,0.015625
1629800426593,0.953125,0.3125,0.015625
1629800426625,0.953125,0.328125,0.015625
1629800426656,0.953125,0.3125,0.015625
1629800426687,0.953125,0.3125,0.015625
1629800426718,0.953125,0.328125,0.015625
1629800426750,0.953125,0.3125,0.015625
1629800426781,0.953125,0.3125,0.015625
1629800426812,0.953125,0.328125,0.015625
1629800426843,0.953125,0.3125,0.015625
1629800426875,0.953125,0.3125,0.015625
1629800426906,0.953125,0.328125,0.015625
1629800426937,0.953125,0.3125,0.015625
1629800426968,0.953125,0.3125,0.015625
1629800427000,0.953125,0.3125,0.015625
1629800427031,0.953125,0.3125,0.015625
1629800427062,0.953125,0.328125,0.015625
1629800427093,0.953125,0.3125,0.015625
1629800427125,0.953125,0.328125,0.015625
1629800427156,0.953125,0.3125,0.015625
1629800427187,0.953125,0.3125,0.015625
1629800427218,0.953125,0.3125,0.015625
1629800427250,0.953125,0.3125,0.015625
1629800427281,0.953125,0.328125,0.015625
1629800427312,0.953125,0.3125,0.015625
1629800427343,0.953125,0.3125,0.015625
1629800427375,0.953125,0.328125,0.015625
1629800427406,0.953125,0.328125,0.015625
1629800427437,0.953125,0.3125,0.015625
1629800427468,0.953125,0.3125,0.015625
1629800427500,0.953125,0.3125,0.015625
1629800427531,0.953125,0.3125,0.015625
1629800427562,0.953125,0.3125,0.015625
1629800427593,0.953125,0.328125,0.015625
1629800427625,0.953125,0.328125,0.015625
1629800427656,0.953125,0.3125,0.015625
1629800427687,0.953125,0.3125,0.015625
1629800427718,0.953125,0.328125,0.015625
1629800427750,0.953125,0.328125,0.015625
1629800427781,0.953125,0.3125,0.015625
1629800427812,0.953125,0.328125,0.015625
1629800427843,0.953125,0.3125,0.015625
1629800427875,0.953125,0.3125,0.03125
1629800427906,0.953125,0.328125,0.015625
1629800427937,0.953125,0.3125,0.015625
1629800427968,0.953125,0.3125,0.015625
1629800428000,0.953125,0.328125,0.015625
1629800428031,0.953125,0.3125,0.015625
1629800428062,0.953125,0.3125,0.015625
1629800428093,0.953125,0.3125,0.015625
1629800428125,0.953125,0.328125,0.015625
1629800428156,0.953125,0.328125,0.015625
1629800428187,0.953125,0.3125,0.03125
1629800428218,0.953125,0.3125,0.015625
1629800428250,0.953125,0.3125,0.015625
1629800428281,0.953125,0.3125,0.015625
1629800428312,0.953125,0.3125,0.015625
1629800428343,0.953125,0.3125,0.015625
1629800428375,0.953125,0.328125,0.015625
1629800428406,0.953125,0.3125,0.015625
1629800428437,0.96875,0.3125,0.015625
1629800428468,0.96875,0.3125,0.015625
1629800428500,0.953125,0.3125,0.015625
1629800428531,0.953125,0.3125,0.015625
1629800428562,0.953125,0.328125,0.015625
1629800428593,0.953125,0.3125,0.015625
1629800428625,0.953125,0.3125,0.015625
1629800428656,0.953125,0.3125,0.03125
1629800428687,0.953125,0.3125,0.015625
1629800428718,0.953125,0.3125,0.015625
1629800428750,0.953125,0.328125,0.03125
1629800428781,0.953125,0.3125,0.015625
1629800428812,0.953125,0.328125,0.015625
1629800428843,0.953125,0.328125,0.015625
1629800428875,0.953125,0.3125,0.015625
1629800428906,0.953125,0.328125,0.015625
1629800428937,0.953125,0.328125,0.015625
1629800428968,0.953125,0.3125,0.015625
1629800429000,0.953125,0.328125,0.015625
1629800429031,0.953125,0.328125,0.015625
1629800429062,0.953125,0.3125,0.015625
1629800429093,0.953125,0.328125,0.015625
1629800429125,0.953125,0.328125,0.03125
1629800429156,0.953125,0.3125,0.015625
1629800429187,0.953125,0.3125,0.015625
1629800429218,0.953125,0.3125,0.015625
1629800429250,0.953125,0.3125,0.015625
1629800429281,0.953125,0.3125,0.015625
1629800429312,0.96875,0.328125,0.015625
1629800429343,0.953125,0.328125,0.015625
1629800429375,0.953125,0.328125,0.015625
1629800429406,0.953125,0.328125,0.015625
1629800429437,0.953125,0.328125,0.015625
1629800429468,0.953125,0.328125,0.015625
1629800429500,0.953125,0.328125,0.015625
1629800429531,0.953125,0.3125,0.015625
1629800429562,0.953125,0.3125,0.015625
1629800429593,0.953125,0.3125,0.015625
1629800429625,0.953125,0.328125,0.03125
1629800429656,0.953125,0.328125,0.015625
1629800429687,0.953125,0.3125,0.015625
1629800429718,0.953125,0.3125,0.015625
1629800429750,0.953125,0.328125,0.015625
1629800429781,0.953125,0.328125,0.015625
1629800429812,0.953125,0.328125,0.015625
1629800429843,0.953125,0.328125,0.015625
1629800429875,0.953125,0.3125,0.015625
1629800429906,0.953125,0.328125,0.015625
1629800429937,0.953125,0.328125,0.015625
1629800429968,0.953125,0.3125,0.015625
1629800430000,0.953125,0.328125,0.015625
1629800430031,0.953125,0.3125,0.015625
1629800430062,0.953125,0.3125,0.015625
1629800430093,0.953125,0.3125,0.015625
1629800430125,0.953125,0.328125,0.015625
1629800430156,0.953125,0.3125,0.015625
1629800430187,0.953125,0.328125,0.03125
1629800430218,0.953125,0.328125,0.015625
1629800430250,0.953125,0.3125,0.015625
1629800430281,0.953125,0.3125,0.015625
1629800430312,0.953125,0.3125,0.015625
1629800430343,0.953125,0.3125,0.015625
1629800430375,0.953125,0.3125,0.015625
1629800430406,0.953125,0.328125,0.015625
1629800430437,0.953125,0.3125,0.015625
1629800430468,0.953125,0.3125,0.015625
1629800430500,0.953125,0.328125,0.015625
1629800430531,0.953125,0.3125,0.03125
1629800430562,0.953125,0.3125,0.015625
1629800430593,0.953125,0.3125,0.015625
1629800430625,0.953125,0.3125,0.015625
1629800430656,0.953125,0.328125,0.015625
1629800430687,0.953125,0.3125,0.015625
1629800430718,0.953125,0.3125,0.015625
1629800430750,0.953125,0.328125,0.03125
1629800430781,0.953125,0.3125,0.015625
1629800430812,0.953125,0.328125,0.015625
1629800430843,0.953125,0.3125,0.015625
1629800430875,0.953125,0.3125,0.015625
1629800430906,0.96875,0.328125,0.015625
1629800430937,0.953125,0.3125,0.03125
1629800430968,0.953125,0.3125,0.03125
1629800431000,0.953125,0.328125,0.015625
1629800431031,0.953125,0.3125,0.015625
1629800431062,0.953125,0.3125,0.015625
1629800431093,0.953125,0.3125,0.015625
1629800431125,0.953125,0.3125,0.015625
1629800431156,0.953125,0.3125,0.015625
1629800431187,0.953125,0.3125,0.015625
1629800431218,0.953125,0.3125,0.015625
1629800431250,0.953125,0.3125,0.015625
1629800431281,0.953125,0.328125,0.015625
1629800431312,0.953125,0.3125,0.015625
1629800431343,0.953125,0.328125,0.015625
1629800431375,0.953125,0.3125,0.03125
1629800431406,0.953125,0.3125,0.015625
1629800431437,0.953125,0.3125,0.015625
1629800431468,0.953125,0.3125,0.015625
1629800431500,0.953125,0.3125,0.015625
1629800431531,0.953125,0.328125,0.03125
1629800431562,0.953125,0.3125,0.015625
1629800431593,0.953125,0.3125,0.015625
1629800431625,0.953125,0.3125,0.015625
1629800431656,0.953125,0.3125,0.015625
1629800431687,0.953125,0.3125,0.015625
1629800431718,0.953125,0.3125,0.015625
1629800431750,0.953125,0.328125,0.015625
1629800431781,0.953125,0.3125,0.015625
1629800431812,0.953125,0.3125,0.015625
1629800431843,0.953125,0.3125,0.015625
1629800431875,0.953125,0.328125,0.015625
1629800431906,0.953125,0.3125,0.015625
1629800431937,0.953125,0.3125,0.015625
1629800431968,0.953125,0.3125,0.015625
1629800432000,0.953125,0.3125,0.015625
1629800432031,0.953125,0.328125,0.015625
1629800432062,0.953125,0.3125,0.03125
1629800432093,0.953125,0.328125,0.03125
1629800432125,0.953125,0.328125,0.03125
1629800432156,0.953125,0.3125,0.015625
1629800432187,0.953125,0.3125,0.015625
1629800432218,0.953125,0.328125,0.015625
1629800432250,0.953125,0.328125,0.015625
1629800432281,0.953125,0.3125,0.015625
1629800432312,0.953125,0.328125,0.015625
1629800432343,0.953125,0.328125,0.015625
1629800432375,0.953125,0.3125,0.015625
1629800432406,0.953125,0.3125,0.015625
1629800432437,0.953125,0.328125,0.015625
1629800432468,0.953125,0.3125,0.015625
1629800432500,0.953125,0.328125,0.015625
1629800432531,0.953125,0.328125,0.015625
1629800432562,0.953125,0.328125,0.03125
1629800432593,0.953125,0.3125,0.015625
1629800432625,0.953125,0.328125,0.015625
1629800432656,0.96875,0.328125,0.015625
1629800432687,0.953125,0.328125,0.015625
1629800432718,0.953125,0.328125,0.015625
1629800432750,0.953125,0.328125,0.015625
1629800432781,0.953125,0.328125,0.015625
1629800432812,0.953125,0.328125,0.015625
1629800432843,0.953125,0.3125,0.015625
1629800432875,0.953125,0.3125,0.015625
1629800432906,0.953125,0.328125,0.015625
1629800432937,0.953125,0.328125,0.03125
1629800432968,0.953125,0.328125,0.015625
1629800433000,0.953125,0.328125,0.015625
1629800433031,0.953125,0.3125,0.015625
1629800433062,0.953125,0.328125,0.015625
1629800433093,0.953125,0.3125,0.015625
1629800433125,0.953125,0.328125,0.015625
1629800433156,0.953125,0.328125,0.015625
1629800433187,0.953125,0.328125,0.015625
1629800433218,0.953125,0.328125,0.015625
1629800433250,0.953125,0.3125,0.015625
1629800433281,0.953125,0.328125,0.015625
1629800433312,0.953125,0.328125,0.03125
1629800433343,0.953125,0.328125,0.015625
1629800433375,0.953125,0.3125,0.015625
1629800433406,0.953125,0.3125,0.015625
1629800433437,0.953125,0.3125,0.015625
1629800433468,0.953125,0.328125,0.015625
1629800433500,0.953125,0.3125,0.015625
1629800433531,0.953125,0.3125,0.015625
1629800433562,0.953125,0.3125,0.03125
1629800433593,0.953125,0.3125,0.015625
1629800433625,0.953125,0.328125,0.015625
1629800433656,0.953125,0.3125,0.015625
1629800433687,0.953125,0.3125,0.015625
1629800433718,0.953125,0.3125,0.015625
1629800433750,0.953125,0.328125,0.015625
1629800433781,0.953125,0.328125,0.015625
1629800433812,0.953125,0.3125,0.015625
1629800433843,0.953125,0.3125,0.015625
1629800433875,0.953125,0.3125,0.015625
1629800433906,0.953125,0.328125,0.015625
1629800433937,0.953125,0.3125,0.015625
1629800433968,0.953125,0.3125,0.015625
1629800434000,0.953125,0.328125,0.015625
1629800434031,0.953125,0.328125,0.015625
1629800434062,0.953125,0.3125,0.015625
1629800434093,0.953125,0.3125,0.015625
1629800434125,0.953125,0.3125,0.015625
1629800434156,0.953125,0.3125,0.015625
1629800434187,0.953125,0.3125,0.03125
1629800434218,0.953125,0.3125,0.015625
1629800434250,0.953125,0.328125,0.03125
1629800434281,0.953125,0.3125,0.015625
1629800434312,0.953125,0.3125,0.015625
1629800434343,0.953125,0.328125,0.015625
1629800434375,0.953125,0.328125,0.015625
1629800434406,0.953125,0.3125,0.015625
1629800434437,0.953125,0.3125,0.03125
1629800434468,0.953125,0.3125,0.015625
1629800434500,0.953125,0.328125,0.015625
1629800434531,0.953125,0.328125,0.015625
1629800434562,0.953125,0.3125,0.015625
1629800434593,0.953125,0.3125,0.03125
1629800434625,0.953125,0.3125,0.015625
1629800434656,0.953125,0.3125,0.015625
1629800434687,0.953125,0.3125,0.015625
1629800434718,0.953125,0.3125,0.03125
1629800434750,0.953125,0.3125,0.015625
1629800434781,0.953125,0.3125,0.015625
1629800434812,0.953125,0.3125,0.015625
1629800434843,0.953125,0.3125,0.015625
1629800434875,0.953125,0.3125,0.015625
1629800434906,0.953125,0.3125,0.015625
1629800434937,0.953125,0.3125,0.015625
1629800434968,0.953125,0.3125,0.015625
1629800435000,0.953125,0.3125,0.015625
1629800435031,0.953125,0.3125,0.015625
1629800435062,0.953125,0.3125,0.03125
1629800435093,0.953125,0.3125,0.015625
1629800435125,0.953125,0.3125,0.015625
1629800435156,0.953125,0.3125,0.03125
1629800435187,0.953125,0.3125,0.03125
1629800435218,0.953125,0.3125,0.015625
1629800435250,0.953125,0.3125,0.015625
1629800435281,0.953125,0.3125,0.015625
1629800435312,0.96875,0.3125,0.015625
1629800435343,0.953125,0.3125,0.015625
1629800435375,0.953125,0.3125,0.015625
1629800435406,0.953125,0.3125,0.015625
1629800435437,0.953125,0.328125,0.015625
1629800435468,0.953125,0.3125,0.015625
1629800435500,0.953125,0.3125,0.015625
1629800435531,0.953125,0.3125,0.015625
1629800435562,0.953125,0.3125,0.015625
1629800435593,0.953125,0.3125,0.015625
1629800435625,0.953125,0.3125,0.015625
1629800435656,0.953125,0.3125,0.015625
1629800435687,0.953125,0.3125,0.015625
1629800435718,0.953125,0.3125,0.015625
1629800435750,0.953125,0.3125,0.015625
1629800435781,0.953125,0.3125,0.015625
1629800435812,0.953125,0.328125,0.015625
1629800435843,0.953125,0.3125,0.015625
1629800435875,0.953125,0.3125,0.015625
1629800435906,0.953125,0.3125,0.015625
1629800435937,0.953125,0.3125,0.015625
1629800435968,0.953125,0.3125,0.015625
1629800436000,0.953125,0.3125,0.015625
1629800436031,0.953125,0.3125,0.015625
1629800436062,0.953125,0.3125,0.015625
1629800436093,0.96875,0.3125,0.015625
1629800436125,0.953125,0.3125,0.015625
1629800436156,0.953125,0.3125,0.015625
1629800436187,0.953125,0.3125,0.015625
1629800436218,0.953125,0.3125,0.015625
1629800436250,0.953125,0.3125,0.015625
1629800436281,0.953125,0.3125,0.015625
1629800436312,0.953125,0.3125,0.015625
1629800436343,0.953125,0.3125,0.015625
1629800436375,0.953125,0.3125,0.015625
1629800436406,0.953125,0.3125,0.015625
1629800436437,0.953125,0.328125,0.015625
1629800436468,0.953125,0.328125,0.015625
1629800436500,0.953125,0.3125,0.015625
1629800436531,0.953125,0.3125,0.015625
1629800436562,0.953125,0.3125,0.015625
1629800436593,0.953125,0.3125,0.015625
1629800436625,0.953125,0.3125,0.015625
1629800436656,0.953125,0.3125,0.015625
1629800436687,0.953125,0.3125,0.015625
1629800436718,0.953125,0.3125,0.03125
1629800436750,0.953125,0.3125,0.015625
1629800436781,0.953125,0.3125,0.015625
1629800436812,0.953125,0.3125,0.015625
1629800436843,0.953125,0.3125,0.015625
1629800436875,0.953125,0.3125,0.015625
1629800436906,0.953125,0.3125,0.015625
1629800436937,0.953125,0.3125,0.015625
1629800436968,0.953125,0.3125,0.015625
1629800437000,0.953125,0.3125,0.015625
1629800437031,0.953125,0.3125,0.015625
1629800437062,0.953125,0.3125,0.015625
1629800437093,0.96875,0.3125,0.015625
1629800437125,0.953125,0.3125,0.015625
1629800437156,0.953125,0.3125,0.015625
1629800437187,0.953125,0.3125,0.015625
1629800437218,0.953125,0.3125,0.015625
1629800437250,0.953125,0.3125,0.015625
1629800437281,0.953125,0.3125,0.015625
1629800437312,0.953125,0.3125,0.015625
1629800437343,0.953125,0.3125,0.03125
1629800437375,0.953125,0.3125,0.015625
1629800437406,0.953125,0.3125,0.015625
1629800437437,0.953125,0.3125,0.03125
1629800437468,0.953125,0.3125,0.015625
1629800437500,0.953125,0.3125,0.015625
1629800437531,0.953125,0.3125,0.015625
1629800437562,0.953125,0.3125,0.015625
1629800437593,0.953125,0.3125,0.015625
1629800437625,0.953125,0.3125,0.015625
1629800437656,0.953125,0.3125,0.015625
1629800437687,0.96875,0.3125,0.015625
1629800437718,0.953125,0.3125,0.03125
1629800437750,0.953125,0.3125,0.015625
1629800437781,0.953125,0.3125,0.015625
1629800437812,0.953125,0.328125,0.015625
1629800437843,0.953125,0.3125,0.015625
1629800437875,0.953125,0.3125,0.015625
1629800437906,0.953125,0.3125,0.015625
1629800437937,0.953125,0.328125,0.015625
1629800437968,0.953125,0.3125,0.015625
1629800438000,0.953125,0.3125,0.03125
1629800438031,0.953125,0.3125,0.015625
1629800438062,0.953125,0.3125,0.03125
1629800438093,0.953125,0.328125,0.03125
1629800438125,0.953125,0.3125,0.015625
1629800438156,0.953125,0.3125,0.015625
1629800438187,0.953125,0.3125,0.03125
1629800438218,0.953125,0.3125,0.015625
1629800438250,0.953125,0.3125,0.015625
1629800438281,0.953125,0.3125,0.03125
1629800438312,0.953125,0.3125,0.03125
1629800438343,0.953125,0.3125,0.03125
1629800438375,0.953125,0.3125,0.03125
1629800438406,0.953125,0.3125,0.015625
1629800438437,0.953125,0.3125,0.03125
1629800438468,0.953125,0.3125,0.015625
1629800438500,0.953125,0.3125,0.015625
1629800438531,0.953125,0.3125,0.015625
1629800438562,0.953125,0.3125,0.015625
1629800438593,0.953125,0.3125,0.015625
1629800438625,0.96875,0.3125,0.015625
1629800438656,0.953125,0.3125,0.015625
1629800438687,0.953125,0.3125,0.015625
1629800438718,0.953125,0.3125,0.015625
1629800438750,0.953125,0.328125,0.015625
1629800438781,0.953125,0.3125,0.015625
1629800438812,0.953125,0.3125,0.015625
1629800438843,0.953125,0.3125,0.015625
1629800438875,0.953125,0.3125,0.015625
1629800438906,0.953125,0.3125,0.015625
1629800438937,0.953125,0.328125,0.03125
1629800438968,0.953125,0.3125,0.015625
1629800439000,0.953125,0.328125,0.015625
1629800439031,0.953125,0.3125,0.015625
1629800439062,0.953125,0.3125,0.015625
1629800439093,0.953125,0.3125,0.015625
1629800439125,0.953125,0.328125,0.015625
1629800439156,0.953125,0.3125,0.015625
1629800439187,0.953125,0.328125,0.015625
1629800439218,0.953125,0.3125,0.015625
1629800439250,0.953125,0.3125,0.015625
1629800439281,0.953125,0.3125,0.015625
1629800439312,0.953125,0.3125,0.015625
1629800439343,0.953125,0.3125,0.015625
1629800439375,0.953125,0.3125,0.015625
1629800439406,0.953125,0.328125,0.015625
1629800439437,0.953125,0.3125,0.015625
1629800439468,0.953125,0.328125,0.015625
1629800439500,0.953125,0.3125,0.015625
1629800439531,0.953125,0.3125,0.015625
1629800439562,0.953125,0.3125,0.015625
1629800439593,0.953125,0.3125,0.015625
1629800439625,0.953125,0.328125,0.015625
1629800439656,0.953125,0.3125,0.015625
1629800439687,0.953125,0.3125,0.015625
1629800439718,0.953125,0.3125,0.015625
1629800439750,0.953125,0.3125,0.015625
1629800439781,0.953125,0.328125,0.015625
1629800439812,0.953125,0.328125,0.015625
1629800439843,0.953125,0.328125,0.015625
1629800439875,0.953125,0.3125,0.015625
1629800439906,0.953125,0.3125,0.015625
1629800439937,0.953125,0.3125,0.015625
1629800439968,0.953125,0.3125,0.015625
1629800440000,0.953125,0.3125,0.015625
1629800440031,0.953125,0.3125,0.015625
1629800440062,0.953125,0.328125,0.015625
1629800440093,0.953125,0.3125,0.015625
1629800440125,0.953125,0.3125,0.015625
1629800440156,0.953125,0.3125,0.03125
1629800440187,0.953125,0.3125,0.015625
1629800440218,0.953125,0.3125,0.015625
1629800440250,0.953125,0.3125,0.015625
1629800440281,0.953125,0.3125,0.015625
1629800440312,0.953125,0.3125,0.015625
1629800440343,0.953125,0.3125,0.015625
1629800440375,0.953125,0.328125,0.015625
1629800440406,0.953125,0.3125,0.015625
1629800440437,0.953125,0.3125,0.015625
1629800440468,0.953125,0.3125,0.015625
1629800440500,0.96875,0.328125,0.015625
1629800440531,0.953125,0.3125,0.015625
1629800440562,0.953125,0.3125,0.03125
1629800440593,0.953125,0.3125,0.03125
1629800440625,0.96875,0.3125,0.015625
1629800440656,0.96875,0.296875,0.015625
1629800440687,0.96875,0.296875,0.015625
1629800440718,0.953125,0.3125,0.015625
1629800440750,0.953125,0.3125,0.015625
1629800440781,0.953125,0.3125,0.015625
1629800440812,0.96875,0.3125,0.015625
1629800440843,0.96875,0.3125,0.03125
1629800440875,0.953125,0.3125,0.03125
1629800440906,0.953125,0.3125,0.03125
1629800440937,0.953125,0.328125,0.03125
1629800440968,0.953125,0.328125,0.03125
1629800441000,0.96875,0.3125,0.046875
1629800441031,0.9375,0.34375,0.03125
1629800441062,0.9375,0.328125,0.046875
1629800441093,0.953125,0.328125,0.03125
1629800441125,0.96875,0.296875,0.046875
1629800441156,0.9375,0.296875,0.046875
1629800441187,0.953125,0.328125,0.046875
1629800441218,0.953125,0.328125,0.03125
1629800441250,0.953125,0.328125,0.03125
1629800441281,0.96875,0.3125,0.03125
1629800441312,0.953125,0.3125,0.046875
1629800441343,0.953125,0.3125,0.015625
1629800441375,0.953125,0.3125,0.015625
1629800441406,0.96875,0.3125,0.03125
1629800441437,0.953125,0.296875,0.03125
1629800441468,0.96875,0.3125,0.03125
1629800441500,0.953125,0.3125,0.03125
1629800441531,0.953125,0.328125,0.03125
1629800441562,0.9375,0.328125,0.03125
1629800441593,0.953125,0.3125,0.03125
1629800441625,0.96875,0.3125,0.03125
1629800441656,0.96875,0.296875,0.03125
1629800441687,0.953125,0.3125,0.046875
1629800441718,0.953125,0.3125,0.046875
1629800441750,0.953125,0.328125,0.046875
1629800441781,0.953125,0.328125,0.046875
1629800441812,0.953125,0.328125,0.046875
1629800441843,0.953125,0.3125,0.046875
1629800441875,0.953125,0.3125,0.03125
1629800441906,0.96875,0.3125,0.046875
1629800441937,0.953125,0.328125,0.046875
1629800441968,0.9375,0.328125,0.046875
1629800442000,0.953125,0.328125,0.03125
1629800442031,0.953125,0.328125,0.046875
1629800442062,0.953125,0.328125,0.046875
1629800442093,0.953125,0.328125,0.046875
1629800442125,0.953125,0.328125,0.046875
1629800442156,0.953125,0.328125,0.046875
1629800442187,0.953125,0.3125,0.046875
1629800442218,0.953125,0.328125,0.046875
1629800442250,0.953125,0.328125,0.046875
1629800442281,0.953125,0.3125,0.046875
1629800442312,0.953125,0.328125,0.046875
1629800442343,0.953125,0.328125,0.046875
1629800442375,0.953125,0.328125,0.046875
1629800442406,0.953125,0.328125,0.046875
1629800442437,0.953125,0.328125,0.046875
1629800442468,0.953125,0.328125,0.046875
1629800442500,0.953125,0.328125,0.046875
1629800442531,0.953125,0.328125,0.046875
1629800442562,0.953125,0.328125,0.046875
1629800442593,0.953125,0.328125,0.046875
1629800442625,0.953125,0.328125,0.046875
1629800442656,0.953125,0.328125,0.046875
1629800442687,0.953125,0.328125,0.046875
1629800442718,0.953125,0.328125,0.046875
1629800442750,0.953125,0.328125,0.046875
1629800442781,0.953125,0.328125,0.046875
1629800442812,0.953125,0.328125,0.046875
1629800442843,0.953125,0.328125,0.03125
1629800442875,0.953125,0.328125,0.046875
1629800442906,0.953125,0.328125,0.046875
1629800442937,0.953125,0.328125,0.046875
1629800442968,0.953125,0.328125,0.03125
1629800443000,0.953125,0.328125,0.03125
1629800443031,0.953125,0.328125,0.046875
1629800443062,0.953125,0.328125,0.03125
1629800443093,0.953125,0.328125,0.03125
1629800443125,0.953125,0.328125,0.03125
1629800443156,0.953125,0.328125,0.046875
1629800443187,0.953125,0.328125,0.046875
1629800443218,0.953125,0.328125,0.03125
1629800443250,0.953125,0.328125,0.046875
1629800443281,0.953125,0.328125,0.046875
1629800443312,0.953125,0.328125,0.03125
1629800443343,0.953125,0.328125,0.03125
1629800443375,0.953125,0.328125,0.046875
1629800443406,0.953125,0.328125,0.046875
1629800443437,0.953125,0.328125,0.03125
1629800443468,0.953125,0.328125,0.03125
1629800443500,0.953125,0.328125,0.046875
1629800443531,0.953125,0.328125,0.046875
1629800443562,0.953125,0.328125,0.03125
1629800443593,0.953125,0.328125,0.03125
1629800443625,0.953125,0.328125,0.046875
1629800443656,0.953125,0.328125,0.046875
1629800443687,0.953125,0.328125,0.03125
1629800443718,0.953125,0.328125,0.046875
1629800443750,0.953125,0.328125,0.03125
1629800443781,0.953125,0.328125,0.03125
1629800443812,0.953125,0.328125,0.046875
1629800443843,0.953125,0.328125,0.03125
1629800443875,0.953125,0.328125,0.03125
1629800443906,0.953125,0.328125,0.046875
1629800443937,0.953125,0.328125,0.03125
1629800443968,0.953125,0.328125,0.046875
1629800444000,0.953125,0.328125,0.046875
1629800444031,0.953125,0.328125,0.03125
1629800444062,0.953125,0.328125,0.046875
1629800444093,0.953125,0.328125,0.046875
1629800444125,0.953125,0.328125,0.046875
1629800444156,0.953125,0.328125,0.046875
1629800444187,0.953125,0.328125,0.03125
1629800444218,0.953125,0.328125,0.046875
1629800444250,0.953125,0.328125,0.046875
1629800444281,0.953125,0.328125,0.03125
1629800444312,0.953125,0.328125,0.046875
1629800444343,0.953125,0.328125,0.046875
1629800444375,0.953125,0.328125,0.046875
1629800444406,0.953125,0.328125,0.046875
1629800444437,0.953125,0.328125,0.046875
1629800444468,0.953125,0.328125,0.046875
1629800444500,0.953125,0.328125,0.046875
1629800444531,0.953125,0.328125,0.03125
1629800444562,0.953125,0.328125,0.046875
1629800444593,0.953125,0.328125,0.046875
1629800444625,0.953125,0.328125,0.046875
1629800444656,0.953125,0.328125,0.03125
1629800444687,0.953125,0.328125,0.046875
1629800444718,0.953125,0.328125,0.046875
1629800444750,0.953125,0.328125,0.046875
1629800444781,0.953125,0.328125,0.046875
1629800444812,0.953125,0.328125,0.046875
1629800444843,0.953125,0.328125,0.046875
1629800444875,0.953125,0.328125,0.046875
1629800444906,0.953125,0.328125,0.046875
1629800444937,0.953125,0.328125,0.03125
1629800444968,0.953125,0.328125,0.03125
1629800445000,0.953125,0.328125,0.046875
1629800445031,0.953125,0.328125,0.046875
1629800445062,0.953125,0.328125,0.046875
1629800445093,0.953125,0.328125,0.046875
1629800445125,0.953125,0.328125,0.03125
1629800445156,0.953125,0.328125,0.046875
1629800445187,0.953125,0.328125,0.046875
1629800445218,0.953125,0.328125,0.046875
1629800445250,0.953125,0.328125,0.03125
1629800445281,0.953125,0.328125,0.046875
1629800445312,0.953125,0.328125,0.03125
1629800445343,0.953125,0.328125,0.03125
1629800445375,0.953125,0.328125,0.046875
1629800445406,0.953125,0.328125,0.046875
1629800445437,0.953125,0.328125,0.046875
1629800445468,0.953125,0.328125,0.046875
1629800445500,0.953125,0.328125,0.046875
1629800445531,0.953125,0.328125,0.046875
1629800445562,0.953125,0.328125,0.046875
1629800445593,0.953125,0.328125,0.03125
1629800445625,0.953125,0.328125,0.046875
1629800445656,0.953125,0.328125,0.046875
1629800445687,0.953125,0.328125,0.046875
1629800445718,0.953125,0.328125,0.03125
1629800445750,0.953125,0.328125,0.046875
1629800445781,0.953125,0.328125,0.046875
1629800445812,0.953125,0.328125,0.046875
1629800445843,0.953125,0.328125,0.046875
1629800445875,0.953125,0.328125,0.046875
1629800445906,0.953125,0.328125,0.046875
1629800445937,0.953125,0.328125,0.046875
1629800445968,0.953125,0.328125,0.046875
1629800446000,0.953125,0.328125,0.046875
1629800446031,0.953125,0.328125,0.046875
1629800446062,0.953125,0.328125,0.046875
1629800446093,0.953125,0.328125,0.046875
1629800446125,0.953125,0.328125,0.046875
1629800446156,0.953125,0.328125,0.046875
1629800446187,0.953125,0.328125,0.03125
1629800446218,0.953125,0.328125,0.046875
1629800446250,0.953125,0.328125,0.03125
1629800446281,0.953125,0.328125,0.046875
1629800446312,0.953125,0.328125,0.046875
1629800446343,0.953125,0.328125,0.046875
1629800446375,0.953125,0.328125,0.046875
1629800446406,0.953125,0.328125,0.046875
1629800446437,0.953125,0.328125,0.046875
1629800446468,0.953125,0.328125,0.046875
1629800446500,0.953125,0.328125,0.046875
1629800446531,0.953125,0.328125,0.046875
1629800446562,0.953125,0.328125,0.046875
1629800446593,0.953125,0.328125,0.046875
1629800446625,0.953125,0.328125,0.03125
1629800446656,0.953125,0.328125,0.046875
1629800446687,0.953125,0.328125,0.046875
1629800446718,0.953125,0.328125,0.046875
1629800446750,0.953125,0.328125,0.046875
1629800446781,0.953125,0.328125,0.046875
1629800446812,0.953125,0.328125,0.046875
1629800446843,0.953125,0.328125,0.046875
1629800446875,0.953125,0.328125,0.046875
1629800446906,0.953125,0.328125,0.046875
1629800446937,0.953125,0.328125,0.046875
1629800446968,0.953125,0.328125,0.046875
1629800447000,0.953125,0.328125,0.046875
1629800447031,0.953125,0.328125,0.03125
1629800447062,0.953125,0.328125,0.03125
1629800447093,0.953125,0.328125,0.046875
1629800447125,0.953125,0.328125,0.03125
1629800447156,0.953125,0.328125,0.046875
1629800447187,0.953125,0.328125,0.046875
1629800447218,0.953125,0.328125,0.046875
1629800447250,0.953125,0.328125,0.03125
1629800447281,0.953125,0.328125,0.03125
1629800447312,0.953125,0.328125,0.046875
1629800447343,0.953125,0.328125,0.046875
1629800447375,0.953125,0.328125,0.046875
1629800447406,0.953125,0.328125,0.046875
1629800447437,0.953125,0.328125,0.046875
1629800447468,0.953125,0.328125,0.046875
1629800447500,0.953125,0.328125,0.03125
1629800447531,0.953125,0.328125,0.046875
1629800447562,0.953125,0.328125,0.03125
1629800447593,0.953125,0.328125,0.03125
1629800447625,0.953125,0.328125,0.03125
1629800447656,0.953125,0.328125,0.03125
1629800447687,0.953125,0.328125,0.046875
1629800447718,0.953125,0.328125,0.03125
1629800447750,0.953125,0.328125,0.03125
1629800447781,0.953125,0.328125,0.046875
1629800447812,0.953125,0.328125,0.03125
1629800447843,0.953125,0.328125,0.046875
1629800447875,0.953125,0.328125,0.046875
1629800447906,0.953125,0.328125,0.046875
1629800447937,0.953125,0.328125,0.046875
1629800447968,0.953125,0.328125,0.046875
1629800448000,0.953125,0.328125,0.046875
1629800448031,0.953125,0.328125,0.046875
1629800448062,0.953125,0.328125,0.03125
1629800448093,0.953125,0.328125,0.046875
1629800448125,0.953125,0.328125,0.046875
1629800448156,0.953125,0.328125,0.046875
1629800448187,0.953125,0.328125,0.046875
1629800448218,0.953125,0.328125,0.046875
1629800448250,0.953125,0.328125,0.046875
1629800448281,0.953125,0.328125,0.046875
1629800448312,0.953125,0.328125,0.046875
1629800448343,0.953125,0.328125,0.046875
1629800448375,0.953125,0.328125,0.046875
1629800448406,0.953125,0.328125,0.046875
1629800448437,0.953125,0.328125,0.046875
1629800448468,0.953125,0.328125,0.046875
1629800448500,0.953125,0.328125,0.046875
1629800448531,0.953125,0.328125,0.046875
1629800448562,0.953125,0.328125,0.046875
1629800448593,0.953125,0.328125,0.046875
1629800448625,0.953125,0.328125,0.046875
1629800448656,0.953125,0.328125,0.03125
1629800448687,0.953125,0.328125,0.046875
1629800448718,0.953125,0.328125,0.046875
1629800448750,0.953125,0.328125,0.046875
1629800448781,0.953125,0.328125,0.046875
1629800448812,0.953125,0.328125,0.046875
1629800448843,0.953125,0.328125,0.046875
1629800448875,0.953125,0.328125,0.046875
1629800448906,0.953125,0.328125,0.046875
1629800448937,0.953125,0.328125,0.046875
1629800448968,0.953125,0.328125,0.046875
1629800449000,0.953125,0.328125,0.046875
1629800449031,0.953125,0.328125,0.046875
1629800449062,0.953125,0.328125,0.046875
1629800449093,0.953125,0.328125,0.046875
1629800449125,0.953125,0.328125,0.046875
1629800449156,0.953125,0.328125,0.046875
1629800449187,0.953125,0.328125,0.046875
1629800449218,0.953125,0.328125,0.046875
1629800449250,0.953125,0.328125,0.046875
1629800449281,0.953125,0.328125,0.046875
1629800449312,0.953125,0.328125,0.046875
1629800449343,0.953125,0.328125,0.046875
1629800449375,0.953125,0.328125,0.046875
1629800449406,0.953125,0.328125,0.046875
1629800449437,0.953125,0.328125,0.046875
1629800449468,0.953125,0.328125,0.046875
1629800449500,0.953125,0.328125,0.046875
1629800449531,0.953125,0.328125,0.03125
1629800449562,0.953125,0.328125,0.046875
1629800449593,0.953125,0.328125,0.046875
1629800449625,0.953125,0.328125,0.046875
1629800449656,0.953125,0.328125,0.046875
1629800449687,0.953125,0.328125,0.046875
1629800449718,0.953125,0.328125,0.046875
1629800449750,0.953125,0.328125,0.046875
1629800449781,0.953125,0.328125,0.046875
1629800449812,0.953125,0.328125,0.046875
1629800449843,0.953125,0.328125,0.046875
1629800449875,0.953125,0.328125,0.046875
1629800449906,0.953125,0.328125,0.046875
1629800449937,0.953125,0.328125,0.046875
1629800449968,0.953125,0.328125,0.046875
1629800450000,0.953125,0.328125,0.046875
1629800450031,0.953125,0.328125,0.046875
1629800450062,0.953125,0.328125,0.046875
1629800450093,0.953125,0.328125,0.046875
1629800450125,0.953125,0.328125,0.046875
1629800450156,0.953125,0.328125,0.046875
1629800450187,0.953125,0.328125,0.046875
1629800450218,0.953125,0.328125,0.03125
1629800450250,0.953125,0.328125,0.046875
1629800450281,0.953125,0.328125,0.046875
1629800450312,0.953125,0.328125,0.046875
1629800450343,0.953125,0.328125,0.046875
1629800450375,0.953125,0.328125,0.046875
1629800450406,0.953125,0.328125,0.046875
1629800450437,0.953125,0.328125,0.046875
1629800450468,0.953125,0.328125,0.03125
1629800450500,0.953125,0.328125,0.046875
1629800450531,0.953125,0.328125,0.046875
1629800450562,0.953125,0.328125,0.03125
1629800450593,0.953125,0.328125,0.046875
1629800450625,0.953125,0.328125,0.03125
1629800450656,0.953125,0.328125,0.046875
1629800450687,0.953125,0.328125,0.03125
1629800450718,0.953125,0.328125,0.046875
1629800450750,0.953125,0.328125,0.046875
1629800450781,0.953125,0.328125,0.046875
1629800450812,0.953125,0.328125,0.03125
1629800450843,0.953125,0.328125,0.046875
1629800450875,0.953125,0.328125,0.046875
1629800450906,0.953125,0.328125,0.046875
1629800450937,0.953125,0.328125,0.03125
1629800450968,0.953125,0.328125,0.046875
1629800451000,0.953125,0.328125,0.046875
1629800451031,0.953125,0.328125,0.03125
1629800451062,0.953125,0.328125,0.046875
1629800451093,0.953125,0.328125,0.046875
1629800451125,0.953125,0.328125,0.046875
1629800451156,0.953125,0.328125,0.046875
1629800451187,0.953125,0.328125,0.046875
1629800451218,0.953125,0.328125,0.046875
1629800451250,0.953125,0.328125,0.046875
1629800451281,0.953125,0.328125,0.046875
1629800451312,0.953125,0.328125,0.03125
1629800451343,0.953125,0.328125,0.03125
1629800451375,0.953125,0.328125,0.03125
1629800451406,0.953125,0.328125,0.046875
1629800451437,0.953125,0.328125,0.046875
1629800451468,0.953125,0.328125,0.03125
1629800451500,0.953125,0.328125,0.046875
1629800451531,0.953125,0.328125,0.03125
1629800451562,0.953125,0.328125,0.046875
1629800451593,0.953125,0.328125,0.046875
1629800451625,0.953125,0.328125,0.046875
1629800451656,0.953125,0.328125,0.046875
1629800451687,0.953125,0.328125,0.03125
1629800451718,0.953125,0.328125,0.046875
1629800451750,0.953125,0.328125,0.046875
1629800451781,0.953125,0.328125,0.046875
1629800451812,0.953125,0.328125,0.046875
1629800451843,0.953125,0.328125,0.046875
1629800451875,0.953125,0.328125,0.03125
1629800451906,0.953125,0.328125,0.046875
1629800451937,0.953125,0.328125,0.046875
1629800451968,0.953125,0.328125,0.046875
1629800452000,0.953125,0.328125,0.046875
1629800452031,0.953125,0.328125,0.046875
1629800452062,0.953125,0.328125,0.046875
1629800452093,0.953125,0.328125,0.03125
1629800452125,0.953125,0.328125,0.046875
1629800452156,0.953125,0.328125,0.046875
1629800452187,0.953125,0.328125,0.046875
1629800452218,0.953125,0.328125,0.046875
1629800452250,0.953125,0.328125,0.046875
1629800452281,0.953125,0.328125,0.046875
1629800452312,0.953125,0.328125,0.046875
1629800452343,0.953125,0.328125,0.046875
1629800452375,0.953125,0.328125,0.046875
1629800452406,0.953125,0.328125,0.046875
1629800452437,0.953125,0.328125,0.046875
1629800452468,0.953125,0.328125,0.046875
1629800452500,0.953125,0.328125,0.046875
1629800452531,0.953125,0.328125,0.046875
1629800452562,0.953125,0.328125,0.046875
1629800452593,0.953125,0.328125,0.046875
1629800452625,0.953125,0.328125,0.046875
1629800452656,0.953125,0.328125,0.046875
1629800452687,0.953125,0.328125,0.046875
1629800452718,0.953125,0.328125,0.046875
1629800452750,0.953125,0.328125,0.03125
1629800452781,0.953125,0.328125,0.046875
1629800452812,0.953125,0.328125,0.046875
1629800452843,0.953125,0.328125,0.046875
1629800452875,0.953125,0.328125,0.046875
1629800452906,0.953125,0.328125,0.046875
1629800452937,0.953125,0.328125,0.046875
1629800452968,0.953125,0.328125,0.046875
1629800453000,0.953125,0.328125,0.03125
1629800453031,0.953125,0.328125,0.046875
1629800453062,0.953125,0.328125,0.03125
1629800453093,0.953125,0.328125,0.046875
1629800453125,0.953125,0.328125,0.046875
1629800453156,0.953125,0.328125,0.046875
1629800453187,0.953125,0.328125,0.046875
1629800453218,0.953125,0.328125,0.046875
1629800453250,0.953125,0.328125,0.046875
1629800453281,0.953125,0.328125,0.046875
1629800453312,0.953125,0.3125,0.046875
1629800453343,0.953125,0.328125,0.03125
1629800453375,0.953125,0.328125,0.046875
1629800453406,0.953125,0.328125,0.046875
1629800453437,0.953125,0.328125,0.046875
1629800453468,0.953125,0.328125,0.046875
1629800453500,0.953125,0.328125,0.03125
1629800453531,0.953125,0.328125,0.046875
1629800453562,0.953125,0.328125,0.046875
1629800453593,0.953125,0.328125,0.046875
1629800453625,0.953125,0.328125,0.046875
1629800453656,0.953125,0.328125,0.046875
1629800453687,0.953125,0.328125,0.046875
1629800453718,0.953125,0.328125,0.03125
1629800453750,0.953125,0.328125,0.046875
1629800453781,0.953125,0.328125,0.046875
1629800453812,0.953125,0.328125,0.046875
1629800453843,0.953125,0.328125,0.046875
1629800453875,0.953125,0.328125,0.03125
1629800453906,0.953125,0.328125,0.046875
1629800453937,0.953125,0.328125,0.046875
1629800453968,0.953125,0.328125,0.046875
1629800454000,0.953125,0.328125,0.046875
1629800454031,0.953125,0.328125,0.046875
1629800454062,0.953125,0.328125,0.046875
1629800454093,0.953125,0.328125,0.046875
1629800454125,0.953125,0.328125,0.03125
1629800454156,0.953125,0.328125,0.046875
1629800454187,0.953125,0.328125,0.046875
1629800454218,0.953125,0.328125,0.046875
1629800454250,0.953125,0.328125,0.03125
1629800454281,0.953125,0.328125,0.046875
1629800454312,0.953125,0.328125,0.046875
1629800454343,0.953125,0.328125,0.046875
1629800454375,0.953125,0.328125,0.046875
1629800454406,0.953125,0.328125,0.046875
1629800454437,0.953125,0.328125,0.046875
1629800454468,0.953125,0.328125,0.03125
1629800454500,0.953125,0.328125,0.046875
1629800454531,0.953125,0.328125,0.046875
1629800454562,0.953125,0.328125,0.046875
1629800454593,0.953125,0.328125,0.03125
1629800454625,0.953125,0.328125,0.046875
1629800454656,0.953125,0.328125,0.03125
1629800454687,0.953125,0.328125,0.046875
1629800454718,0.953125,0.328125,0.03125
1629800454750,0.953125,0.328125,0.03125
1629800454781,0.953125,0.328125,0.03125
1629800454812,0.953125,0.328125,0.03125
1629800454843,0.953125,0.328125,0.03125
1629800454875,0.953125,0.328125,0.046875
1629800454906,0.953125,0.328125,0.046875
1629800454937,0.953125,0.328125,0.046875
1629800454968,0.953125,0.328125,0.046875
1629800455000,0.953125,0.328125,0.046875
1629800455031,0.953125,0.328125,0.046875
1629800455062,0.953125,0.328125,0.046875
1629800455093,0.953125,0.328125,0.046875
1629800455125,0.953125,0.328125,0.046875
1629800455156,0.953125,0.328125,0.03125
1629800455187,0.953125,0.328125,0.046875
1629800455218,0.953125,0.328125,0.046875
1629800455250,0.953125,0.328125,0.046875
1629800455281,0.953125,0.328125,0.046875
1629800455312,0.953125,0.328125,0.046875
1629800455343,0.953125,0.328125,0.046875
1629800455375,0.953125,0.328125,0.046875
1629800455406,0.953125,0.328125,0.046875
1629800455437,0.953125,0.328125,0.046875
1629800455468,0.953125,0.328125,0.046875
1629800455500,0.953125,0.328125,0.046875
1629800455531,0.953125,0.328125,0.046875
1629800455562,0.953125,0.328125,0.046875
1629800455593,0.953125,0.328125,0.046875
1629800455625,0.953125,0.328125,0.046875
1629800455656,0.953125,0.328125,0.03125
1629800455687,0.953125,0.328125,0.046875
1629800455718,0.953125,0.328125,0.046875
1629800455750,0.953125,0.328125,0.046875
1629800455781,0.953125,0.328125,0.046875
1629800455812,0.953125,0.328125,0.046875
1629800455843,0.953125,0.328125,0.046875
1629800455875,0.953125,0.328125,0.046875
1629800455906,0.953125,0.328125,0.046875
1629800455937,0.953125,0.328125,0.046875
1629800455968,0.953125,0.328125,0.046875
1629800456000,0.953125,0.328125,0.046875
1629800456031,0.953125,0.328125,0.046875
1629800456062,0.953125,0.328125,0.046875
1629800456093,0.953125,0.328125,0.046875
1629800456125,0.953125,0.328125,0.046875
1629800456156,0.953125,0.328125,0.046875
1629800456187,0.953125,0.328125,0.046875
1629800456218,0.953125,0.328125,0.046875
1629800456250,0.953125,0.328125,0.046875
1629800456281,0.953125,0.328125,0.046875
1629800456312,0.953125,0.328125,0.046875
1629800456343,0.953125,0.328125,0.046875
1629800456375,0.953125,0.328125,0.046875
1629800456406,0.953125,0.328125,0.046875
1629800456437,0.953125,0.328125,0.046875
1629800456468,0.953125,0.328125,0.046875
1629800456500,0.953125,0.328125,0.046875
1629800456531,0.953125,0.328125,0.046875
1629800456562,0.953125,0.328125,0.046875
1629800456593,0.953125,0.328125,0.046875
1629800456625,0.953125,0.328125,0.046875
1629800456656,0.953125,0.328125,0.03125
1629800456687,0.953125,0.328125,0.046875
1629800456718,0.953125,0.328125,0.046875
1629800456750,0.953125,0.328125,0.046875
1629800456781,0.953125,0.328125,0.046875
1629800456812,0.953125,0.328125,0.046875
1629800456843,0.953125,0.328125,0.046875
1629800456875,0.953125,0.328125,0.046875
1629800456906,0.953125,0.328125,0.046875
1629800456937,0.953125,0.328125,0.046875
1629800456968,0.953125,0.328125,0.046875
1629800457000,0.953125,0.328125,0.046875
1629800457031,0.953125,0.328125,0.046875
1629800457062,0.953125,0.328125,0.046875
1629800457093,0.953125,0.328125,0.046875
1629800457125,0.953125,0.328125,0.046875
1629800457156,0.953125,0.328125,0.046875
1629800457187,0.953125,0.328125,0.046875
1629800457218,0.953125,0.328125,0.046875
1629800457250,0.953125,0.328125,0.046875
1629800457281,0.953125,0.328125,0.046875
1629800457312,0.953125,0.328125,0.03125
1629800457343,0.953125,0.328125,0.046875
1629800457375,0.953125,0.328125,0.046875
1629800457406,0.953125,0.328125,0.03125
1629800457437,0.953125,0.328125,0.046875
1629800457468,0.953125,0.328125,0.046875
1629800457500,0.953125,0.328125,0.046875
1629800457531,0.953125,0.328125,0.046875
1629800457562,0.953125,0.328125,0.046875
1629800457593,0.953125,0.328125,0.046875
1629800457625,0.953125,0.328125,0.046875
1629800457656,0.953125,0.328125,0.046875
1629800457687,0.953125,0.328125,0.03125
1629800457718,0.953125,0.328125,0.046875
1629800457750,0.953125,0.328125,0.046875
1629800457781,0.953125,0.328125,0.046875
1629800457812,0.96875,0.328125,0.046875
1629800457843,0.96875,0.328125,0.03125
1629800457875,0.953125,0.328125,0.03125
1629800457906,0.953125,0.34375,0.046875
1629800457937,0.953125,0.34375,0.046875
1629800457968,0.9375,0.34375,0.03125
1629800458000,0.953125,0.34375,0.015625
1629800458031,0.953125,0.34375,0.015625
1629800458062,0.953125,0.328125,0.046875
1629800458093,0.96875,0.328125,0.046875
1629800458125,0.953125,0.3125,0.046875
1629800458156,0.953125,0.3125,0.046875
1629800458187,0.953125,0.3125,0.046875
1629800458218,0.96875,0.3125,0.046875
1629800458250,0.953125,0.3125,0.046875
1629800458281,0.953125,0.3125,0.046875
1629800458312,0.953125,0.328125,0.046875
1629800458343,0.953125,0.328125,0.046875
1629800458375,0.953125,0.328125,0.03125
1629800458406,0.953125,0.328125,0.03125
1629800458437,0.953125,0.328125,0.046875
1629800458468,0.953125,0.328125,0.046875
1629800458500,0.953125,0.328125,0.046875
1629800458531,0.953125,0.328125,0.046875
1629800458562,0.953125,0.328125,0.046875
1629800458593,0.953125,0.3125,0.046875
1629800458625,0.953125,0.3125,0.046875
1629800458656,0.953125,0.328125,0.046875
1629800458687,0.953125,0.328125,0.046875
1629800458718,0.953125,0.328125,0.046875
1629800458750,0.953125,0.328125,0.046875
1629800458781,0.953125,0.328125,0.03125
1629800458812,0.953125,0.328125,0.03125
1629800458843,0.953125,0.328125,0.046875
1629800458875,0.953125,0.328125,0.046875
1629800458906,0.953125,0.328125,0.03125
1629800458937,0.953125,0.328125,0.046875
1629800458968,0.953125,0.328125,0.046875
1629800459000,0.953125,0.3125,0.046875
1629800459031,0.953125,0.328125,0.046875
1629800459062,0.96875,0.34375,0.03125
1629800459093,0.953125,0.34375,0.03125
1629800459125,0.953125,0.328125,0.03125
1629800459156,0.96875,0.328125,0.046875
1629800459187,0.953125,0.328125,0.046875
1629800459218,0.9375,0.34375,0.03125
1629800459250,0.921875,0.34375,0.03125
1629800459281,0.953125,0.34375,0.03125
1629800459312,0.953125,0.34375,0.03125
1629800459343,0.953125,0.34375,0.046875
1629800459375,0.9375,0.34375,0.046875
1629800459406,0.921875,0.34375,0.046875
1629800459437,0.96875,0.328125,0.03125
1629800459468,0.96875,0.328125,0.03125
1629800459500,0.96875,0.328125,0.03125
1629800459531,0.953125,0.328125,0.046875
1629800459562,0.953125,0.328125,0.046875
1629800459593,0.9375,0.34375,0.046875
1629800459625,0.9375,0.328125,0.03125
1629800459656,0.953125,0.34375,0.03125
1629800459687,0.953125,0.34375,0.03125
1629800459718,0.953125,0.328125,0.03125
1629800459750,0.953125,0.328125,0.046875
1629800459781,0.953125,0.328125,0.03125
1629800459812,0.953125,0.328125,0.046875
1629800459843,0.9375,0.328125,0.046875
1629800459875,0.9375,0.328125,0.046875
1629800459906,0.9375,0.328125,0.046875
1629800459937,0.953125,0.3125,0.046875
1629800459968,0.984375,0.3125,0.046875
1629800460000,0.921875,0.296875,0.046875
1629800460031,0.96875,0.3125,0.046875
1629800460062,0.953125,0.3125,0.046875
1629800460093,0.9375,0.3125,0.046875
1629800460125,0.953125,0.328125,0.03125
1629800460156,0.9375,0.34375,0.015625
1629800460187,0.9375,0.328125,0.03125
1629800460218,0.96875,0.328125,0.046875
1629800460250,0.984375,0.328125,0.046875
1629800460281,0.953125,0.3125,0.046875
1629800460312,0.953125,0.3125,0.046875
1629800460343,0.96875,0.3125,0.046875
1629800460375,0.96875,0.3125,0.03125
1629800460406,0.953125,0.3125,0.03125
1629800460437,0.953125,0.3125,0.03125
1629800460468,0.953125,0.3125,0.03125
1629800460500,0.96875,0.328125,0.03125
1629800460531,0.953125,0.3125,0.03125
1629800460562,0.953125,0.328125,0.046875
1629800460593,0.953125,0.328125,0.046875
1629800460625,0.953125,0.328125,0.03125
1629800460656,0.953125,0.3125,0.046875
1629800460687,0.953125,0.3125,0.046875
1629800460718,0.953125,0.3125,0.046875
1629800460750,0.953125,0.3125,0.046875
1629800460781,0.96875,0.3125,0.046875
1629800460812,0.953125,0.3125,0.046875
1629800460843,0.953125,0.3125,0.046875
1629800460875,0.953125,0.3125,0.046875
1629800460906,0.953125,0.3125,0.03125
1629800460937,0.953125,0.3125,0.046875
1629800460968,0.953125,0.3125,0.03125
1629800461000,0.953125,0.328125,0.03125
1629800461031,0.953125,0.328125,0.03125
1629800461062,0.953125,0.328125,0.03125
1629800461093,0.953125,0.328125,0.03125
1629800461125,0.953125,0.3125,0.03125
1629800461156,0.953125,0.3125,0.03125
1629800461187,0.953125,0.3125,0.03125
1629800461218,0.953125,0.3125,0.03125
1629800461250,0.953125,0.3125,0.03125
1629800461281,0.953125,0.3125,0.046875
1629800461312,0.953125,0.3125,0.03125
1629800461343,0.953125,0.3125,0.046875
1629800461375,0.953125,0.3125,0.03125
1629800461406,0.953125,0.328125,0.03125
1629800461437,0.953125,0.3125,0.046875
1629800461468,0.953125,0.3125,0.03125
1629800461500,0.96875,0.3125,0.03125
1629800461531,0.953125,0.3125,0.03125
1629800461562,0.953125,0.328125,0.03125
1629800461593,0.953125,0.3125,0.03125
1629800461625,0.953125,0.3125,0.03125
1629800461656,0.96875,0.3125,0.03125
1629800461687,0.953125,0.3125,0.03125
1629800461718,0.953125,0.3125,0.03125
1629800461750,0.953125,0.3125,0.03125
1629800461781,0.953125,0.3125,0.03125
1629800461812,0.953125,0.328125,0.03125
1629800461843,0.953125,0.3125,0.03125
1629800461875,0.953125,0.3125,0.046875
1629800461906,0.953125,0.3125,0.03125
1629800461937,0.953125,0.3125,0.03125
1629800461968,0.953125,0.3125,0.03125
1629800462000,0.953125,0.3125,0.03125
1629800462031,0.953125,0.3125,0.03125
1629800462062,0.953125,0.3125,0.03125
1629800462093,0.953125,0.3125,0.046875
1629800462125,0.953125,0.3125,0.03125
1629800462156,0.953125,0.3125,0.03125
1629800462187,0.953125,0.3125,0.03125
1629800462218,0.953125,0.3125,0.03125
1629800462250,0.953125,0.3125,0.03125
1629800462281,0.953125,0.3125,0.03125
1629800462312,0.953125,0.3125,0.03125
1629800462343,0.953125,0.3125,0.03125
1629800462375,0.953125,0.3125,0.03125
1629800462406,0.953125,0.3125,0.03125
1629800462437,0.953125,0.3125,0.03125
1629800462468,0.953125,0.3125,0.046875
1629800462500,0.953125,0.3125,0.03125
1629800462531,0.953125,0.3125,0.03125
1629800462562,0.953125,0.3125,0.03125
1629800462593,0.953125,0.3125,0.046875
1629800462625,0.953125,0.3125,0.046875
1629800462656,0.953125,0.3125,0.046875
1629800462687,0.953125,0.3125,0.03125
1629800462718,0.953125,0.3125,0.03125
1629800462750,0.953125,0.3125,0.03125
1629800462781,0.953125,0.3125,0.03125
1629800462812,0.953125,0.3125,0.03125
1629800462843,0.953125,0.3125,0.03125
1629800462875,0.953125,0.3125,0.03125
1629800462906,0.953125,0.3125,0.03125
1629800462937,0.953125,0.3125,0.046875
1629800462968,0.953125,0.3125,0.046875
1629800463000,0.953125,0.3125,0.046875
1629800463031,0.953125,0.328125,0.03125
1629800463062,0.953125,0.3125,0.03125
1629800463093,0.953125,0.3125,0.03125
1629800463125,0.953125,0.3125,0.03125
1629800463156,0.953125,0.3125,0.046875
1629800463187,0.953125,0.3125,0.046875
1629800463218,0.953125,0.3125,0.046875
1629800463250,0.953125,0.3125,0.046875
1629800463281,0.953125,0.3125,0.03125
1629800463312,0.953125,0.3125,0.03125
1629800463343,0.953125,0.3125,0.03125
1629800463375,0.953125,0.3125,0.03125
1629800463406,0.953125,0.3125,0.03125
1629800463437,0.953125,0.3125,0.03125
1629800463468,0.953125,0.3125,0.03125
1629800463500,0.953125,0.328125,0.03125
1629800463531,0.96875,0.3125,0.03125
1629800463562,0.953125,0.3125,0.03125
1629800463593,0.953125,0.3125,0.03125
1629800463625,0.953125,0.3125,0.03125
1629800463656,0.953125,0.3125,0.046875
1629800463687,0.953125,0.3125,0.03125
1629800463718,0.953125,0.3125,0.046875
1629800463750,0.953125,0.3125,0.046875
1629800463781,0.953125,0.328125,0.03125
1629800463812,0.953125,0.3125,0.03125
1629800463843,0.953125,0.3125,0.046875
1629800463875,0.953125,0.3125,0.03125
1629800463906,0.953125,0.3125,0.03125
1629800463937,0.953125,0.3125,0.03125
1629800463968,0.953125,0.3125,0.03125
1629800464000,0.953125,0.3125,0.03125
1629800464031,0.953125,0.328125,0.03125
1629800464062,0.953125,0.3125,0.03125
1629800464093,0.953125,0.3125,0.03125
1629800464125,0.953125,0.3125,0.03125
1629800464156,0.953125,0.3125,0.03125
1629800464187,0.953125,0.3125,0.03125
1629800464218,0.953125,0.3125,0.046875
1629800464250,0.953125,0.3125,0.03125
1629800464281,0.953125,0.3125,0.03125
1629800464312,0.953125,0.3125,0.03125
1629800464343,0.953125,0.3125,0.03125
1629800464375,0.953125,0.3125,0.03125
1629800464406,0.953125,0.3125,0.046875
1629800464437,0.953125,0.3125,0.03125
1629800464468,0.953125,0.3125,0.046875
1629800464500,0.953125,0.3125,0.03125
1629800464531,0.953125,0.3125,0.03125
1629800464562,0.953125,0.3125,0.03125
1629800464593,0.953125,0.3125,0.03125
1629800464625,0.953125,0.3125,0.046875
1629800464656,0.953125,0.3125,0.046875
1629800464687,0.953125,0.3125,0.03125
1629800464718,0.953125,0.3125,0.046875
1629800464750,0.953125,0.3125,0.03125
1629800464781,0.953125,0.3125,0.03125
1629800464812,0.953125,0.3125,0.03125
1629800464843,0.953125,0.3125,0.03125
1629800464875,0.953125,0.3125,0.03125
1629800464906,0.953125,0.3125,0.03125
1629800464937,0.953125,0.3125,0.046875
1629800464968,0.953125,0.3125,0.03125
1629800465000,0.953125,0.3125,0.03125
1629800465031,0.953125,0.3125,0.03125
1629800465062,0.953125,0.3125,0.046875
1629800465093,0.953125,0.3125,0.046875
1629800465125,0.953125,0.3125,0.03125
1629800465156,0.953125,0.3125,0.03125
1629800465187,0.953125,0.3125,0.03125
1629800465218,0.953125,0.3125,0.03125
1629800465250,0.953125,0.3125,0.03125
1629800465281,0.953125,0.3125,0.03125
1629800465312,0.953125,0.3125,0.03125
1629800465343,0.953125,0.3125,0.03125
1629800465375,0.953125,0.3125,0.03125
1629800465406,0.953125,0.3125,0.046875
1629800465437,0.953125,0.3125,0.046875
1629800465468,0.953125,0.3125,0.03125
1629800465500,0.953125,0.3125,0.03125
1629800465531,0.953125,0.3125,0.03125
1629800465562,0.953125,0.3125,0.046875
1629800465593,0.953125,0.3125,0.046875
1629800465625,0.953125,0.3125,0.03125
1629800465656,0.953125,0.3125,0.03125
1629800465687,0.953125,0.3125,0.03125
1629800465718,0.953125,0.3125,0.03125
1629800465750,0.953125,0.3125,0.03125
1629800465781,0.953125,0.3125,0.03125
1629800465812,0.953125,0.3125,0.03125
1629800465843,0.96875,0.3125,0.03125
1629800465875,0.953125,0.3125,0.03125
1629800465906,0.953125,0.3125,0.03125
1629800465937,0.953125,0.3125,0.03125
1629800465968,0.953125,0.3125,0.03125
1629800466000,0.953125,0.3125,0.03125
1629800466031,0.953125,0.3125,0.03125
1629800466062,0.953125,0.3125,0.03125
1629800466093,0.953125,0.3125,0.03125
1629800466125,0.953125,0.3125,0.03125
1629800466156,0.953125,0.3125,0.03125
1629800466187,0.953125,0.3125,0.03125
1629800466218,0.953125,0.3125,0.046875
1629800466250,0.953125,0.3125,0.03125
1629800466281,0.953125,0.3125,0.03125
1629800466312,0.953125,0.3125,0.03125
1629800466343,0.953125,0.3125,0.03125
1629800466375,0.953125,0.3125,0.03125
1629800466406,0.953125,0.3125,0.03125
1629800466437,0.953125,0.328125,0.03125
1629800466468,0.953125,0.3125,0.03125
1629800466500,0.953125,0.328125,0.046875
1629800466531,0.96875,0.3125,0.03125
1629800466562,0.953125,0.328125,0.03125
1629800466593,0.953125,0.3125,0.03125
1629800466625,0.953125,0.3125,0.03125
1629800466656,0.953125,0.3125,0.03125
1629800466687,0.953125,0.3125,0.03125
1629800466718,0.953125,0.3125,0.03125
1629800466750,0.953125,0.3125,0.03125
1629800466781,0.953125,0.3125,0.03125
1629800466812,0.953125,0.3125,0.03125
1629800466843,0.953125,0.3125,0.046875
1629800466875,0.953125,0.328125,0.03125
1629800466906,0.953125,0.3125,0.03125
1629800466937,0.953125,0.3125,0.03125
1629800466968,0.953125,0.328125,0.03125
1629800467000,0.953125,0.3125,0.046875
1629800467031,0.953125,0.3125,0.03125
1629800467062,0.953125,0.3125,0.03125
1629800467093,0.953125,0.3125,0.03125
1629800467125,0.953125,0.3125,0.046875
1629800467156,0.953125,0.3125,0.03125
1629800467187,0.953125,0.3125,0.03125
1629800467218,0.953125,0.3125,0.03125
1629800467250,0.953125,0.3125,0.03125
1629800467281,0.953125,0.3125,0.03125
1629800467312,0.953125,0.328125,0.046875
1629800467343,0.953125,0.3125,0.046875
1629800467375,0.953125,0.328125,0.03125
1629800467406,0.953125,0.3125,0.03125
1629800467437,0.953125,0.3125,0.03125
1629800467468,0.953125,0.3125,0.046875
1629800467500,0.953125,0.3125,0.03125
1629800467531,0.953125,0.3125,0.03125
1629800467562,0.953125,0.3125,0.03125
1629800467593,0.953125,0.3125,0.03125
1629800467625,0.953125,0.3125,0.03125
1629800467656,0.953125,0.3125,0.03125
1629800467687,0.953125,0.3125,0.03125
1629800467718,0.953125,0.3125,0.03125
1629800467750,0.953125,0.3125,0.03125
1629800467781,0.953125,0.3125,0.03125
1629800467812,0.953125,0.3125,0.03125
1629800467843,0.953125,0.3125,0.03125
1629800467875,0.953125,0.3125,0.03125
1629800467906,0.953125,0.3125,0.03125
1629800467937,0.953125,0.3125,0.03125
1629800467968,0.953125,0.3125,0.03125
1629800468000,0.953125,0.328125,0.03125
1629800468031,0.953125,0.3125,0.03125
1629800468062,0.953125,0.3125,0.03125
1629800468093,0.953125,0.3125,0.03125
1629800468125,0.953125,0.3125,0.03125
1629800468156,0.953125,0.3125,0.03125
1629800468187,0.953125,0.3125,0.03125
1629800468218,0.953125,0.3125,0.03125
1629800468250,0.953125,0.3125,0.03125
1629800468281,0.953125,0.3125,0.03125
1629800468312,0.953125,0.3125,0.046875
1629800468343,0.953125,0.328125,0.03125
1629800468375,0.953125,0.3125,0.046875
1629800468406,0.953125,0.3125,0.03125
1629800468437,0.953125,0.3125,0.03125
1629800468468,0.953125,0.3125,0.03125
1629800468500,0.953125,0.3125,0.046875
1629800468531,0.953125,0.3125,0.03125
1629800468562,0.953125,0.3125,0.03125
1629800468593,0.953125,0.3125,0.03125
1629800468625,0.953125,0.328125,0.03125
1629800468656,0.953125,0.328125,0.03125
1629800468687,0.953125,0.3125,0.046875
1629800468718,0.953125,0.3125,0.03125
1629800468750,0.953125,0.3125,0.03125
1629800468781,0.953125,0.3125,0.03125
1629800468812,0.953125,0.3125,0.046875
1629800468843,0.953125,0.3125,0.03125
1629800468875,0.953125,0.328125,0.03125
1629800468906,0.953125,0.3125,0.03125
1629800468937,0.96875,0.3125,0.03125
1629800468968,0.96875,0.3125,0.03125
1629800469000,0.953125,0.3125,0.046875
1629800469031,0.953125,0.328125,0.03125
1629800469062,0.953125,0.328125,0.03125
1629800469093,0.953125,0.328125,0.03125
1629800469125,0.953125,0.3125,0.03125
1629800469156,0.953125,0.3125,0.03125
1629800469187,0.953125,0.3125,0.03125
1629800469218,0.953125,0.3125,0.03125
1629800469250,0.953125,0.328125,0.03125
1629800469281,0.953125,0.3125,0.046875
1629800469312,0.953125,0.328125,0.03125
1629800469343,0.953125,0.3125,0.046875
1629800469375,0.953125,0.3125,0.03125
1629800469406,0.953125,0.3125,0.03125
1629800469437,0.953125,0.3125,0.03125
1629800469468,0.953125,0.3125,0.03125
1629800469500,0.953125,0.3125,0.03125
1629800469531,0.96875,0.3125,0.03125
1629800469562,0.96875,0.328125,0.03125
1629800469593,0.953125,0.328125,0.03125
1629800469625,0.9375,0.328125,0.03125
1629800469656,0.953125,0.328125,0.03125
1629800469687,0.953125,0.328125,0.03125
1629800469718,0.953125,0.3125,0.03125
1629800469750,0.953125,0.3125,0.03125
1629800469781,0.953125,0.328125,0.046875
1629800469812,0.953125,0.3125,0.046875
1629800469843,0.953125,0.3125,0.046875
1629800469875,0.953125,0.3125,0.046875
1629800469906,0.953125,0.3125,0.046875
1629800469937,0.953125,0.3125,0.046875
1629800469968,0.953125,0.3125,0.046875
1629800470000,0.953125,0.3125,0.046875
1629800470031,0.953125,0.328125,0.046875
1629800470062,0.953125,0.328125,0.046875
1629800470093,0.953125,0.3125,0.046875
1629800470125,0.953125,0.328125,0.046875
1629800470156,0.953125,0.3125,0.046875
1629800470187,0.96875,0.328125,0.046875
1629800470218,0.953125,0.328125,0.046875
1629800470250,0.953125,0.328125,0.046875
1629800470281,0.953125,0.328125,0.046875
1629800470312,0.953125,0.328125,0.046875
1629800470343,0.953125,0.328125,0.03125
1629800470375,0.953125,0.328125,0.03125
1629800470406,0.953125,0.328125,0.03125
1629800470437,0.953125,0.328125,0.03125
1629800470468,0.953125,0.328125,0.03125
1629800470500,0.953125,0.328125,0.03125
1629800470531,0.953125,0.328125,0.03125
1629800470562,0.953125,0.328125,0.03125
1629800470593,0.953125,0.328125,0.03125
1629800470625,0.953125,0.328125,0.046875
1629800470656,0.953125,0.3125,0.046875
1629800470687,0.953125,0.3125,0.03125
1629800470718,0.953125,0.3125,0.046875
1629800470750,0.953125,0.3125,0.03125
1629800470781,0.953125,0.3125,0.046875
1629800470812,0.953125,0.3125,0.046875
1629800470843,0.96875,0.3125,0.046875
1629800470875,0.96875,0.328125,0.03125
1629800470906,0.9375,0.328125,0.03125
1629800470937,0.953125,0.328125,0.03125
1629800470968,0.953125,0.328125,0.03125
1629800471000,0.953125,0.328125,0.03125
1629800471031,0.953125,0.328125,0.03125
1629800471062,0.953125,0.328125,0.03125
1629800471093,0.953125,0.3125,0.046875
1629800471125,0.953125,0.3125,0.046875
1629800471156,0.953125,0.3125,0.046875
1629800471187,0.953125,0.3125,0.046875
1629800471218,0.953125,0.3125,0.046875
1629800471250,0.953125,0.3125,0.046875
1629800471281,0.953125,0.3125,0.046875
1629800471312,0.953125,0.3125,0.046875
1629800471343,0.953125,0.328125,0.046875
1629800471375,0.953125,0.328125,0.03125
1629800471406,0.953125,0.328125,0.03125
1629800471437,0.953125,0.328125,0.046875
1629800471468,0.953125,0.34375,0.03125
1629800471500,0.9375,0.34375,0.03125
1629800471531,0.953125,0.34375,0.03125
1629800471562,0.953125,0.328125,0.03125
1629800471593,0.953125,0.328125,0.03125
1629800471625,0.953125,0.328125,0.03125
1629800471656,0.953125,0.328125,0.046875
1629800471687,0.953125,0.3125,0.046875
1629800471718,0.953125,0.3125,0.046875
1629800471750,0.953125,0.328125,0.03125
1629800471781,0.953125,0.328125,0.03125
1629800471812,0.953125,0.328125,0.03125
1629800471843,0.953125,0.328125,0.03125
1629800471875,0.953125,0.328125,0.03125
1629800471906,0.9375,0.328125,0.046875
1629800471937,0.953125,0.328125,0.03125
1629800471968,0.953125,0.328125,0.03125
1629800472000,0.96875,0.328125,0.03125
1629800472031,0.953125,0.328125,0.046875
1629800472062,0.953125,0.328125,0.03125
1629800472093,0.953125,0.328125,0.046875
1629800472125,0.953125,0.328125,0.03125
1629800472156,0.953125,0.328125,0.03125
1629800472187,0.953125,0.328125,0.03125
1629800472218,0.953125,0.328125,0.03125
1629800472250,0.953125,0.328125,0.03125
1629800472281,0.953125,0.328125,0.03125
1629800472312,0.953125,0.328125,0.03125
1629800472343,0.953125,0.328125,0.03125
1629800472375,0.953125,0.328125,0.046875
1629800472406,0.953125,0.328125,0.03125
1629800472437,0.953125,0.328125,0.046875
1629800472468,0.953125,0.328125,0.046875
1629800472500,0.953125,0.328125,0.03125
1629800472531,0.953125,0.328125,0.03125
1629800472562,0.953125,0.328125,0.03125
1629800472593,0.953125,0.328125,0.03125
1629800472625,0.953125,0.328125,0.046875
1629800472656,0.9375,0.328125,0.03125
1629800472687,0.953125,0.328125,0.03125
1629800472718,0.953125,0.328125,0.03125
1629800472750,0.96875,0.328125,0.03125
1629800472781,0.953125,0.3125,0.03125
1629800472812,0.953125,0.328125,0.03125
1629800472843,0.953125,0.328125,0.03125
1629800472875,0.953125,0.328125,0.03125
1629800472906,0.953125,0.328125,0.03125
1629800472937,0.953125,0.328125,0.046875
1629800472968,0.953125,0.3125,0.03125
1629800473000,0.953125,0.3125,0.03125
1629800473031,0.953125,0.328125,0.03125
1629800473062,0.953125,0.328125,0.03125
1629800473093,0.953125,0.328125,0.03125
1629800473125,0.953125,0.328125,0.03125
1629800473156,0.953125,0.328125,0.03125
1629800473187,0.953125,0.328125,0.03125
1629800473218,0.953125,0.328125,0.03125
1629800473250,0.953125,0.3125,0.03125
1629800473281,0.953125,0.328125,0.03125
1629800473312,0.953125,0.328125,0.03125
1629800473343,0.953125,0.328125,0.03125
1629800473375,0.953125,0.328125,0.03125
1629800473406,0.953125,0.328125,0.03125
1629800473437,0.953125,0.328125,0.03125
1629800473468,0.953125,0.328125,0.03125
1629800473500,0.953125,0.328125,0.046875
1629800473531,0.953125,0.328125,0.03125
1629800473562,0.953125,0.3125,0.03125
1629800473593,0.953125,0.328125,0.03125
1629800473625,0.953125,0.328125,0.046875
1629800473656,0.953125,0.328125,0.03125
1629800473687,0.953125,0.328125,0.03125
1629800473718,0.953125,0.328125,0.03125
1629800473750,0.953125,0.328125,0.03125
1629800473781,0.953125,0.328125,0.03125
1629800473812,0.953125,0.3125,0.03125
1629800473843,0.953125,0.3125,0.046875
1629800473875,0.953125,0.328125,0.03125
1629800473906,0.953125,0.328125,0.03125
1629800473937,0.953125,0.328125,0.03125
1629800473968,0.953125,0.328125,0.03125
1629800474000,0.953125,0.328125,0.03125
1629800474031,0.953125,0.328125,0.03125
1629800474062,0.953125,0.328125,0.03125
1629800474093,0.953125,0.328125,0.046875
1629800474125,0.953125,0.328125,0.03125
1629800474156,0.953125,0.328125,0.03125
1629800474187,0.96875,0.328125,0.03125
1629800474218,0.9375,0.328125,0.03125
1629800474250,0.953125,0.3125,0.03125
1629800474281,0.96875,0.328125,0.046875
1629800474312,0.953125,0.328125,0.03125
1629800474343,0.953125,0.328125,0.03125
1629800474375,0.953125,0.3125,0.03125
1629800474406,0.953125,0.3125,0.03125
1629800474437,0.953125,0.328125,0.03125
1629800474468,0.953125,0.328125,0.03125
1629800474500,0.953125,0.328125,0.046875
1629800474531,0.96875,0.3125,0.03125
1629800474562,0.953125,0.3125,0.03125
1629800474593,0.953125,0.3125,0.046875
1629800474625,0.953125,0.3125,0.03125
1629800474656,0.953125,0.3125,0.03125
1629800474687,0.953125,0.3125,0.03125
1629800474718,0.953125,0.3125,0.03125
1629800474750,0.953125,0.3125,0.03125
1629800474781,0.953125,0.3125,0.03125
1629800474812,0.953125,0.328125,0.03125
1629800474843,0.953125,0.3125,0.03125
1629800474875,0.953125,0.328125,0.03125
1629800474906,0.953125,0.3125,0.046875
1629800474937,0.953125,0.3125,0.03125
1629800474968,0.953125,0.3125,0.03125
1629800475000,0.953125,0.3125,0.03125
1629800475031,0.953125,0.3125,0.03125
1629800475062,0.953125,0.3125,0.03125
1629800475093,0.953125,0.328125,0.03125
1629800475125,0.953125,0.3125,0.03125
1629800475156,0.953125,0.3125,0.03125
1629800475187,0.953125,0.3125,0.03125
1629800475218,0.953125,0.3125,0.046875
1629800475250,0.953125,0.328125,0.03125
1629800475281,0.953125,0.3125,0.046875
1629800475312,0.953125,0.328125,0.046875
1629800475343,0.953125,0.3125,0.046875
1629800475375,0.953125,0.328125,0.03125
1629800475406,0.953125,0.3125,0.03125
1629800475437,0.953125,0.328125,0.046875
1629800475468,0.953125,0.328125,0.046875
1629800475500,0.953125,0.328125,0.03125
1629800475531,0.953125,0.3125,0.046875
1629800475562,0.953125,0.328125,0.03125
1629800475593,0.953125,0.328125,0.03125
1629800475625,0.953125,0.328125,0.03125
1629800475656,0.953125,0.328125,0.03125
1629800475687,0.953125,0.328125,0.03125
1629800475718,0.953125,0.328125,0.03125
1629800475750,0.953125,0.328125,0.03125
