timestamp,ax,ay,az
1630497978000,0.671875,-0.390625,0.640625
1630497978031,0.671875,-0.40625,0.625
1630497978062,0.671875,-0.40625,0.625
1630497978093,0.671875,-0.40625,0.625
1630497978125,0.671875,-0.40625,0.640625
1630497978156,0.6875,-0.40625,0.625
1630497978187,0.65625,-0.390625,0.625
1630497978218,0.65625,-0.390625,0.625
1630497978250,0.65625,-0.390625,0.640625
1630497978281,0.6875,-0.390625,0.625
1630497978312,0.671875,-0.40625,0.625
1630497978343,0.671875,-0.40625,0.625
1630497978375,0.671875,-0.40625,0.625
1630497978406,0.671875,-0.40625,0.625
1630497978437,0.671875,-0.40625,0.625
1630497978468,0.671875,-0.40625,0.625
1630497978500,0.671875,-0.40625,0.625
1630497978531,0.671875,-0.40625,0.625
1630497978562,0.671875,-0.390625,0.625
1630497978593,0.671875,-0.390625,0.625
1630497978625,0.671875,-0.40625,0.625
1630497978656,0.671875,-0.390625,0.625
1630497978687,0.671875,-0.40625,0.625
1630497978718,0.671875,-0.40625,0.625
1630497978750,0.671875,-0.40625,0.625
1630497978781,0.671875,-0.390625,0.625
1630497978812,0.671875,-0.40625,0.625
1630497978843,0.671875,-0.40625,0.625
1630497978875,0.671875,-0.390625,0.625
1630497978906,0.671875,-0.40625,0.625
1630497978937,0.671875,-0.390625,0.625
1630497978968,0.671875,-0.390625,0.625
1630497979000,0.671875,-0.40625,0.625
1630497979031,0.671875,-0.390625,0.625
1630497979062,0.671875,-0.40625,0.625
1630497979093,0.671875,-0.40625,0.625
1630497979125,0.671875,-0.390625,0.625
1630497979156,0.671875,-0.390625,0.640625
1630497979187,0.671875,-0.390625,0.625
1630497979218,0.671875,-0.390625,0.625
1630497979250,0.671875,-0.40625,0.625
1630497979281,0.671875,-0.390625,0.625
1630497979312,0.671875,-0.390625,0.640625
1630497979343,0.671875,-0.390625,0.625
1630497979375,0.671875,-0.390625,0.625
1630497979406,0.671875,-0.390625,0.625
1630497979437,0.671875,-0.40625,0.625
1630497979468,0.65625,-0.390625,0.625
1630497979500,0.6875,-0.40625,0.625
1630497979531,0.671875,-0.390625,0.625
1630497979562,0.671875,-0.390625,0.640625
1630497979593,0.65625,-0.40625,0.625
1630497979625,0.671875,-0.390625,0.625
1630497979656,0.671875,-0.40625,0.625
1630497979687,0.671875,-0.390625,0.625
1630497979718,0.65625,-0.40625,0.625
1630497979750,0.671875,-0.40625,0.625
1630497979781,0.671875,-0.390625,0.625
1630497979812,0.671875,-0.40625,0.625
1630497979843,0.671875,-0.40625,0.625
1630497979875,0.671875,-0.390625,0.625
1630497979906,0.671875,-0.40625,0.625
1630497979937,0.671875,-0.40625,0.625
1630497979968,0.671875,-0.40625,0.625
1630497980000,0.671875,-0.40625,0.625
1630497980031,0.671875,-0.40625,0.625
1630497980062,0.671875,-0.40625,0.625
1630497980093,0.671875,-0.40625,0.625
1630497980125,0.671875,-0.390625,0.625
1630497980156,0.671875,-0.40625,0.625
1630497980187,0.671875,-0.40625,0.625
1630497980218,0.671875,-0.40625,0.625
1630497980250,0.671875,-0.40625,0.625
1630497980281,0.671875,-0.40625,0.625
1630497980312,0.671875,-0.390625,0.625
1630497980343,0.671875,-0.40625,0.625
1630497980375,0.671875,-0.40625,0.625
1630497980406,0.671875,-0.40625,0.625
1630497980437,0.671875,-0.40625,0.625
1630497980468,0.671875,-0.40625,0.625
1630497980500,0.671875,-0.40625,0.625
1630497980531,0.671875,-0.40625,0.625
1630497980562,0.671875,-0.390625,0.625
1630497980593,0.65625,-0.390625,0.640625
1630497980625,0.671875,-0.390625,0.640625
1630497980656,0.671875,-0.390625,0.640625
1630497980687,0.671875,-0.375,0.640625
1630497980718,0.671875,-0.390625,0.640625
1630497980750,0.671875,-0.390625,0.625
1630497980781,0.6875,-0.390625,0.625
1630497980812,0.6875,-0.390625,0.609375
1630497980843,0.6875,-0.375,0.625
1630497980875,0.6875,-0.375,0.625
1630497980906,0.6875,-0.375,0.625
1630497980937,0.6875,-0.375,0.625
1630497980968,0.671875,-0.375,0.625
1630497981000,0.671875,-0.359375,0.625
1630497981031,0.6875,-0.375,0.625
1630497981062,0.6875,-0.375,0.625
1630497981093,0.6875,-0.359375,0.640625
1630497981125,0.671875,-0.34375,0.625
1630497981156,0.6875,-0.359375,0.625
1630497981187,0.703125,-0.375,0.625
1630497981218,0.671875,-0.359375,0.640625
1630497981250,0.640625,-0.359375,0.65625
1630497981281,0.6875,-0.34375,0.65625
1630497981312,0.671875,-0.34375,0.65625
1630497981343,0.671875,-0.359375,0.65625
1630497981375,0.671875,-0.359375,0.671875
1630497981406,0.65625,-0.359375,0.65625
1630497981437,0.640625,-0.34375,0.65625
1630497981468,0.671875,-0.34375,0.6875
1630497981500,0.671875,-0.34375,0.6875
1630497981531,0.671875,-0.328125,0.671875
1630497981562,0.65625,-0.34375,0.671875
1630497981593,0.6875,-0.359375,0.703125
1630497981625,0.609375,-0.34375,0.6875
1630497981656,0.59375,-0.359375,0.671875
1630497981687,0.59375,-0.359375,0.65625
1630497981718,0.625,-0.359375,0.6875
1630497981750,0.71875,-0.375,0.75
1630497981781,0.578125,-0.421875,0.53125
1630497981812,0.96875,-0.4375,0.609375
1630497981843,0.640625,-0.234375,0.5
1630497981875,0.65625,-0.296875,0.453125
1630497981906,0.5625,-0.3125,0.515625
1630497981937,0.59375,-0.375,0.5625
1630497981968,0.609375,-0.390625,0.5625
1630497982000,0.71875,-0.40625,0.546875
1630497982031,0.9375,-0.390625,0.640625
1630497982062,0.890625,-0.390625,0.609375
1630497982093,0.78125,-0.359375,0.53125
1630497982125,0.84375,-0.359375,0.484375
1630497982156,0.96875,-0.296875,0.484375
1630497982187,0.5,-0.359375,0.703125
1630497982218,0.453125,-0.359375,0.75
1630497982250,0.484375,-0.4375,0.6875
1630497982281,0.671875,-0.40625,0.640625
1630497982312,0.59375,-0.4375,0.71875
1630497982343,0.453125,-0.421875,0.703125
1630497982375,0.515625,-0.421875,0.671875
1630497982406,0.6875,-0.421875,0.625
1630497982437,0.75,-0.40625,0.59375
1630497982468,0.78125,-0.375,0.578125
1630497982500,0.734375,-0.375,0.578125
1630497982531,0.734375,-0.375,0.59375
1630497982562,0.71875,-0.375,0.59375
1630497982593,0.71875,-0.375,0.59375
1630497982625,0.71875,-0.375,0.59375
1630497982656,0.71875,-0.359375,0.59375
1630497982687,0.71875,-0.375,0.609375
1630497982718,0.703125,-0.375,0.625
1630497982750,0.6875,-0.375,0.609375
1630497982781,0.6875,-0.390625,0.59375
1630497982812,0.6875,-0.390625,0.59375
1630497982843,0.6875,-0.390625,0.59375
1630497982875,0.6875,-0.390625,0.625
1630497982906,0.703125,-0.390625,0.609375
1630497982937,0.6875,-0.390625,0.59375
1630497982968,0.703125,-0.390625,0.59375
1630497983000,0.703125,-0.390625,0.609375
1630497983031,0.6875,-0.390625,0.609375
1630497983062,0.703125,-0.390625,0.59375
1630497983093,0.703125,-0.40625,0.578125
1630497983125,0.703125,-0.390625,0.609375
1630497983156,0.6875,-0.390625,0.609375
1630497983187,0.6875,-0.390625,0.59375
1630497983218,0.703125,-0.390625,0.59375
1630497983250,0.71875,-0.390625,0.609375
1630497983281,0.6875,-0.390625,0.609375
1630497983312,0.6875,-0.390625,0.609375
1630497983343,0.703125,-0.390625,0.59375
1630497983375,0.6875,-0.390625,0.609375
1630497983406,0.703125,-0.390625,0.609375
1630497983437,0.703125,-0.390625,0.609375
1630497983468,0.703125,-0.390625,0.609375
1630497983500,0.703125,-0.390625,0.59375
1630497983531,0.703125,-0.390625,0.59375
1630497983562,0.703125,-0.390625,0.59375
1630497983593,0.703125,-0.390625,0.59375
1630497983625,0.703125,-0.375,0.609375
1630497983656,0.703125,-0.390625,0.609375
1630497983687,0.703125,-0.390625,0.609375
1630497983718,0.703125,-0.390625,0.59375
1630497983750,0.703125,-0.390625,0.59375
1630497983781,0.703125,-0.375,0.59375
1630497983812,0.71875,-0.375,0.59375
1630497983843,0.71875,-0.390625,0.59375
1630497983875,0.71875,-0.390625,0.59375
1630497983906,0.703125,-0.390625,0.59375
1630497983937,0.703125,-0.390625,0.59375
1630497983968,0.703125,-0.390625,0.59375
1630497984000,0.71875,-0.390625,0.578125
1630497984031,0.703125,-0.375,0.578125
1630497984062,0.71875,-0.390625,0.59375
1630497984093,0.71875,-0.390625,0.578125
1630497984125,0.703125,-0.390625,0.59375
1630497984156,0.6875,-0.375,0.625
1630497984187,0.703125,-0.375,0.609375
1630497984218,0.703125,-0.375,0.59375
1630497984250,0.703125,-0.375,0.59375
1630497984281,0.703125,-0.390625,0.609375
1630497984312,0.703125,-0.375,0.59375
1630497984343,0.703125,-0.390625,0.59375
1630497984375,0.703125,-0.375,0.609375
1630497984406,0.71875,-0.390625,0.578125
1630497984437,0.734375,-0.375,0.5625
1630497984468,0.6875,-0.390625,0.640625
1630497984500,0.703125,-0.375,0.59375
1630497984531,0.6875,-0.375,0.609375
1630497984562,0.703125,-0.375,0.609375
1630497984593,0.703125,-0.375,0.59375
1630497984625,0.703125,-0.375,0.59375
1630497984656,0.6875,-0.375,0.609375
1630497984687,0.6875,-0.390625,0.609375
1630497984718,0.71875,-0.375,0.59375
1630497984750,0.71875,-0.390625,0.59375
1630497984781,0.703125,-0.390625,0.609375
1630497984812,0.71875,-0.390625,0.59375
1630497984843,0.703125,-0.390625,0.59375
1630497984875,0.703125,-0.390625,0.59375
1630497984906,0.703125,-0.375,0.59375
1630497984937,0.703125,-0.375,0.59375
1630497984968,0.703125,-0.390625,0.59375
1630497985000,0.71875,-0.375,0.59375
1630497985031,0.71875,-0.375,0.578125
1630497985062,0.71875,-0.390625,0.578125
1630497985093,0.71875,-0.390625,0.578125
1630497985125,0.703125,-0.390625,0.59375
1630497985156,0.703125,-0.390625,0.59375
1630497985187,0.71875,-0.375,0.578125
1630497985218,0.703125,-0.375,0.59375
1630497985250,0.703125,-0.390625,0.59375
1630497985281,0.71875,-0.390625,0.578125
1630497985312,0.671875,-0.390625,0.625
1630497985343,0.71875,-0.375,0.578125
1630497985375,0.71875,-0.390625,0.578125
1630497985406,0.71875,-0.390625,0.59375
1630497985437,0.6875,-0.375,0.609375
1630497985468,0.703125,-0.390625,0.59375
1630497985500,0.71875,-0.390625,0.59375
1630497985531,0.6875,-0.390625,0.609375
1630497985562,0.703125,-0.390625,0.59375
1630497985593,0.71875,-0.390625,0.59375
1630497985625,0.71875,-0.390625,0.578125
1630497985656,0.71875,-0.390625,0.578125
1630497985687,0.71875,-0.390625,0.578125
1630497985718,0.71875,-0.390625,0.578125
1630497985750,0.703125,-0.390625,0.578125
1630497985781,0.71875,-0.390625,0.578125
1630497985812,0.71875,-0.390625,0.59375
1630497985843,0.71875,-0.390625,0.578125
1630497985875,0.671875,-0.390625,0.578125
1630497985906,0.703125,-0.390625,0.578125
1630497985937,0.71875,-0.390625,0.578125
1630497985968,0.71875,-0.390625,0.578125
1630497986000,0.71875,-0.390625,0.578125
1630497986031,0.734375,-0.390625,0.578125
1630497986062,0.71875,-0.390625,0.578125
1630497986093,0.71875,-0.390625,0.578125
1630497986125,0.71875,-0.390625,0.578125
1630497986156,0.734375,-0.390625,0.578125
1630497986187,0.71875,-0.390625,0.578125
1630497986218,0.6875,-0.375,0.625
1630497986250,0.71875,-0.375,0.5625
1630497986281,0.71875,-0.390625,0.5625
1630497986312,0.6875,-0.375,0.609375
1630497986343,0.703125,-0.375,0.609375
1630497986375,0.703125,-0.375,0.59375
1630497986406,0.6875,-0.390625,0.609375
1630497986437,0.703125,-0.390625,0.609375
1630497986468,0.71875,-0.390625,0.578125
1630497986500,0.6875,-0.390625,0.609375
1630497986531,0.703125,-0.390625,0.59375
1630497986562,0.703125,-0.390625,0.59375
1630497986593,0.703125,-0.390625,0.578125
1630497986625,0.71875,-0.375,0.578125
1630497986656,0.703125,-0.390625,0.59375
1630497986687,0.703125,-0.390625,0.59375
1630497986718,0.71875,-0.375,0.59375
1630497986750,0.71875,-0.375,0.59375
1630497986781,0.71875,-0.390625,0.59375
1630497986812,0.671875,-0.390625,0.59375
1630497986843,0.75,-0.390625,0.578125
1630497986875,0.703125,-0.390625,0.578125
1630497986906,0.703125,-0.390625,0.59375
1630497986937,0.71875,-0.390625,0.59375
1630497986968,0.71875,-0.390625,0.578125
1630497987000,0.71875,-0.375,0.59375
1630497987031,0.71875,-0.390625,0.578125
1630497987062,0.71875,-0.390625,0.578125
1630497987093,0.71875,-0.390625,0.578125
1630497987125,0.71875,-0.375,0.578125
1630497987156,0.71875,-0.390625,0.59375
1630497987187,0.71875,-0.390625,0.578125
1630497987218,0.71875,-0.390625,0.578125
1630497987250,0.71875,-0.390625,0.59375
1630497987281,0.703125,-0.375,0.59375
1630497987312,0.734375,-0.390625,0.5625
1630497987343,0.734375,-0.390625,0.578125
1630497987375,0.703125,-0.390625,0.59375
1630497987406,0.71875,-0.390625,0.59375
1630497987437,0.703125,-0.375,0.59375
1630497987468,0.703125,-0.375,0.59375
1630497987500,0.71875,-0.375,0.59375
1630497987531,0.703125,-0.390625,0.59375
1630497987562,0.703125,-0.390625,0.578125
1630497987593,0.71875,-0.390625,0.59375
1630497987625,0.71875,-0.390625,0.578125
1630497987656,0.703125,-0.390625,0.59375
1630497987687,0.71875,-0.390625,0.59375
1630497987718,0.71875,-0.390625,0.578125
1630497987750,0.703125,-0.390625,0.578125
1630497987781,0.71875,-0.390625,0.59375
1630497987812,0.71875,-0.390625,0.578125
1630497987843,0.71875,-0.390625,0.578125
1630497987875,0.71875,-0.390625,0.59375
1630497987906,0.71875,-0.390625,0.59375
1630497987937,0.71875,-0.390625,0.578125
1630497987968,0.71875,-0.390625,0.59375
1630497988000,0.71875,-0.390625,0.578125
1630497988031,0.703125,-0.390625,0.578125
1630497988062,0.71875,-0.390625,0.578125
1630497988093,0.71875,-0.390625,0.578125
1630497988125,0.71875,-0.390625,0.578125
1630497988156,0.71875,-0.390625,0.578125
1630497988187,0.71875,-0.390625,0.578125
1630497988218,0.71875,-0.390625,0.578125
1630497988250,0.71875,-0.390625,0.578125
1630497988281,0.71875,-0.390625,0.578125
1630497988312,0.71875,-0.390625,0.578125
1630497988343,0.71875,-0.390625,0.578125
1630497988375,0.703125,-0.390625,0.578125
1630497988406,0.71875,-0.390625,0.578125
1630497988437,0.71875,-0.390625,0.578125
1630497988468,0.71875,-0.390625,0.578125
1630497988500,0.71875,-0.390625,0.578125
1630497988531,0.71875,-0.390625,0.59375
1630497988562,0.703125,-0.390625,0.59375
1630497988593,0.71875,-0.390625,0.578125
1630497988625,0.71875,-0.390625,0.578125
1630497988656,0.71875,-0.390625,0.578125
1630497988687,0.71875,-0.390625,0.578125
1630497988718,0.71875,-0.390625,0.578125
1630497988750,0.703125,-0.390625,0.59375
1630497988781,0.71875,-0.390625,0.578125
1630497988812,0.71875,-0.390625,0.578125
1630497988843,0.71875,-0.390625,0.578125
1630497988875,0.71875,-0.390625,0.578125
1630497988906,0.71875,-0.390625,0.578125
1630497988937,0.71875,-0.390625,0.59375
1630497988968,0.71875,-0.390625,0.578125
1630497989000,0.71875,-0.390625,0.59375
1630497989031,0.71875,-0.390625,0.578125
1630497989062,0.71875,-0.390625,0.578125
1630497989093,0.71875,-0.390625,0.578125
1630497989125,0.71875,-0.390625,0.59375
1630497989156,0.71875,-0.390625,0.59375
1630497989187,0.71875,-0.390625,0.578125
1630497989218,0.71875,-0.390625,0.578125
1630497989250,0.71875,-0.390625,0.578125
1630497989281,0.71875,-0.390625,0.578125
1630497989312,0.71875,-0.390625,0.578125
1630497989343,0.71875,-0.390625,0.578125
1630497989375,0.71875,-0.390625,0.578125
1630497989406,0.71875,-0.390625,0.59375
1630497989437,0.71875,-0.390625,0.578125
1630497989468,0.703125,-0.390625,0.59375
1630497989500,0.71875,-0.390625,0.59375
1630497989531,0.71875,-0.390625,0.59375
1630497989562,0.71875,-0.390625,0.578125
1630497989593,0.71875,-0.390625,0.578125
1630497989625,0.71875,-0.390625,0.578125
1630497989656,0.71875,-0.390625,0.578125
1630497989687,0.71875,-0.390625,0.578125
1630497989718,0.71875,-0.390625,0.578125
1630497989750,0.703125,-0.390625,0.578125
1630497989781,0.71875,-0.390625,0.578125
1630497989812,0.71875,-0.390625,0.59375
1630497989843,0.71875,-0.390625,0.578125
1630497989875,0.71875,-0.390625,0.578125
1630497989906,0.71875,-0.390625,0.578125
1630497989937,0.71875,-0.390625,0.578125
1630497989968,0.71875,-0.390625,0.578125
1630497990000,0.71875,-0.390625,0.578125
1630497990031,0.703125,-0.390625,0.578125
1630497990062,0.703125,-0.390625,0.59375
1630497990093,0.71875,-0.390625,0.59375
1630497990125,0.71875,-0.390625,0.59375
1630497990156,0.703125,-0.390625,0.578125
1630497990187,0.71875,-0.390625,0.59375
1630497990218,0.71875,-0.390625,0.578125
1630497990250,0.71875,-0.390625,0.578125
1630497990281,0.703125,-0.390625,0.59375
1630497990312,0.703125,-0.390625,0.578125
1630497990343,0.703125,-0.390625,0.59375
1630497990375,0.71875,-0.390625,0.59375
1630497990406,0.71875,-0.390625,0.578125
1630497990437,0.703125,-0.390625,0.59375
1630497990468,0.71875,-0.390625,0.59375
1630497990500,0.71875,-0.390625,0.578125
1630497990531,0.703125,-0.390625,0.578125
1630497990562,0.71875,-0.390625,0.578125
1630497990593,0.71875,-0.390625,0.59375
1630497990625,0.71875,-0.390625,0.578125
1630497990656,0.71875,-0.390625,0.578125
1630497990687,0.71875,-0.390625,0.578125
1630497990718,0.71875,-0.390625,0.59375
1630497990750,0.703125,-0.390625,0.578125
1630497990781,0.703125,-0.390625,0.578125
1630497990812,0.71875,-0.390625,0.578125
1630497990843,0.71875,-0.390625,0.578125
1630497990875,0.71875,-0.390625,0.578125
1630497990906,0.71875,-0.390625,0.578125
1630497990937,0.71875,-0.390625,0.578125
1630497990968,0.71875,-0.390625,0.578125
1630497991000,0.71875,-0.390625,0.578125
1630497991031,0.71875,-0.390625,0.578125
1630497991062,0.71875,-0.390625,0.578125
1630497991093,0.71875,-0.390625,0.578125
1630497991125,0.703125,-0.390625,0.578125
1630497991156,0.71875,-0.390625,0.578125
1630497991187,0.71875,-0.40625,0.578125
1630497991218,0.71875,-0.390625,0.578125
1630497991250,0.703125,-0.390625,0.59375
1630497991281,0.71875,-0.390625,0.578125
1630497991312,0.71875,-0.390625,0.59375
1630497991343,0.703125,-0.390625,0.578125
1630497991375,0.703125,-0.390625,0.578125
1630497991406,0.71875,-0.390625,0.578125
1630497991437,0.71875,-0.390625,0.578125
1630497991468,0.71875,-0.390625,0.578125
1630497991500,0.71875,-0.390625,0.578125
1630497991531,0.703125,-0.390625,0.578125
1630497991562,0.71875,-0.390625,0.578125
1630497991593,0.71875,-0.390625,0.578125
1630497991625,0.71875,-0.390625,0.578125
1630497991656,0.71875,-0.390625,0.59375
1630497991687,0.71875,-0.390625,0.578125
1630497991718,0.71875,-0.390625,0.578125
1630497991750,0.71875,-0.390625,0.578125
1630497991781,0.71875,-0.390625,0.578125
1630497991812,0.71875,-0.390625,0.578125
1630497991843,0.71875,-0.390625,0.578125
1630497991875,0.71875,-0.390625,0.59375
1630497991906,0.71875,-0.390625,0.59375
1630497991937,0.703125,-0.390625,0.578125
1630497991968,0.703125,-0.390625,0.578125
1630497992000,0.703125,-0.390625,0.578125
1630497992031,0.71875,-0.390625,0.578125
1630497992062,0.71875,-0.390625,0.578125
1630497992093,0.71875,-0.390625,0.59375
1630497992125,0.71875,-0.390625,0.578125
1630497992156,0.703125,-0.390625,0.578125
1630497992187,0.71875,-0.390625,0.59375
1630497992218,0.71875,-0.390625,0.578125
1630497992250,0.71875,-0.390625,0.59375
1630497992281,0.71875,-0.390625,0.59375
1630497992312,0.71875,-0.390625,0.578125
1630497992343,0.71875,-0.390625,0.578125
1630497992375,0.71875,-0.390625,0.578125
1630497992406,0.71875,-0.390625,0.59375
1630497992437,0.71875,-0.390625,0.578125
1630497992468,0.71875,-0.390625,0.59375
1630497992500,0.71875,-0.390625,0.578125
1630497992531,0.703125,-0.390625,0.59375
1630497992562,0.703125,-0.390625,0.59375
1630497992593,0.71875,-0.390625,0.59375
1630497992625,0.71875,-0.390625,0.578125
1630497992656,0.703125,-0.390625,0.59375
1630497992687,0.71875,-0.390625,0.59375
1630497992718,0.71875,-0.375,0.59375
1630497992750,0.703125,-0.390625,0.59375
1630497992781,0.71875,-0.390625,0.578125
1630497992812,0.71875,-0.390625,0.59375
1630497992843,0.71875,-0.390625,0.59375
1630497992875,0.71875,-0.390625,0.59375
1630497992906,0.71875,-0.390625,0.578125
1630497992937,0.703125,-0.390625,0.59375
1630497992968,0.71875,-0.390625,0.59375
1630497993000,0.71875,-0.390625,0.59375
1630497993031,0.71875,-0.390625,0.59375
1630497993062,0.703125,-0.390625,0.578125
1630497993093,0.703125,-0.390625,0.59375
1630497993125,0.71875,-0.390625,0.59375
1630497993156,0.71875,-0.390625,0.59375
1630497993187,0.703125,-0.390625,0.59375
1630497993218,0.703125,-0.390625,0.578125
1630497993250,0.71875,-0.390625,0.578125
1630497993281,0.71875,-0.390625,0.578125
1630497993312,0.71875,-0.390625,0.578125
1630497993343,0.71875,-0.390625,0.578125
1630497993375,0.71875,-0.390625,0.578125
1630497993406,0.71875,-0.390625,0.578125
1630497993437,0.71875,-0.390625,0.578125
1630497993468,0.71875,-0.390625,0.578125
1630497993500,0.71875,-0.390625,0.578125
1630497993531,0.703125,-0.390625,0.578125
1630497993562,0.703125,-0.390625,0.578125
1630497993593,0.71875,-0.390625,0.578125
1630497993625,0.71875,-0.390625,0.578125
1630497993656,0.71875,-0.390625,0.578125
1630497993687,0.703125,-0.390625,0.578125
1630497993718,0.71875,-0.390625,0.578125
1630497993750,0.71875,-0.390625,0.578125
1630497993781,0.71875,-0.390625,0.578125
1630497993812,0.703125,-0.390625,0.59375
1630497993843,0.71875,-0.390625,0.578125
1630497993875,0.71875,-0.390625,0.578125
1630497993906,0.703125,-0.390625,0.578125
1630497993937,0.703125,-0.390625,0.578125
1630497993968,0.703125,-0.390625,0.578125
1630497994000,0.703125,-0.390625,0.578125
1630497994031,0.703125,-0.390625,0.59375
1630497994062,0.71875,-0.390625,0.578125
1630497994093,0.703125,-0.390625,0.578125
1630497994125,0.703125,-0.390625,0.59375
1630497994156,0.71875,-0.390625,0.59375
1630497994187,0.71875,-0.390625,0.578125
1630497994218,0.703125,-0.390625,0.59375
1630497994250,0.71875,-0.390625,0.578125
1630497994281,0.71875,-0.390625,0.578125
1630497994312,0.71875,-0.390625,0.59375
1630497994343,0.71875,-0.390625,0.578125
1630497994375,0.703125,-0.390625,0.578125
1630497994406,0.71875,-0.390625,0.578125
1630497994437,0.71875,-0.390625,0.578125
1630497994468,0.703125,-0.390625,0.578125
1630497994500,0.703125,-0.390625,0.578125
1630497994531,0.703125,-0.390625,0.59375
1630497994562,0.703125,-0.390625,0.578125
1630497994593,0.71875,-0.390625,0.59375
1630497994625,0.703125,-0.390625,0.59375
1630497994656,0.71875,-0.390625,0.59375
1630497994687,0.703125,-0.390625,0.59375
1630497994718,0.71875,-0.390625,0.59375
1630497994750,0.703125,-0.390625,0.59375
1630497994781,0.71875,-0.390625,0.59375
1630497994812,0.703125,-0.390625,0.59375
1630497994843,0.703125,-0.390625,0.578125
1630497994875,0.703125,-0.390625,0.578125
1630497994906,0.71875,-0.390625,0.578125
1630497994937,0.71875,-0.390625,0.59375
1630497994968,0.703125,-0.390625,0.578125
1630497995000,0.703125,-0.390625,0.59375
1630497995031,0.71875,-0.390625,0.59375
1630497995062,0.71875,-0.390625,0.59375
1630497995093,0.703125,-0.390625,0.59375
1630497995125,0.703125,-0.390625,0.578125
1630497995156,0.703125,-0.390625,0.578125
1630497995187,0.703125,-0.390625,0.578125
1630497995218,0.71875,-0.390625,0.59375
1630497995250,0.703125,-0.390625,0.578125
1630497995281,0.703125,-0.390625,0.59375
1630497995312,0.71875,-0.390625,0.59375
1630497995343,0.71875,-0.390625,0.578125
1630497995375,0.71875,-0.390625,0.578125
1630497995406,0.71875,-0.390625,0.59375
1630497995437,0.703125,-0.390625,0.578125
1630497995468,0.703125,-0.390625,0.578125
1630497995500,0.703125,-0.390625,0.578125
1630497995531,0.71875,-0.390625,0.578125
1630497995562,0.71875,-0.390625,0.578125
1630497995593,0.703125,-0.390625,0.59375
1630497995625,0.71875,-0.390625,0.59375
1630497995656,0.71875,-0.390625,0.59375
1630497995687,0.703125,-0.390625,0.59375
1630497995718,0.703125,-0.390625,0.578125
1630497995750,0.703125,-0.390625,0.578125
1630497995781,0.71875,-0.390625,0.578125
1630497995812,0.71875,-0.390625,0.578125
1630497995843,0.703125,-0.390625,0.59375
1630497995875,0.703125,-0.390625,0.59375
1630497995906,0.71875,-0.390625,0.578125
1630497995937,0.71875,-0.390625,0.578125
1630497995968,0.71875,-0.390625,0.578125
1630497996000,0.703125,-0.390625,0.578125
1630497996031,0.71875,-0.390625,0.578125
1630497996062,0.703125,-0.390625,0.578125
1630497996093,0.703125,-0.390625,0.578125
1630497996125,0.71875,-0.390625,0.578125
1630497996156,0.703125,-0.390625,0.59375
1630497996187,0.703125,-0.390625,0.578125
1630497996218,0.703125,-0.390625,0.578125
1630497996250,0.71875,-0.390625,0.59375
1630497996281,0.71875,-0.390625,0.578125
1630497996312,0.703125,-0.390625,0.578125
1630497996343,0.703125,-0.390625,0.578125
1630497996375,0.703125,-0.390625,0.578125
1630497996406,0.703125,-0.390625,0.578125
1630497996437,0.71875,-0.390625,0.578125
1630497996468,0.71875,-0.390625,0.59375
1630497996500,0.703125,-0.390625,0.59375
1630497996531,0.71875,-0.390625,0.59375
1630497996562,0.71875,-0.390625,0.578125
1630497996593,0.703125,-0.390625,0.59375
1630497996625,0.71875,-0.390625,0.578125
1630497996656,0.71875,-0.390625,0.59375
1630497996687,0.71875,-0.390625,0.578125
1630497996718,0.703125,-0.390625,0.59375
1630497996750,0.71875,-0.390625,0.59375
1630497996781,0.71875,-0.390625,0.578125
1630497996812,0.703125,-0.390625,0.59375
1630497996843,0.71875,-0.390625,0.578125
1630497996875,0.71875,-0.390625,0.578125
1630497996906,0.703125,-0.390625,0.578125
1630497996937,0.703125,-0.390625,0.578125
1630497996968,0.703125,-0.390625,0.59375
1630497997000,0.703125,-0.390625,0.578125
1630497997031,0.71875,-0.390625,0.59375
1630497997062,0.71875,-0.390625,0.59375
1630497997093,0.703125,-0.390625,0.578125
1630497997125,0.71875,-0.390625,0.578125
1630497997156,0.703125,-0.390625,0.59375
1630497997187,0.71875,-0.390625,0.578125
1630497997218,0.71875,-0.390625,0.59375
1630497997250,0.71875,-0.390625,0.59375
1630497997281,0.703125,-0.390625,0.59375
1630497997312,0.71875,-0.390625,0.59375
1630497997343,0.703125,-0.390625,0.59375
1630497997375,0.71875,-0.390625,0.59375
1630497997406,0.71875,-0.390625,0.578125
1630497997437,0.71875,-0.390625,0.59375
1630497997468,0.71875,-0.390625,0.59375
1630497997500,0.703125,-0.390625,0.59375
1630497997531,0.71875,-0.390625,0.578125
1630497997562,0.71875,-0.390625,0.578125
1630497997593,0.703125,-0.390625,0.578125
1630497997625,0.71875,-0.390625,0.59375
1630497997656,0.703125,-0.390625,0.59375
1630497997687,0.703125,-0.390625,0.578125
1630497997718,0.71875,-0.390625,0.578125
1630497997750,0.703125,-0.390625,0.578125
1630497997781,0.71875,-0.390625,0.578125
1630497997812,0.703125,-0.390625,0.59375
1630497997843,0.703125,-0.390625,0.578125
1630497997875,0.703125,-0.390625,0.59375
1630497997906,0.71875,-0.390625,0.578125
1630497997937,0.71875,-0.390625,0.578125
1630497997968,0.71875,-0.390625,0.578125
1630497998000,0.71875,-0.390625,0.59375
1630497998031,0.71875,-0.390625,0.59375
1630497998062,0.703125,-0.390625,0.59375
1630497998093,0.703125,-0.390625,0.578125
1630497998125,0.703125,-0.390625,0.578125
1630497998156,0.71875,-0.390625,0.578125
1630497998187,0.703125,-0.390625,0.578125
1630497998218,0.71875,-0.390625,0.59375
1630497998250,0.703125,-0.390625,0.59375
1630497998281,0.703125,-0.390625,0.59375
1630497998312,0.71875,-0.390625,0.59375
1630497998343,0.703125,-0.390625,0.578125
1630497998375,0.703125,-0.390625,0.578125
1630497998406,0.71875,-0.390625,0.578125
1630497998437,0.703125,-0.390625,0.578125
1630497998468,0.703125,-0.390625,0.578125
1630497998500,0.71875,-0.390625,0.578125
1630497998531,0.703125,-0.390625,0.578125
1630497998562,0.703125,-0.390625,0.578125
1630497998593,0.71875,-0.390625,0.59375
1630497998625,0.71875,-0.40625,0.578125
1630497998656,0.765625,-0.375,0.578125
1630497998687,0.703125,-0.375,0.59375
1630497998718,0.6875,-0.390625,0.609375
1630497998750,0.640625,-0.40625,0.609375
1630497998781,0.625,-0.421875,0.625
1630497998812,0.640625,-0.40625,0.625
1630497998843,0.671875,-0.40625,0.625
1630497998875,0.6875,-0.421875,0.609375
1630497998906,0.6875,-0.421875,0.59375
1630497998937,0.703125,-0.40625,0.59375
1630497998968,0.703125,-0.40625,0.59375
1630497999000,0.703125,-0.40625,0.59375
1630497999031,0.703125,-0.40625,0.59375
1630497999062,0.703125,-0.40625,0.59375
1630497999093,0.703125,-0.40625,0.59375
1630497999125,0.703125,-0.40625,0.59375
1630497999156,0.6875,-0.40625,0.59375
1630497999187,0.703125,-0.40625,0.59375
1630497999218,0.703125,-0.40625,0.59375
1630497999250,0.6875,-0.390625,0.59375
1630497999281,0.6875,-0.390625,0.609375
1630497999312,0.6875,-0.40625,0.59375
1630497999343,0.6875,-0.40625,0.59375
1630497999375,0.703125,-0.40625,0.59375
1630497999406,0.6875,-0.40625,0.59375
1630497999437,0.6875,-0.40625,0.59375
1630497999468,0.6875,-0.40625,0.609375
1630497999500,0.6875,-0.40625,0.609375
1630497999531,0.6875,-0.40625,0.609375
1630497999562,0.6875,-0.40625,0.59375
1630497999593,0.6875,-0.40625,0.59375
1630497999625,0.703125,-0.40625,0.609375
1630497999656,0.6875,-0.40625,0.609375
1630497999687,0.6875,-0.40625,0.59375
1630497999718,0.6875,-0.40625,0.59375
1630497999750,0.6875,-0.40625,0.59375
1630497999781,0.6875,-0.40625,0.59375
1630497999812,0.703125,-0.40625,0.59375
1630497999843,0.703125,-0.40625,0.609375
1630497999875,0.6875,-0.390625,0.59375
1630497999906,0.6875,-0.390625,0.59375
1630497999937,0.6875,-0.40625,0.59375
1630497999968,0.6875,-0.390625,0.609375
1630498000000,0.6875,-0.40625,0.59375
1630498000031,0.703125,-0.40625,0.59375
1630498000062,0.703125,-0.390625,0.59375
1630498000093,0.703125,-0.390625,0.59375
1630498000125,0.703125,-0.390625,0.609375
1630498000156,0.703125,-0.390625,0.59375
1630498000187,0.703125,-0.390625,0.59375
1630498000218,0.703125,-0.40625,0.59375
1630498000250,0.703125,-0.390625,0.59375
1630498000281,0.703125,-0.390625,0.59375
1630498000312,0.703125,-0.390625,0.59375
1630498000343,0.703125,-0.390625,0.59375
1630498000375,0.703125,-0.390625,0.59375
1630498000406,0.6875,-0.40625,0.59375
1630498000437,0.703125,-0.390625,0.59375
1630498000468,0.703125,-0.390625,0.59375
1630498000500,0.6875,-0.390625,0.59375
1630498000531,0.703125,-0.390625,0.59375
1630498000562,0.703125,-0.390625,0.59375
1630498000593,0.703125,-0.390625,0.59375
1630498000625,0.703125,-0.390625,0.59375
1630498000656,0.703125,-0.390625,0.59375
1630498000687,0.703125,-0.390625,0.59375
1630498000718,0.703125,-0.390625,0.59375
1630498000750,0.703125,-0.390625,0.59375
1630498000781,0.703125,-0.390625,0.59375
1630498000812,0.703125,-0.40625,0.59375
1630498000843,0.703125,-0.390625,0.59375
1630498000875,0.703125,-0.390625,0.59375
1630498000906,0.703125,-0.390625,0.59375
1630498000937,0.703125,-0.390625,0.59375
1630498000968,0.703125,-0.390625,0.59375
1630498001000,0.703125,-0.390625,0.59375
1630498001031,0.6875,-0.390625,0.59375
1630498001062,0.703125,-0.390625,0.59375
1630498001093,0.703125,-0.390625,0.59375
1630498001125,0.703125,-0.390625,0.59375
1630498001156,0.703125,-0.390625,0.59375
1630498001187,0.703125,-0.390625,0.59375
1630498001218,0.703125,-0.390625,0.59375
1630498001250,0.703125,-0.390625,0.59375
1630498001281,0.703125,-0.390625,0.59375
1630498001312,0.703125,-0.390625,0.59375
1630498001343,0.703125,-0.390625,0.59375
1630498001375,0.703125,-0.390625,0.59375
1630498001406,0.703125,-0.390625,0.609375
1630498001437,0.703125,-0.390625,0.59375
1630498001468,0.703125,-0.390625,0.59375
1630498001500,0.703125,-0.390625,0.59375
1630498001531,0.703125,-0.390625,0.59375
1630498001562,0.703125,-0.390625,0.59375
1630498001593,0.703125,-0.390625,0.59375
1630498001625,0.703125,-0.390625,0.59375
1630498001656,0.703125,-0.390625,0.59375
1630498001687,0.703125,-0.390625,0.59375
1630498001718,0.703125,-0.390625,0.59375
1630498001750,0.703125,-0.390625,0.59375
1630498001781,0.703125,-0.390625,0.59375
1630498001812,0.703125,-0.390625,0.59375
1630498001843,0.703125,-0.390625,0.59375
1630498001875,0.703125,-0.390625,0.59375
1630498001906,0.703125,-0.390625,0.59375
1630498001937,0.703125,-0.390625,0.59375
1630498001968,0.703125,-0.390625,0.59375
1630498002000,0.703125,-0.390625,0.59375
1630498002031,0.703125,-0.390625,0.59375
1630498002062,0.703125,-0.390625,0.59375
1630498002093,0.703125,-0.390625,0.59375
1630498002125,0.703125,-0.390625,0.59375
1630498002156,0.6875,-0.390625,0.59375
1630498002187,0.703125,-0.390625,0.59375
1630498002218,0.703125,-0.390625,0.59375
1630498002250,0.703125,-0.390625,0.59375
1630498002281,0.703125,-0.390625,0.59375
1630498002312,0.703125,-0.40625,0.59375
1630498002343,0.703125,-0.390625,0.59375
1630498002375,0.703125,-0.40625,0.59375
1630498002406,0.703125,-0.40625,0.59375
1630498002437,0.703125,-0.40625,0.59375
1630498002468,0.703125,-0.390625,0.59375
1630498002500,0.703125,-0.40625,0.59375
1630498002531,0.703125,-0.390625,0.59375
1630498002562,0.703125,-0.40625,0.59375
1630498002593,0.703125,-0.390625,0.59375
1630498002625,0.703125,-0.390625,0.59375
1630498002656,0.703125,-0.40625,0.59375
1630498002687,0.703125,-0.390625,0.59375
1630498002718,0.703125,-0.390625,0.59375
1630498002750,0.703125,-0.40625,0.59375
1630498002781,0.703125,-0.390625,0.59375
1630498002812,0.703125,-0.390625,0.59375
1630498002843,0.703125,-0.390625,0.59375
1630498002875,0.703125,-0.390625,0.59375
1630498002906,0.703125,-0.390625,0.59375
1630498002937,0.703125,-0.390625,0.59375
1630498002968,0.703125,-0.390625,0.59375
1630498003000,0.703125,-0.390625,0.59375
1630498003031,0.703125,-0.390625,0.59375
1630498003062,0.703125,-0.390625,0.59375
1630498003093,0.703125,-0.390625,0.59375
1630498003125,0.703125,-0.390625,0.59375
1630498003156,0.703125,-0.390625,0.59375
1630498003187,0.703125,-0.390625,0.59375
1630498003218,0.703125,-0.390625,0.59375
1630498003250,0.703125,-0.390625,0.59375
1630498003281,0.703125,-0.390625,0.59375
1630498003312,0.703125,-0.390625,0.59375
1630498003343,0.703125,-0.390625,0.59375
1630498003375,0.703125,-0.390625,0.59375
1630498003406,0.703125,-0.390625,0.59375
1630498003437,0.703125,-0.390625,0.59375
1630498003468,0.703125,-0.390625,0.59375
1630498003500,0.703125,-0.390625,0.59375
1630498003531,0.703125,-0.390625,0.59375
1630498003562,0.703125,-0.390625,0.59375
1630498003593,0.6875,-0.390625,0.59375
1630498003625,0.703125,-0.390625,0.59375
1630498003656,0.703125,-0.390625,0.59375
1630498003687,0.703125,-0.390625,0.59375
1630498003718,0.703125,-0.390625,0.59375
1630498003750,0.703125,-0.40625,0.59375
1630498003781,0.703125,-0.390625,0.59375
1630498003812,0.703125,-0.390625,0.59375
1630498003843,0.703125,-0.40625,0.59375
1630498003875,0.703125,-0.390625,0.59375
1630498003906,0.703125,-0.390625,0.59375
1630498003937,0.703125,-0.390625,0.59375
1630498003968,0.703125,-0.390625,0.59375
1630498004000,0.703125,-0.390625,0.59375
1630498004031,0.703125,-0.40625,0.59375
1630498004062,0.703125,-0.40625,0.59375
1630498004093,0.703125,-0.390625,0.59375
1630498004125,0.703125,-0.390625,0.59375
1630498004156,0.703125,-0.390625,0.59375
1630498004187,0.703125,-0.390625,0.59375
1630498004218,0.703125,-0.390625,0.59375
1630498004250,0.703125,-0.40625,0.59375
1630498004281,0.703125,-0.390625,0.59375
1630498004312,0.703125,-0.390625,0.59375
1630498004343,0.703125,-0.390625,0.59375
1630498004375,0.703125,-0.390625,0.59375
1630498004406,0.703125,-0.390625,0.59375
1630498004437,0.6875,-0.390625,0.59375
1630498004468,0.703125,-0.40625,0.59375
1630498004500,0.703125,-0.390625,0.59375
1630498004531,0.703125,-0.390625,0.59375
1630498004562,0.703125,-0.390625,0.59375
1630498004593,0.703125,-0.390625,0.59375
1630498004625,0.703125,-0.390625,0.59375
1630498004656,0.703125,-0.390625,0.59375
1630498004687,0.703125,-0.390625,0.59375
1630498004718,0.703125,-0.390625,0.59375
1630498004750,0.703125,-0.40625,0.59375
1630498004781,0.703125,-0.390625,0.59375
1630498004812,0.703125,-0.390625,0.59375
1630498004843,0.703125,-0.390625,0.59375
1630498004875,0.703125,-0.390625,0.59375
1630498004906,0.6875,-0.390625,0.59375
1630498004937,0.703125,-0.390625,0.59375
1630498004968,0.703125,-0.390625,0.59375
1630498005000,0.703125,-0.40625,0.59375
1630498005031,0.703125,-0.390625,0.59375
1630498005062,0.703125,-0.390625,0.59375
1630498005093,0.703125,-0.390625,0.59375
1630498005125,0.703125,-0.390625,0.59375
1630498005156,0.703125,-0.390625,0.59375
1630498005187,0.703125,-0.390625,0.59375
1630498005218,0.703125,-0.40625,0.59375
1630498005250,0.703125,-0.390625,0.59375
1630498005281,0.6875,-0.40625,0.59375
1630498005312,0.703125,-0.390625,0.59375
1630498005343,0.703125,-0.40625,0.59375
1630498005375,0.703125,-0.390625,0.59375
1630498005406,0.703125,-0.40625,0.59375
1630498005437,0.703125,-0.390625,0.59375
1630498005468,0.703125,-0.390625,0.59375
1630498005500,0.703125,-0.390625,0.59375
1630498005531,0.703125,-0.390625,0.59375
1630498005562,0.703125,-0.390625,0.59375
1630498005593,0.703125,-0.390625,0.59375
1630498005625,0.703125,-0.390625,0.59375
1630498005656,0.703125,-0.390625,0.59375
1630498005687,0.703125,-0.390625,0.59375
1630498005718,0.703125,-0.390625,0.59375
1630498005750,0.703125,-0.390625,0.59375
1630498005781,0.703125,-0.390625,0.59375
1630498005812,0.703125,-0.390625,0.59375
1630498005843,0.703125,-0.390625,0.59375
1630498005875,0.703125,-0.390625,0.59375
1630498005906,0.703125,-0.390625,0.59375
1630498005937,0.703125,-0.390625,0.59375
1630498005968,0.703125,-0.390625,0.59375
1630498006000,0.703125,-0.390625,0.59375
1630498006031,0.703125,-0.390625,0.59375
1630498006062,0.703125,-0.390625,0.59375
1630498006093,0.703125,-0.390625,0.59375
1630498006125,0.703125,-0.390625,0.59375
1630498006156,0.703125,-0.390625,0.59375
1630498006187,0.703125,-0.390625,0.59375
1630498006218,0.703125,-0.390625,0.59375
1630498006250,0.703125,-0.390625,0.59375
1630498006281,0.703125,-0.390625,0.59375
1630498006312,0.703125,-0.390625,0.59375
1630498006343,0.703125,-0.390625,0.59375
1630498006375,0.703125,-0.390625,0.59375
1630498006406,0.703125,-0.390625,0.59375
1630498006437,0.703125,-0.390625,0.59375
1630498006468,0.703125,-0.390625,0.59375
1630498006500,0.703125,-0.390625,0.59375
1630498006531,0.703125,-0.390625,0.59375
1630498006562,0.703125,-0.390625,0.609375
1630498006593,0.703125,-0.390625,0.59375
1630498006625,0.703125,-0.390625,0.59375
1630498006656,0.703125,-0.390625,0.59375
1630498006687,0.703125,-0.390625,0.59375
1630498006718,0.703125,-0.390625,0.59375
1630498006750,0.703125,-0.390625,0.59375
1630498006781,0.703125,-0.390625,0.59375
1630498006812,0.703125,-0.390625,0.59375
1630498006843,0.703125,-0.390625,0.609375
1630498006875,0.703125,-0.390625,0.59375
1630498006906,0.703125,-0.390625,0.59375
1630498006937,0.703125,-0.390625,0.59375
1630498006968,0.703125,-0.390625,0.59375
1630498007000,0.703125,-0.390625,0.59375
1630498007031,0.703125,-0.390625,0.59375
1630498007062,0.703125,-0.390625,0.59375
1630498007093,0.703125,-0.390625,0.59375
1630498007125,0.703125,-0.390625,0.59375
1630498007156,0.703125,-0.390625,0.59375
1630498007187,0.703125,-0.40625,0.59375
1630498007218,0.703125,-0.390625,0.59375
1630498007250,0.703125,-0.390625,0.59375
1630498007281,0.703125,-0.390625,0.59375
1630498007312,0.703125,-0.390625,0.59375
1630498007343,0.703125,-0.40625,0.59375
1630498007375,0.703125,-0.40625,0.59375
1630498007406,0.703125,-0.390625,0.59375
1630498007437,0.703125,-0.40625,0.59375
1630498007468,0.703125,-0.390625,0.59375
1630498007500,0.703125,-0.390625,0.59375
1630498007531,0.703125,-0.40625,0.59375
1630498007562,0.703125,-0.40625,0.59375
1630498007593,0.703125,-0.40625,0.59375
1630498007625,0.703125,-0.40625,0.59375
1630498007656,0.703125,-0.40625,0.59375
1630498007687,0.703125,-0.40625,0.59375
1630498007718,0.703125,-0.40625,0.59375
1630498007750,0.703125,-0.390625,0.59375
1630498007781,0.703125,-0.40625,0.59375
1630498007812,0.703125,-0.390625,0.59375
1630498007843,0.703125,-0.390625,0.59375
1630498007875,0.703125,-0.390625,0.59375
1630498007906,0.71875,-0.40625,0.59375
1630498007937,0.703125,-0.390625,0.59375
1630498007968,0.703125,-0.390625,0.59375
1630498008000,0.703125,-0.390625,0.59375
1630498008031,0.703125,-0.40625,0.59375
1630498008062,0.703125,-0.390625,0.59375
1630498008093,0.703125,-0.40625,0.59375
1630498008125,0.703125,-0.40625,0.59375
1630498008156,0.703125,-0.390625,0.59375
1630498008187,0.703125,-0.40625,0.59375
1630498008218,0.703125,-0.390625,0.59375
1630498008250,0.703125,-0.390625,0.59375
1630498008281,0.703125,-0.390625,0.59375
1630498008312,0.703125,-0.390625,0.59375
1630498008343,0.703125,-0.390625,0.59375
1630498008375,0.703125,-0.390625,0.59375
1630498008406,0.703125,-0.40625,0.59375
1630498008437,0.703125,-0.40625,0.59375
1630498008468,0.703125,-0.390625,0.59375
1630498008500,0.703125,-0.390625,0.59375
1630498008531,0.703125,-0.390625,0.59375
1630498008562,0.703125,-0.390625,0.59375
1630498008593,0.703125,-0.390625,0.59375
1630498008625,0.703125,-0.390625,0.59375
1630498008656,0.703125,-0.390625,0.59375
1630498008687,0.703125,-0.390625,0.59375
1630498008718,0.703125,-0.390625,0.59375
1630498008750,0.703125,-0.390625,0.59375
1630498008781,0.703125,-0.390625,0.59375
1630498008812,0.703125,-0.390625,0.59375
1630498008843,0.703125,-0.390625,0.59375
1630498008875,0.703125,-0.390625,0.59375
1630498008906,0.703125,-0.390625,0.59375
1630498008937,0.703125,-0.390625,0.59375
1630498008968,0.703125,-0.390625,0.59375
1630498009000,0.703125,-0.390625,0.59375
1630498009031,0.703125,-0.390625,0.59375
1630498009062,0.703125,-0.390625,0.59375
1630498009093,0.703125,-0.390625,0.59375
1630498009125,0.703125,-0.390625,0.59375
1630498009156,0.703125,-0.390625,0.59375
1630498009187,0.703125,-0.390625,0.59375
1630498009218,0.703125,-0.390625,0.59375
1630498009250,0.703125,-0.390625,0.59375
1630498009281,0.703125,-0.390625,0.59375
1630498009312,0.703125,-0.390625,0.59375
1630498009343,0.703125,-0.390625,0.59375
1630498009375,0.703125,-0.390625,0.59375
1630498009406,0.703125,-0.390625,0.59375
1630498009437,0.703125,-0.390625,0.59375
1630498009468,0.703125,-0.390625,0.59375
1630498009500,0.703125,-0.390625,0.59375
1630498009531,0.703125,-0.40625,0.59375
1630498009562,0.703125,-0.40625,0.59375
1630498009593,0.703125,-0.390625,0.59375
1630498009625,0.703125,-0.40625,0.59375
1630498009656,0.703125,-0.40625,0.59375
1630498009687,0.703125,-0.40625,0.59375
1630498009718,0.703125,-0.390625,0.59375
1630498009750,0.703125,-0.40625,0.59375
1630498009781,0.703125,-0.40625,0.59375
1630498009812,0.703125,-0.40625,0.59375
1630498009843,0.703125,-0.40625,0.59375
1630498009875,0.703125,-0.390625,0.59375
1630498009906,0.703125,-0.40625,0.59375
1630498009937,0.703125,-0.40625,0.59375
1630498009968,0.703125,-0.40625,0.59375
1630498010000,0.703125,-0.40625,0.59375
1630498010031,0.703125,-0.40625,0.59375
1630498010062,0.703125,-0.390625,0.59375
1630498010093,0.703125,-0.40625,0.59375
1630498010125,0.703125,-0.390625,0.59375
1630498010156,0.703125,-0.40625,0.59375
1630498010187,0.703125,-0.40625,0.59375
1630498010218,0.703125,-0.390625,0.59375
1630498010250,0.703125,-0.390625,0.59375
1630498010281,0.703125,-0.40625,0.59375
1630498010312,0.703125,-0.390625,0.59375
1630498010343,0.703125,-0.390625,0.59375
1630498010375,0.703125,-0.390625,0.59375
1630498010406,0.703125,-0.390625,0.59375
1630498010437,0.703125,-0.390625,0.59375
1630498010468,0.703125,-0.390625,0.59375
1630498010500,0.703125,-0.390625,0.59375
1630498010531,0.703125,-0.390625,0.59375
1630498010562,0.703125,-0.390625,0.59375
1630498010593,0.703125,-0.390625,0.59375
1630498010625,0.703125,-0.390625,0.59375
1630498010656,0.703125,-0.390625,0.59375
1630498010687,0.703125,-0.390625,0.59375
1630498010718,0.703125,-0.390625,0.59375
1630498010750,0.703125,-0.40625,0.59375
1630498010781,0.703125,-0.390625,0.59375
1630498010812,0.703125,-0.390625,0.59375
1630498010843,0.703125,-0.390625,0.59375
1630498010875,0.703125,-0.390625,0.59375
1630498010906,0.703125,-0.390625,0.59375
1630498010937,0.703125,-0.390625,0.59375
1630498010968,0.703125,-0.390625,0.59375
1630498011000,0.703125,-0.390625,0.59375
1630498011031,0.703125,-0.390625,0.59375
1630498011062,0.703125,-0.390625,0.59375
1630498011093,0.703125,-0.390625,0.59375
1630498011125,0.703125,-0.390625,0.59375
1630498011156,0.703125,-0.390625,0.59375
1630498011187,0.703125,-0.390625,0.59375
1630498011218,0.703125,-0.390625,0.59375
1630498011250,0.703125,-0.390625,0.59375
1630498011281,0.703125,-0.390625,0.59375
1630498011312,0.703125,-0.390625,0.59375
1630498011343,0.703125,-0.390625,0.59375
1630498011375,0.703125,-0.390625,0.59375
1630498011406,0.703125,-0.390625,0.59375
1630498011437,0.703125,-0.390625,0.59375
1630498011468,0.703125,-0.390625,0.59375
1630498011500,0.703125,-0.390625,0.59375
1630498011531,0.703125,-0.390625,0.59375
1630498011562,0.703125,-0.390625,0.59375
1630498011593,0.703125,-0.390625,0.59375
1630498011625,0.703125,-0.390625,0.59375
1630498011656,0.703125,-0.390625,0.59375
1630498011687,0.703125,-0.390625,0.59375
1630498011718,0.703125,-0.390625,0.59375
1630498011750,0.703125,-0.390625,0.59375
1630498011781,0.703125,-0.390625,0.59375
1630498011812,0.703125,-0.390625,0.59375
1630498011843,0.703125,-0.390625,0.59375
1630498011875,0.703125,-0.390625,0.59375
1630498011906,0.703125,-0.390625,0.59375
1630498011937,0.703125,-0.390625,0.59375
1630498011968,0.703125,-0.390625,0.59375
1630498012000,0.703125,-0.390625,0.59375
1630498012031,0.703125,-0.390625,0.59375
1630498012062,0.703125,-0.390625,0.59375
1630498012093,0.703125,-0.390625,0.59375
1630498012125,0.703125,-0.390625,0.59375
1630498012156,0.703125,-0.390625,0.59375
1630498012187,0.703125,-0.40625,0.59375
1630498012218,0.703125,-0.40625,0.59375
1630498012250,0.703125,-0.40625,0.578125
1630498012281,0.703125,-0.40625,0.59375
1630498012312,0.703125,-0.40625,0.59375
1630498012343,0.703125,-0.40625,0.59375
1630498012375,0.703125,-0.40625,0.59375
1630498012406,0.703125,-0.390625,0.59375
1630498012437,0.703125,-0.40625,0.59375
1630498012468,0.703125,-0.390625,0.59375
1630498012500,0.703125,-0.40625,0.59375
1630498012531,0.703125,-0.40625,0.59375
1630498012562,0.703125,-0.40625,0.59375
1630498012593,0.703125,-0.40625,0.59375
1630498012625,0.703125,-0.390625,0.59375
1630498012656,0.703125,-0.390625,0.59375
1630498012687,0.703125,-0.40625,0.59375
1630498012718,0.703125,-0.40625,0.59375
1630498012750,0.703125,-0.390625,0.59375
1630498012781,0.703125,-0.40625,0.59375
1630498012812,0.703125,-0.390625,0.59375
1630498012843,0.703125,-0.390625,0.59375
1630498012875,0.703125,-0.40625,0.59375
1630498012906,0.703125,-0.390625,0.59375
1630498012937,0.703125,-0.390625,0.59375
1630498012968,0.703125,-0.390625,0.59375
1630498013000,0.703125,-0.390625,0.59375
1630498013031,0.703125,-0.390625,0.59375
1630498013062,0.703125,-0.390625,0.59375
1630498013093,0.703125,-0.390625,0.59375
1630498013125,0.703125,-0.390625,0.59375
1630498013156,0.703125,-0.390625,0.59375
1630498013187,0.703125,-0.390625,0.59375
1630498013218,0.703125,-0.390625,0.59375
1630498013250,0.703125,-0.390625,0.59375
1630498013281,0.703125,-0.390625,0.59375
1630498013312,0.703125,-0.390625,0.59375
1630498013343,0.703125,-0.390625,0.59375
1630498013375,0.703125,-0.390625,0.59375
1630498013406,0.703125,-0.390625,0.59375
1630498013437,0.6875,-0.390625,0.59375
1630498013468,0.703125,-0.390625,0.59375
1630498013500,0.703125,-0.390625,0.59375
1630498013531,0.703125,-0.390625,0.59375
1630498013562,0.6875,-0.390625,0.59375
1630498013593,0.703125,-0.390625,0.59375
1630498013625,0.703125,-0.390625,0.59375
1630498013656,0.703125,-0.390625,0.59375
1630498013687,0.703125,-0.390625,0.59375
1630498013718,0.703125,-0.390625,0.59375
1630498013750,0.703125,-0.390625,0.59375
1630498013781,0.703125,-0.390625,0.59375
1630498013812,0.703125,-0.390625,0.59375
1630498013843,0.703125,-0.390625,0.59375
1630498013875,0.703125,-0.390625,0.59375
1630498013906,0.703125,-0.40625,0.59375
1630498013937,0.703125,-0.390625,0.59375
1630498013968,0.703125,-0.390625,0.59375
1630498014000,0.703125,-0.390625,0.59375
1630498014031,0.703125,-0.390625,0.59375
1630498014062,0.703125,-0.390625,0.59375
1630498014093,0.703125,-0.390625,0.59375
1630498014125,0.703125,-0.390625,0.59375
1630498014156,0.703125,-0.390625,0.59375
1630498014187,0.703125,-0.390625,0.59375
1630498014218,0.703125,-0.390625,0.59375
1630498014250,0.703125,-0.390625,0.59375
1630498014281,0.703125,-0.390625,0.59375
1630498014312,0.703125,-0.390625,0.59375
1630498014343,0.703125,-0.390625,0.59375
1630498014375,0.703125,-0.390625,0.59375
1630498014406,0.703125,-0.390625,0.59375
1630498014437,0.703125,-0.390625,0.59375
1630498014468,0.703125,-0.390625,0.59375
1630498014500,0.703125,-0.40625,0.59375
1630498014531,0.703125,-0.390625,0.59375
1630498014562,0.703125,-0.40625,0.59375
1630498014593,0.703125,-0.40625,0.59375
1630498014625,0.6875,-0.390625,0.59375
1630498014656,0.703125,-0.390625,0.59375
1630498014687,0.703125,-0.390625,0.59375
1630498014718,0.703125,-0.390625,0.59375
1630498014750,0.703125,-0.40625,0.59375
1630498014781,0.703125,-0.390625,0.59375
1630498014812,0.703125,-0.390625,0.59375
1630498014843,0.703125,-0.390625,0.59375
1630498014875,0.703125,-0.40625,0.59375
1630498014906,0.703125,-0.390625,0.59375
1630498014937,0.703125,-0.390625,0.59375
1630498014968,0.703125,-0.390625,0.59375
1630498015000,0.703125,-0.40625,0.59375
1630498015031,0.703125,-0.40625,0.59375
1630498015062,0.703125,-0.40625,0.59375
1630498015093,0.703125,-0.40625,0.578125
1630498015125,0.703125,-0.40625,0.59375
1630498015156,0.703125,-0.40625,0.59375
1630498015187,0.703125,-0.40625,0.59375
1630498015218,0.703125,-0.40625,0.59375
1630498015250,0.703125,-0.40625,0.59375
1630498015281,0.703125,-0.40625,0.59375
1630498015312,0.703125,-0.40625,0.578125
1630498015343,0.703125,-0.40625,0.59375
1630498015375,0.703125,-0.40625,0.59375
1630498015406,0.703125,-0.40625,0.59375
1630498015437,0.703125,-0.40625,0.59375
1630498015468,0.703125,-0.40625,0.59375
1630498015500,0.703125,-0.40625,0.59375
1630498015531,0.703125,-0.40625,0.59375
1630498015562,0.703125,-0.390625,0.59375
1630498015593,0.703125,-0.390625,0.59375
1630498015625,0.703125,-0.390625,0.59375
1630498015656,0.703125,-0.40625,0.59375
1630498015687,0.703125,-0.390625,0.59375
1630498015718,0.703125,-0.40625,0.59375
1630498015750,0.703125,-0.40625,0.59375
1630498015781,0.703125,-0.40625,0.59375
1630498015812,0.703125,-0.390625,0.59375
1630498015843,0.703125,-0.390625,0.59375
1630498015875,0.703125,-0.390625,0.59375
1630498015906,0.703125,-0.390625,0.59375
1630498015937,0.703125,-0.390625,0.59375
1630498015968,0.703125,-0.390625,0.59375
1630498016000,0.703125,-0.390625,0.59375
1630498016031,0.703125,-0.390625,0.59375
1630498016062,0.703125,-0.390625,0.59375
1630498016093,0.703125,-0.390625,0.59375
1630498016125,0.703125,-0.390625,0.59375
1630498016156,0.703125,-0.390625,0.59375
1630498016187,0.703125,-0.390625,0.59375
1630498016218,0.703125,-0.40625,0.59375
1630498016250,0.703125,-0.390625,0.59375
1630498016281,0.703125,-0.390625,0.59375
1630498016312,0.703125,-0.390625,0.59375
1630498016343,0.703125,-0.390625,0.59375
1630498016375,0.703125,-0.390625,0.59375
1630498016406,0.703125,-0.390625,0.59375
1630498016437,0.703125,-0.390625,0.59375
1630498016468,0.703125,-0.390625,0.59375
1630498016500,0.703125,-0.390625,0.59375
1630498016531,0.703125,-0.390625,0.59375
1630498016562,0.703125,-0.390625,0.59375
1630498016593,0.703125,-0.390625,0.59375
1630498016625,0.703125,-0.390625,0.59375
1630498016656,0.703125,-0.390625,0.59375
1630498016687,0.703125,-0.390625,0.59375
1630498016718,0.703125,-0.390625,0.59375
1630498016750,0.703125,-0.390625,0.609375
1630498016781,0.703125,-0.390625,0.609375
1630498016812,0.703125,-0.390625,0.59375
1630498016843,0.703125,-0.390625,0.59375
1630498016875,0.703125,-0.390625,0.59375
1630498016906,0.703125,-0.390625,0.59375
1630498016937,0.703125,-0.390625,0.59375
1630498016968,0.703125,-0.390625,0.59375
1630498017000,0.703125,-0.390625,0.59375
1630498017031,0.703125,-0.390625,0.59375
1630498017062,0.703125,-0.390625,0.59375
1630498017093,0.703125,-0.390625,0.59375
1630498017125,0.703125,-0.390625,0.609375
1630498017156,0.703125,-0.390625,0.59375
1630498017187,0.703125,-0.390625,0.59375
1630498017218,0.703125,-0.390625,0.59375
1630498017250,0.703125,-0.390625,0.59375
1630498017281,0.703125,-0.390625,0.59375
1630498017312,0.703125,-0.390625,0.59375
1630498017343,0.703125,-0.390625,0.59375
1630498017375,0.703125,-0.390625,0.59375
1630498017406,0.703125,-0.390625,0.59375
1630498017437,0.703125,-0.40625,0.59375
1630498017468,0.703125,-0.390625,0.59375
1630498017500,0.703125,-0.390625,0.59375
1630498017531,0.703125,-0.40625,0.59375
1630498017562,0.703125,-0.390625,0.609375
1630498017593,0.703125,-0.390625,0.59375
1630498017625,0.703125,-0.40625,0.59375
1630498017656,0.703125,-0.390625,0.59375
1630498017687,0.703125,-0.390625,0.59375
1630498017718,0.703125,-0.40625,0.59375
1630498017750,0.703125,-0.390625,0.59375
1630498017781,0.703125,-0.40625,0.59375
1630498017812,0.703125,-0.40625,0.59375
1630498017843,0.703125,-0.40625,0.59375
1630498017875,0.703125,-0.40625,0.59375
1630498017906,0.703125,-0.40625,0.578125
1630498017937,0.703125,-0.40625,0.59375
1630498017968,0.703125,-0.390625,0.59375
1630498018000,0.703125,-0.390625,0.59375
1630498018031,0.703125,-0.40625,0.59375
1630498018062,0.703125,-0.390625,0.59375
1630498018093,0.703125,-0.390625,0.59375
1630498018125,0.703125,-0.40625,0.59375
1630498018156,0.703125,-0.40625,0.59375
1630498018187,0.703125,-0.390625,0.59375
1630498018218,0.703125,-0.390625,0.59375
1630498018250,0.703125,-0.40625,0.59375
1630498018281,0.703125,-0.390625,0.59375
1630498018312,0.703125,-0.40625,0.59375
1630498018343,0.703125,-0.390625,0.59375
1630498018375,0.703125,-0.390625,0.59375
1630498018406,0.703125,-0.390625,0.59375
1630498018437,0.703125,-0.390625,0.59375
1630498018468,0.703125,-0.390625,0.59375
1630498018500,0.703125,-0.390625,0.59375
1630498018531,0.703125,-0.390625,0.59375
1630498018562,0.703125,-0.390625,0.59375
1630498018593,0.703125,-0.390625,0.59375
1630498018625,0.703125,-0.390625,0.59375
1630498018656,0.703125,-0.390625,0.59375
1630498018687,0.703125,-0.390625,0.59375
1630498018718,0.703125,-0.390625,0.59375
1630498018750,0.703125,-0.40625,0.59375
1630498018781,0.703125,-0.390625,0.59375
1630498018812,0.703125,-0.390625,0.59375
1630498018843,0.703125,-0.390625,0.59375
1630498018875,0.703125,-0.390625,0.59375
1630498018906,0.703125,-0.390625,0.59375
1630498018937,0.703125,-0.390625,0.59375
1630498018968,0.703125,-0.390625,0.59375
1630498019000,0.703125,-0.390625,0.59375
1630498019031,0.703125,-0.390625,0.59375
1630498019062,0.703125,-0.390625,0.59375
1630498019093,0.703125,-0.390625,0.59375
1630498019125,0.703125,-0.390625,0.59375
1630498019156,0.703125,-0.390625,0.59375
1630498019187,0.703125,-0.390625,0.59375
1630498019218,0.703125,-0.390625,0.59375
1630498019250,0.703125,-0.390625,0.59375
1630498019281,0.703125,-0.390625,0.59375
1630498019312,0.703125,-0.390625,0.59375
1630498019343,0.6875,-0.390625,0.609375
1630498019375,0.703125,-0.390625,0.59375
1630498019406,0.703125,-0.390625,0.59375
1630498019437,0.703125,-0.390625,0.59375
1630498019468,0.703125,-0.390625,0.59375
1630498019500,0.703125,-0.390625,0.59375
1630498019531,0.703125,-0.390625,0.59375
1630498019562,0.703125,-0.390625,0.59375
1630498019593,0.703125,-0.390625,0.59375
1630498019625,0.703125,-0.390625,0.59375
1630498019656,0.703125,-0.390625,0.59375
1630498019687,0.703125,-0.390625,0.59375
1630498019718,0.703125,-0.390625,0.59375
1630498019750,0.703125,-0.390625,0.59375
1630498019781,0.703125,-0.390625,0.59375
1630498019812,0.703125,-0.390625,0.59375
1630498019843,0.703125,-0.390625,0.59375
1630498019875,0.703125,-0.390625,0.59375
1630498019906,0.703125,-0.390625,0.59375
1630498019937,0.703125,-0.390625,0.59375
1630498019968,0.703125,-0.40625,0.59375
1630498020000,0.703125,-0.390625,0.59375
1630498020031,0.703125,-0.390625,0.59375
1630498020062,0.703125,-0.390625,0.59375
1630498020093,0.703125,-0.390625,0.59375
1630498020125,0.703125,-0.390625,0.59375
1630498020156,0.703125,-0.40625,0.59375
1630498020187,0.703125,-0.390625,0.59375
1630498020218,0.703125,-0.390625,0.59375
1630498020250,0.703125,-0.390625,0.59375
1630498020281,0.703125,-0.390625,0.59375
1630498020312,0.703125,-0.40625,0.59375
1630498020343,0.703125,-0.390625,0.59375
1630498020375,0.703125,-0.40625,0.59375
1630498020406,0.703125,-0.40625,0.59375
1630498020437,0.703125,-0.40625,0.59375
1630498020468,0.703125,-0.390625,0.59375
1630498020500,0.703125,-0.40625,0.59375
1630498020531,0.703125,-0.390625,0.59375
1630498020562,0.703125,-0.40625,0.59375
1630498020593,0.703125,-0.40625,0.59375
1630498020625,0.703125,-0.40625,0.59375
1630498020656,0.703125,-0.390625,0.59375
1630498020687,0.703125,-0.390625,0.59375
1630498020718,0.703125,-0.390625,0.59375
1630498020750,0.703125,-0.390625,0.59375
1630498020781,0.703125,-0.40625,0.59375
1630498020812,0.703125,-0.40625,0.59375
1630498020843,0.703125,-0.40625,0.59375
1630498020875,0.703125,-0.390625,0.59375
1630498020906,0.703125,-0.390625,0.59375
1630498020937,0.703125,-0.390625,0.59375
1630498020968,0.703125,-0.390625,0.59375
1630498021000,0.703125,-0.390625,0.59375
1630498021031,0.703125,-0.390625,0.59375
1630498021062,0.703125,-0.390625,0.59375
1630498021093,0.703125,-0.40625,0.59375
1630498021125,0.703125,-0.390625,0.59375
1630498021156,0.703125,-0.40625,0.59375
1630498021187,0.703125,-0.390625,0.59375
1630498021218,0.703125,-0.390625,0.59375
1630498021250,0.703125,-0.390625,0.59375
1630498021281,0.703125,-0.390625,0.59375
1630498021312,0.703125,-0.390625,0.59375
1630498021343,0.703125,-0.390625,0.59375
1630498021375,0.703125,-0.390625,0.59375
1630498021406,0.703125,-0.390625,0.59375
1630498021437,0.703125,-0.390625,0.59375
1630498021468,0.703125,-0.390625,0.59375
1630498021500,0.703125,-0.390625,0.59375
1630498021531,0.703125,-0.390625,0.59375
1630498021562,0.703125,-0.390625,0.59375
1630498021593,0.703125,-0.390625,0.59375
1630498021625,0.703125,-0.390625,0.59375
1630498021656,0.703125,-0.390625,0.609375
1630498021687,0.703125,-0.390625,0.59375
1630498021718,0.703125,-0.390625,0.59375
1630498021750,0.703125,-0.390625,0.59375
1630498021781,0.703125,-0.390625,0.59375
1630498021812,0.703125,-0.390625,0.59375
1630498021843,0.703125,-0.390625,0.59375
1630498021875,0.703125,-0.390625,0.59375
1630498021906,0.703125,-0.390625,0.59375
1630498021937,0.703125,-0.390625,0.59375
1630498021968,0.703125,-0.390625,0.59375
1630498022000,0.703125,-0.390625,0.59375
1630498022031,0.703125,-0.390625,0.59375
1630498022062,0.703125,-0.390625,0.59375
1630498022093,0.703125,-0.390625,0.609375
1630498022125,0.703125,-0.390625,0.59375
1630498022156,0.703125,-0.390625,0.59375
1630498022187,0.703125,-0.390625,0.59375
1630498022218,0.703125,-0.390625,0.59375
1630498022250,0.703125,-0.390625,0.59375
1630498022281,0.703125,-0.390625,0.59375
1630498022312,0.703125,-0.390625,0.59375
1630498022343,0.703125,-0.390625,0.59375
1630498022375,0.703125,-0.390625,0.59375
1630498022406,0.703125,-0.390625,0.59375
1630498022437,0.703125,-0.390625,0.59375
1630498022468,0.703125,-0.390625,0.59375
1630498022500,0.703125,-0.390625,0.59375
1630498022531,0.703125,-0.390625,0.59375
1630498022562,0.703125,-0.390625,0.59375
1630498022593,0.703125,-0.390625,0.59375
1630498022625,0.703125,-0.390625,0.59375
1630498022656,0.703125,-0.390625,0.59375
1630498022687,0.703125,-0.390625,0.59375
1630498022718,0.703125,-0.40625,0.59375
1630498022750,0.703125,-0.390625,0.59375
1630498022781,0.703125,-0.390625,0.59375
1630498022812,0.703125,-0.40625,0.59375
1630498022843,0.703125,-0.390625,0.59375
1630498022875,0.703125,-0.40625,0.59375
1630498022906,0.703125,-0.40625,0.59375
1630498022937,0.703125,-0.40625,0.59375
1630498022968,0.703125,-0.40625,0.59375
1630498023000,0.703125,-0.390625,0.59375
1630498023031,0.703125,-0.390625,0.59375
1630498023062,0.703125,-0.40625,0.59375
1630498023093,0.703125,-0.390625,0.59375
1630498023125,0.703125,-0.390625,0.59375
1630498023156,0.703125,-0.390625,0.59375
1630498023187,0.703125,-0.390625,0.59375
1630498023218,0.703125,-0.390625,0.59375
1630498023250,0.703125,-0.40625,0.59375
1630498023281,0.703125,-0.390625,0.59375
1630498023312,0.703125,-0.390625,0.59375
1630498023343,0.703125,-0.390625,0.59375
1630498023375,0.703125,-0.390625,0.59375
1630498023406,0.703125,-0.390625,0.59375
1630498023437,0.703125,-0.390625,0.59375
1630498023468,0.703125,-0.390625,0.59375
1630498023500,0.703125,-0.390625,0.59375
1630498023531,0.703125,-0.390625,0.59375
1630498023562,0.703125,-0.40625,0.59375
1630498023593,0.703125,-0.390625,0.59375
1630498023625,0.703125,-0.390625,0.59375
1630498023656,0.703125,-0.390625,0.59375
1630498023687,0.703125,-0.390625,0.59375
1630498023718,0.703125,-0.390625,0.59375
1630498023750,0.703125,-0.390625,0.59375
1630498023781,0.703125,-0.390625,0.59375
1630498023812,0.703125,-0.390625,0.59375
1630498023843,0.703125,-0.390625,0.59375
1630498023875,0.703125,-0.390625,0.59375
1630498023906,0.703125,-0.390625,0.59375
1630498023937,0.703125,-0.390625,0.59375
1630498023968,0.703125,-0.390625,0.59375
1630498024000,0.703125,-0.390625,0.59375
1630498024031,0.703125,-0.390625,0.59375
1630498024062,0.703125,-0.390625,0.59375
1630498024093,0.703125,-0.390625,0.59375
1630498024125,0.703125,-0.390625,0.59375
1630498024156,0.703125,-0.390625,0.59375
1630498024187,0.703125,-0.390625,0.59375
1630498024218,0.703125,-0.390625,0.59375
1630498024250,0.703125,-0.390625,0.59375
1630498024281,0.703125,-0.390625,0.59375
1630498024312,0.703125,-0.390625,0.59375
1630498024343,0.703125,-0.390625,0.609375
1630498024375,0.703125,-0.390625,0.59375
1630498024406,0.703125,-0.390625,0.59375
1630498024437,0.703125,-0.390625,0.59375
1630498024468,0.703125,-0.390625,0.59375
1630498024500,0.703125,-0.390625,0.59375
1630498024531,0.703125,-0.390625,0.59375
1630498024562,0.703125,-0.390625,0.59375
1630498024593,0.703125,-0.390625,0.59375
1630498024625,0.703125,-0.390625,0.59375
1630498024656,0.703125,-0.390625,0.59375
1630498024687,0.703125,-0.390625,0.59375
1630498024718,0.703125,-0.40625,0.59375
1630498024750,0.703125,-0.390625,0.59375
1630498024781,0.703125,-0.390625,0.59375
1630498024812,0.703125,-0.390625,0.59375
1630498024843,0.703125,-0.390625,0.578125
1630498024875,0.703125,-0.390625,0.59375
1630498024906,0.703125,-0.390625,0.59375
1630498024937,0.703125,-0.390625,0.59375
1630498024968,0.703125,-0.390625,0.59375
1630498025000,0.703125,-0.390625,0.59375
1630498025031,0.703125,-0.390625,0.59375
1630498025062,0.703125,-0.40625,0.59375
1630498025093,0.703125,-0.40625,0.59375
1630498025125,0.703125,-0.390625,0.59375
1630498025156,0.703125,-0.390625,0.59375
1630498025187,0.703125,-0.390625,0.59375
1630498025218,0.703125,-0.390625,0.59375
1630498025250,0.703125,-0.40625,0.59375
1630498025281,0.703125,-0.40625,0.59375
1630498025312,0.703125,-0.40625,0.59375
1630498025343,0.703125,-0.40625,0.59375
1630498025375,0.6875,-0.40625,0.59375
1630498025406,0.703125,-0.40625,0.59375
1630498025437,0.703125,-0.40625,0.59375
1630498025468,0.703125,-0.40625,0.59375
1630498025500,0.703125,-0.40625,0.59375
1630498025531,0.703125,-0.40625,0.59375
1630498025562,0.703125,-0.390625,0.59375
1630498025593,0.703125,-0.40625,0.59375
1630498025625,0.703125,-0.40625,0.59375
1630498025656,0.703125,-0.390625,0.59375
1630498025687,0.703125,-0.40625,0.59375
1630498025718,0.703125,-0.390625,0.59375
1630498025750,0.703125,-0.390625,0.59375
1630498025781,0.703125,-0.390625,0.59375
1630498025812,0.703125,-0.390625,0.59375
1630498025843,0.703125,-0.40625,0.59375
1630498025875,0.703125,-0.390625,0.59375
1630498025906,0.703125,-0.390625,0.59375
1630498025937,0.703125,-0.40625,0.59375
1630498025968,0.703125,-0.390625,0.59375
1630498026000,0.703125,-0.390625,0.59375
1630498026031,0.703125,-0.40625,0.59375
1630498026062,0.703125,-0.390625,0.59375
1630498026093,0.703125,-0.390625,0.59375
1630498026125,0.703125,-0.390625,0.59375
1630498026156,0.703125,-0.390625,0.59375
1630498026187,0.703125,-0.390625,0.59375
1630498026218,0.703125,-0.390625,0.59375
1630498026250,0.703125,-0.390625,0.59375
1630498026281,0.703125,-0.390625,0.59375
1630498026312,0.703125,-0.390625,0.59375
1630498026343,0.703125,-0.390625,0.59375
1630498026375,0.703125,-0.390625,0.59375
1630498026406,0.703125,-0.390625,0.59375
1630498026437,0.703125,-0.390625,0.59375
1630498026468,0.703125,-0.390625,0.59375
1630498026500,0.703125,-0.390625,0.59375
1630498026531,0.703125,-0.390625,0.59375
1630498026562,0.703125,-0.390625,0.59375
1630498026593,0.703125,-0.390625,0.59375
1630498026625,0.703125,-0.390625,0.59375
1630498026656,0.703125,-0.390625,0.59375
1630498026687,0.703125,-0.390625,0.59375
1630498026718,0.703125,-0.390625,0.59375
1630498026750,0.703125,-0.390625,0.59375
1630498026781,0.703125,-0.390625,0.59375
1630498026812,0.703125,-0.390625,0.59375
1630498026843,0.703125,-0.390625,0.59375
1630498026875,0.703125,-0.390625,0.59375
1630498026906,0.703125,-0.390625,0.59375
1630498026937,0.703125,-0.390625,0.59375
1630498026968,0.703125,-0.390625,0.59375
1630498027000,0.703125,-0.390625,0.59375
1630498027031,0.703125,-0.390625,0.59375
1630498027062,0.6875,-0.390625,0.59375
1630498027093,0.703125,-0.390625,0.59375
1630498027125,0.703125,-0.390625,0.59375
1630498027156,0.703125,-0.390625,0.59375
1630498027187,0.703125,-0.390625,0.59375
1630498027218,0.703125,-0.390625,0.59375
1630498027250,0.703125,-0.390625,0.59375
1630498027281,0.703125,-0.390625,0.59375
1630498027312,0.703125,-0.390625,0.59375
1630498027343,0.703125,-0.390625,0.59375
1630498027375,0.703125,-0.390625,0.59375
1630498027406,0.703125,-0.390625,0.59375
1630498027437,0.703125,-0.390625,0.59375
1630498027468,0.703125,-0.390625,0.59375
1630498027500,0.703125,-0.390625,0.59375
1630498027531,0.703125,-0.390625,0.59375
1630498027562,0.703125,-0.390625,0.59375
1630498027593,0.703125,-0.390625,0.59375
1630498027625,0.703125,-0.390625,0.59375
1630498027656,0.703125,-0.390625,0.59375
1630498027687,0.703125,-0.390625,0.59375
1630498027718,0.703125,-0.390625,0.59375
1630498027750,0.703125,-0.40625,0.59375
1630498027781,0.703125,-0.390625,0.59375
1630498027812,0.703125,-0.390625,0.59375
1630498027843,0.703125,-0.390625,0.59375
1630498027875,0.703125,-0.40625,0.59375
1630498027906,0.703125,-0.40625,0.59375
1630498027937,0.703125,-0.40625,0.59375
1630498027968,0.703125,-0.390625,0.59375
1630498028000,0.703125,-0.40625,0.59375
1630498028031,0.703125,-0.40625,0.59375
1630498028062,0.703125,-0.40625,0.59375
1630498028093,0.703125,-0.40625,0.59375
1630498028125,0.703125,-0.40625,0.59375
1630498028156,0.703125,-0.40625,0.59375
1630498028187,0.703125,-0.40625,0.578125
1630498028218,0.703125,-0.40625,0.59375
1630498028250,0.703125,-0.40625,0.578125
1630498028281,0.703125,-0.40625,0.59375
1630498028312,0.703125,-0.40625,0.59375
1630498028343,0.703125,-0.40625,0.59375
1630498028375,0.703125,-0.40625,0.59375
1630498028406,0.703125,-0.40625,0.59375
1630498028437,0.703125,-0.390625,0.59375
1630498028468,0.703125,-0.390625,0.59375
1630498028500,0.703125,-0.390625,0.59375
1630498028531,0.703125,-0.40625,0.59375
1630498028562,0.703125,-0.40625,0.59375
1630498028593,0.703125,-0.390625,0.59375
1630498028625,0.703125,-0.390625,0.59375
1630498028656,0.703125,-0.40625,0.59375
1630498028687,0.703125,-0.40625,0.59375
1630498028718,0.703125,-0.40625,0.59375
1630498028750,0.703125,-0.390625,0.59375
1630498028781,0.703125,-0.390625,0.59375
1630498028812,0.703125,-0.390625,0.59375
1630498028843,0.703125,-0.40625,0.59375
1630498028875,0.703125,-0.40625,0.59375
1630498028906,0.703125,-0.390625,0.59375
1630498028937,0.703125,-0.40625,0.59375
1630498028968,0.703125,-0.390625,0.59375
1630498029000,0.703125,-0.390625,0.59375
1630498029031,0.703125,-0.390625,0.59375
1630498029062,0.703125,-0.390625,0.59375
1630498029093,0.703125,-0.390625,0.59375
1630498029125,0.703125,-0.390625,0.59375
1630498029156,0.703125,-0.390625,0.59375
1630498029187,0.703125,-0.390625,0.59375
1630498029218,0.703125,-0.390625,0.59375
1630498029250,0.703125,-0.390625,0.59375
1630498029281,0.703125,-0.390625,0.59375
1630498029312,0.703125,-0.390625,0.59375
1630498029343,0.703125,-0.390625,0.59375
1630498029375,0.703125,-0.390625,0.59375
1630498029406,0.703125,-0.390625,0.59375
1630498029437,0.703125,-0.390625,0.59375
1630498029468,0.6875,-0.390625,0.59375
1630498029500,0.6875,-0.390625,0.59375
1630498029531,0.703125,-0.390625,0.59375
1630498029562,0.703125,-0.390625,0.59375
1630498029593,0.703125,-0.390625,0.59375
1630498029625,0.703125,-0.390625,0.59375
1630498029656,0.703125,-0.390625,0.59375
1630498029687,0.703125,-0.390625,0.59375
1630498029718,0.703125,-0.390625,0.59375
1630498029750,0.703125,-0.390625,0.59375
1630498029781,0.703125,-0.390625,0.59375
1630498029812,0.703125,-0.390625,0.59375
1630498029843,0.703125,-0.390625,0.59375
1630498029875,0.703125,-0.390625,0.59375
1630498029906,0.703125,-0.390625,0.59375
1630498029937,0.703125,-0.390625,0.59375
1630498029968,0.703125,-0.390625,0.59375
1630498030000,0.703125,-0.40625,0.59375
1630498030031,0.703125,-0.390625,0.59375
1630498030062,0.703125,-0.390625,0.609375
1630498030093,0.703125,-0.390625,0.59375
1630498030125,0.703125,-0.390625,0.59375
1630498030156,0.6875,-0.390625,0.59375
1630498030187,0.703125,-0.390625,0.609375
1630498030218,0.703125,-0.390625,0.59375
1630498030250,0.703125,-0.390625,0.59375
1630498030281,0.703125,-0.390625,0.59375
1630498030312,0.703125,-0.390625,0.59375
1630498030343,0.703125,-0.390625,0.59375
1630498030375,0.703125,-0.390625,0.59375
1630498030406,0.703125,-0.40625,0.59375
1630498030437,0.703125,-0.390625,0.59375
1630498030468,0.703125,-0.390625,0.59375
1630498030500,0.703125,-0.390625,0.59375
1630498030531,0.703125,-0.390625,0.59375
1630498030562,0.703125,-0.40625,0.59375
1630498030593,0.703125,-0.390625,0.59375
1630498030625,0.6875,-0.390625,0.59375
1630498030656,0.703125,-0.390625,0.59375
1630498030687,0.703125,-0.390625,0.59375
1630498030718,0.703125,-0.390625,0.59375
1630498030750,0.703125,-0.390625,0.59375
1630498030781,0.703125,-0.390625,0.59375
1630498030812,0.703125,-0.390625,0.59375
1630498030843,0.703125,-0.390625,0.59375
1630498030875,0.703125,-0.390625,0.59375
1630498030906,0.703125,-0.390625,0.59375
1630498030937,0.703125,-0.390625,0.59375
1630498030968,0.703125,-0.390625,0.59375
1630498031000,0.703125,-0.40625,0.59375
1630498031031,0.703125,-0.40625,0.59375
1630498031062,0.703125,-0.390625,0.59375
1630498031093,0.6875,-0.40625,0.59375
1630498031125,0.703125,-0.390625,0.59375
1630498031156,0.703125,-0.40625,0.59375
1630498031187,0.703125,-0.40625,0.59375
1630498031218,0.703125,-0.390625,0.59375
1630498031250,0.703125,-0.390625,0.59375
1630498031281,0.703125,-0.390625,0.59375
1630498031312,0.703125,-0.40625,0.59375
1630498031343,0.703125,-0.40625,0.578125
1630498031375,0.703125,-0.40625,0.59375
1630498031406,0.703125,-0.390625,0.59375
1630498031437,0.703125,-0.40625,0.59375
1630498031468,0.703125,-0.40625,0.59375
1630498031500,0.703125,-0.40625,0.59375
1630498031531,0.703125,-0.40625,0.59375
1630498031562,0.703125,-0.40625,0.59375
1630498031593,0.703125,-0.40625,0.59375
1630498031625,0.703125,-0.40625,0.59375
1630498031656,0.703125,-0.40625,0.59375
1630498031687,0.703125,-0.40625,0.59375
1630498031718,0.703125,-0.40625,0.59375
1630498031750,0.703125,-0.40625,0.59375
1630498031781,0.703125,-0.390625,0.59375
1630498031812,0.703125,-0.390625,0.59375
1630498031843,0.703125,-0.390625,0.59375
1630498031875,0.703125,-0.390625,0.59375
1630498031906,0.703125,-0.390625,0.59375
1630498031937,0.703125,-0.390625,0.59375
1630498031968,0.703125,-0.390625,0.59375
1630498032000,0.703125,-0.40625,0.59375
1630498032031,0.703125,-0.390625,0.59375
1630498032062,0.703125,-0.390625,0.59375
1630498032093,0.703125,-0.40625,0.59375
1630498032125,0.703125,-0.390625,0.59375
1630498032156,0.703125,-0.390625,0.59375
1630498032187,0.703125,-0.40625,0.59375
1630498032218,0.703125,-0.40625,0.578125
1630498032250,0.703125,-0.390625,0.59375
1630498032281,0.703125,-0.390625,0.59375
1630498032312,0.703125,-0.390625,0.59375
1630498032343,0.703125,-0.390625,0.59375
1630498032375,0.703125,-0.390625,0.59375
1630498032406,0.703125,-0.390625,0.59375
1630498032437,0.703125,-0.390625,0.59375
1630498032468,0.703125,-0.390625,0.59375
1630498032500,0.703125,-0.390625,0.59375
1630498032531,0.703125,-0.390625,0.59375
1630498032562,0.703125,-0.390625,0.59375
1630498032593,0.703125,-0.390625,0.59375
1630498032625,0.703125,-0.390625,0.59375
1630498032656,0.703125,-0.390625,0.59375
1630498032687,0.703125,-0.390625,0.59375
1630498032718,0.703125,-0.390625,0.59375
1630498032750,0.703125,-0.390625,0.59375
1630498032781,0.703125,-0.390625,0.59375
1630498032812,0.703125,-0.390625,0.59375
1630498032843,0.703125,-0.390625,0.59375
1630498032875,0.703125,-0.390625,0.59375
1630498032906,0.703125,-0.390625,0.59375
1630498032937,0.703125,-0.390625,0.59375
1630498032968,0.703125,-0.390625,0.59375
1630498033000,0.703125,-0.390625,0.59375
1630498033031,0.703125,-0.390625,0.59375
1630498033062,0.703125,-0.390625,0.59375
1630498033093,0.703125,-0.390625,0.59375
1630498033125,0.703125,-0.390625,0.59375
1630498033156,0.703125,-0.390625,0.59375
1630498033187,0.703125,-0.390625,0.59375
1630498033218,0.703125,-0.390625,0.59375
1630498033250,0.703125,-0.390625,0.59375
1630498033281,0.703125,-0.390625,0.59375
1630498033312,0.703125,-0.390625,0.59375
1630498033343,0.703125,-0.390625,0.59375
1630498033375,0.703125,-0.390625,0.59375
1630498033406,0.703125,-0.390625,0.59375
1630498033437,0.703125,-0.390625,0.59375
1630498033468,0.703125,-0.390625,0.59375
1630498033500,0.703125,-0.390625,0.59375
1630498033531,0.703125,-0.390625,0.59375
1630498033562,0.703125,-0.40625,0.59375
1630498033593,0.703125,-0.390625,0.59375
1630498033625,0.703125,-0.390625,0.59375
1630498033656,0.703125,-0.390625,0.59375
1630498033687,0.703125,-0.390625,0.59375
1630498033718,0.703125,-0.390625,0.59375
1630498033750,0.703125,-0.390625,0.59375
1630498033781,0.703125,-0.390625,0.59375
1630498033812,0.703125,-0.390625,0.59375
1630498033843,0.703125,-0.390625,0.59375
1630498033875,0.703125,-0.40625,0.59375
1630498033906,0.703125,-0.390625,0.59375
1630498033937,0.703125,-0.390625,0.59375
1630498033968,0.703125,-0.390625,0.59375
1630498034000,0.703125,-0.390625,0.59375
1630498034031,0.703125,-0.390625,0.59375
1630498034062,0.703125,-0.40625,0.59375
1630498034093,0.703125,-0.390625,0.59375
1630498034125,0.703125,-0.40625,0.59375
1630498034156,0.703125,-0.40625,0.59375
1630498034187,0.703125,-0.40625,0.59375
1630498034218,0.703125,-0.390625,0.59375
1630498034250,0.703125,-0.40625,0.578125
1630498034281,0.703125,-0.40625,0.59375
1630498034312,0.703125,-0.40625,0.59375
1630498034343,0.703125,-0.390625,0.59375
1630498034375,0.703125,-0.390625,0.59375
1630498034406,0.703125,-0.390625,0.59375
1630498034437,0.703125,-0.40625,0.59375
1630498034468,0.703125,-0.390625,0.59375
1630498034500,0.703125,-0.40625,0.59375
1630498034531,0.703125,-0.40625,0.59375
1630498034562,0.703125,-0.40625,0.59375
1630498034593,0.703125,-0.390625,0.59375
1630498034625,0.703125,-0.40625,0.59375
1630498034656,0.703125,-0.390625,0.59375
1630498034687,0.703125,-0.390625,0.59375
1630498034718,0.703125,-0.390625,0.59375
1630498034750,0.703125,-0.390625,0.59375
1630498034781,0.703125,-0.40625,0.59375
1630498034812,0.703125,-0.390625,0.59375
1630498034843,0.703125,-0.40625,0.59375
1630498034875,0.703125,-0.390625,0.59375
1630498034906,0.703125,-0.390625,0.59375
1630498034937,0.703125,-0.390625,0.59375
1630498034968,0.703125,-0.390625,0.59375
1630498035000,0.703125,-0.390625,0.59375
1630498035031,0.703125,-0.390625,0.59375
1630498035062,0.6875,-0.390625,0.59375
1630498035093,0.703125,-0.390625,0.59375
1630498035125,0.703125,-0.390625,0.59375
1630498035156,0.703125,-0.390625,0.59375
1630498035187,0.703125,-0.390625,0.59375
1630498035218,0.703125,-0.390625,0.59375
1630498035250,0.703125,-0.390625,0.59375
1630498035281,0.703125,-0.390625,0.59375
1630498035312,0.703125,-0.390625,0.59375
1630498035343,0.703125,-0.390625,0.59375
1630498035375,0.703125,-0.390625,0.59375
1630498035406,0.703125,-0.390625,0.59375
1630498035437,0.703125,-0.390625,0.59375
1630498035468,0.703125,-0.390625,0.59375
1630498035500,0.703125,-0.390625,0.59375
1630498035531,0.703125,-0.390625,0.59375
1630498035562,0.703125,-0.390625,0.59375
1630498035593,0.703125,-0.390625,0.59375
1630498035625,0.703125,-0.390625,0.59375
1630498035656,0.703125,-0.390625,0.59375
1630498035687,0.703125,-0.390625,0.59375
1630498035718,0.703125,-0.390625,0.59375
1630498035750,0.703125,-0.390625,0.59375
1630498035781,0.703125,-0.390625,0.59375
1630498035812,0.703125,-0.390625,0.59375
1630498035843,0.703125,-0.390625,0.59375
1630498035875,0.703125,-0.390625,0.59375
1630498035906,0.703125,-0.390625,0.59375
1630498035937,0.703125,-0.390625,0.59375
1630498035968,0.703125,-0.390625,0.59375
1630498036000,0.703125,-0.390625,0.59375
1630498036031,0.703125,-0.390625,0.59375
1630498036062,0.703125,-0.390625,0.59375
1630498036093,0.703125,-0.390625,0.59375
1630498036125,0.703125,-0.390625,0.59375
1630498036156,0.703125,-0.390625,0.59375
1630498036187,0.703125,-0.390625,0.59375
1630498036218,0.703125,-0.390625,0.59375
1630498036250,0.703125,-0.390625,0.59375
1630498036281,0.703125,-0.390625,0.59375
1630498036312,0.703125,-0.390625,0.59375
1630498036343,0.703125,-0.390625,0.59375
1630498036375,0.703125,-0.390625,0.59375
1630498036406,0.703125,-0.390625,0.59375
1630498036437,0.703125,-0.390625,0.59375
1630498036468,0.703125,-0.390625,0.59375
1630498036500,0.703125,-0.390625,0.59375
1630498036531,0.703125,-0.390625,0.59375
1630498036562,0.703125,-0.390625,0.59375
1630498036593,0.703125,-0.390625,0.59375
1630498036625,0.703125,-0.390625,0.59375
1630498036656,0.703125,-0.40625,0.59375
1630498036687,0.703125,-0.390625,0.59375
1630498036718,0.703125,-0.390625,0.59375
1630498036750,0.703125,-0.390625,0.59375
1630498036781,0.703125,-0.390625,0.59375
1630498036812,0.703125,-0.390625,0.59375
1630498036843,0.703125,-0.40625,0.59375
1630498036875,0.703125,-0.40625,0.59375
1630498036906,0.703125,-0.40625,0.59375
1630498036937,0.6875,-0.390625,0.59375
1630498036968,0.703125,-0.40625,0.59375
1630498037000,0.703125,-0.40625,0.59375
1630498037031,0.703125,-0.40625,0.59375
1630498037062,0.703125,-0.40625,0.59375
1630498037093,0.703125,-0.40625,0.59375
1630498037125,0.703125,-0.40625,0.59375
1630498037156,0.703125,-0.390625,0.59375
1630498037187,0.703125,-0.390625,0.59375
1630498037218,0.703125,-0.390625,0.59375
1630498037250,0.703125,-0.40625,0.59375
1630498037281,0.703125,-0.40625,0.59375
1630498037312,0.703125,-0.390625,0.59375
1630498037343,0.703125,-0.390625,0.59375
1630498037375,0.703125,-0.40625,0.59375
1630498037406,0.703125,-0.40625,0.59375
1630498037437,0.703125,-0.40625,0.59375
1630498037468,0.703125,-0.40625,0.59375
1630498037500,0.703125,-0.390625,0.59375
1630498037531,0.703125,-0.390625,0.59375
1630498037562,0.703125,-0.390625,0.59375
1630498037593,0.703125,-0.390625,0.59375
1630498037625,0.703125,-0.390625,0.59375
1630498037656,0.703125,-0.40625,0.59375
1630498037687,0.703125,-0.390625,0.59375
1630498037718,0.703125,-0.40625,0.59375
1630498037750,0.703125,-0.390625,0.59375
1630498037781,0.703125,-0.390625,0.59375
1630498037812,0.703125,-0.390625,0.59375
1630498037843,0.703125,-0.390625,0.59375
1630498037875,0.703125,-0.390625,0.59375
1630498037906,0.703125,-0.390625,0.59375
1630498037937,0.703125,-0.390625,0.59375
1630498037968,0.703125,-0.390625,0.59375
1630498038000,0.703125,-0.390625,0.59375
1630498038031,0.703125,-0.390625,0.59375
1630498038062,0.703125,-0.40625,0.59375
1630498038093,0.703125,-0.390625,0.59375
1630498038125,0.703125,-0.390625,0.609375
1630498038156,0.703125,-0.390625,0.59375
1630498038187,0.703125,-0.390625,0.59375
1630498038218,0.703125,-0.390625,0.59375
1630498038250,0.703125,-0.390625,0.59375
1630498038281,0.703125,-0.390625,0.59375
1630498038312,0.703125,-0.390625,0.59375
1630498038343,0.703125,-0.390625,0.59375
1630498038375,0.703125,-0.390625,0.59375
1630498038406,0.703125,-0.390625,0.609375
1630498038437,0.703125,-0.390625,0.59375
1630498038468,0.703125,-0.390625,0.59375
1630498038500,0.703125,-0.390625,0.59375
1630498038531,0.703125,-0.390625,0.59375
1630498038562,0.703125,-0.390625,0.59375
1630498038593,0.703125,-0.390625,0.59375
1630498038625,0.703125,-0.390625,0.59375
1630498038656,0.703125,-0.390625,0.59375
1630498038687,0.703125,-0.390625,0.59375
1630498038718,0.703125,-0.390625,0.59375
1630498038750,0.703125,-0.390625,0.59375
1630498038781,0.703125,-0.390625,0.59375
1630498038812,0.703125,-0.390625,0.59375
1630498038843,0.703125,-0.390625,0.59375
1630498038875,0.703125,-0.390625,0.59375
1630498038906,0.703125,-0.390625,0.59375
1630498038937,0.703125,-0.390625,0.59375
1630498038968,0.703125,-0.390625,0.59375
1630498039000,0.703125,-0.390625,0.59375
1630498039031,0.703125,-0.390625,0.59375
1630498039062,0.703125,-0.390625,0.59375
1630498039093,0.703125,-0.390625,0.59375
1630498039125,0.703125,-0.390625,0.59375
1630498039156,0.703125,-0.390625,0.59375
1630498039187,0.703125,-0.40625,0.59375
1630498039218,0.703125,-0.390625,0.59375
1630498039250,0.6875,-0.390625,0.59375
1630498039281,0.6875,-0.390625,0.59375
1630498039312,0.703125,-0.390625,0.59375
1630498039343,0.6875,-0.390625,0.59375
1630498039375,0.703125,-0.390625,0.609375
1630498039406,0.703125,-0.390625,0.59375
1630498039437,0.703125,-0.390625,0.59375
1630498039468,0.703125,-0.390625,0.59375
1630498039500,0.703125,-0.390625,0.59375
1630498039531,0.703125,-0.390625,0.59375
1630498039562,0.703125,-0.390625,0.59375
1630498039593,0.703125,-0.390625,0.59375
1630498039625,0.703125,-0.390625,0.59375
1630498039656,0.703125,-0.390625,0.59375
1630498039687,0.6875,-0.40625,0.59375
1630498039718,0.703125,-0.40625,0.59375
1630498039750,0.703125,-0.390625,0.59375
1630498039781,0.703125,-0.390625,0.59375
1630498039812,0.703125,-0.390625,0.59375
1630498039843,0.703125,-0.390625,0.59375
1630498039875,0.703125,-0.390625,0.59375
1630498039906,0.703125,-0.390625,0.59375
1630498039937,0.703125,-0.390625,0.59375
1630498039968,0.703125,-0.390625,0.59375
1630498040000,0.703125,-0.390625,0.59375
1630498040031,0.703125,-0.390625,0.59375
1630498040062,0.703125,-0.390625,0.59375
1630498040093,0.703125,-0.390625,0.59375
1630498040125,0.703125,-0.390625,0.59375
1630498040156,0.703125,-0.40625,0.59375
1630498040187,0.703125,-0.390625,0.59375
1630498040218,0.703125,-0.390625,0.59375
1630498040250,0.703125,-0.390625,0.59375
1630498040281,0.703125,-0.390625,0.59375
1630498040312,0.703125,-0.390625,0.59375
1630498040343,0.703125,-0.390625,0.59375
1630498040375,0.703125,-0.390625,0.59375
1630498040406,0.703125,-0.390625,0.59375
1630498040437,0.703125,-0.390625,0.59375
1630498040468,0.703125,-0.40625,0.59375
1630498040500,0.703125,-0.40625,0.59375
1630498040531,0.703125,-0.390625,0.59375
1630498040562,0.703125,-0.390625,0.59375
1630498040593,0.703125,-0.390625,0.59375
1630498040625,0.703125,-0.390625,0.59375
1630498040656,0.703125,-0.40625,0.59375
1630498040687,0.703125,-0.40625,0.59375
1630498040718,0.703125,-0.40625,0.59375
1630498040750,0.703125,-0.390625,0.59375
1630498040781,0.703125,-0.40625,0.59375
1630498040812,0.703125,-0.40625,0.59375
1630498040843,0.703125,-0.40625,0.59375
1630498040875,0.703125,-0.40625,0.59375
1630498040906,0.703125,-0.40625,0.59375
1630498040937,0.703125,-0.390625,0.59375
1630498040968,0.703125,-0.390625,0.59375
1630498041000,0.703125,-0.390625,0.59375
1630498041031,0.703125,-0.390625,0.59375
1630498041062,0.703125,-0.390625,0.59375
1630498041093,0.703125,-0.390625,0.59375
1630498041125,0.703125,-0.390625,0.59375
1630498041156,0.703125,-0.390625,0.59375
1630498041187,0.703125,-0.390625,0.59375
1630498041218,0.703125,-0.390625,0.59375
1630498041250,0.703125,-0.390625,0.59375
1630498041281,0.703125,-0.390625,0.59375
1630498041312,0.703125,-0.390625,0.59375
1630498041343,0.703125,-0.390625,0.59375
1630498041375,0.703125,-0.390625,0.59375
1630498041406,0.703125,-0.40625,0.59375
1630498041437,0.703125,-0.390625,0.59375
1630498041468,0.703125,-0.390625,0.59375
1630498041500,0.703125,-0.390625,0.59375
1630498041531,0.703125,-0.390625,0.59375
1630498041562,0.703125,-0.390625,0.59375
1630498041593,0.703125,-0.390625,0.59375
1630498041625,0.703125,-0.390625,0.59375
1630498041656,0.703125,-0.390625,0.59375
1630498041687,0.703125,-0.390625,0.59375
1630498041718,0.703125,-0.390625,0.59375
1630498041750,0.703125,-0.390625,0.59375
1630498041781,0.703125,-0.390625,0.59375
1630498041812,0.703125,-0.390625,0.59375
1630498041843,0.703125,-0.390625,0.59375
1630498041875,0.703125,-0.40625,0.59375
1630498041906,0.703125,-0.390625,0.59375
1630498041937,0.703125,-0.390625,0.59375
1630498041968,0.703125,-0.390625,0.59375
1630498042000,0.703125,-0.390625,0.59375
1630498042031,0.703125,-0.390625,0.59375
1630498042062,0.703125,-0.390625,0.59375
1630498042093,0.703125,-0.390625,0.59375
1630498042125,0.703125,-0.390625,0.59375
1630498042156,0.703125,-0.390625,0.59375
1630498042187,0.703125,-0.390625,0.59375
1630498042218,0.703125,-0.390625,0.59375
1630498042250,0.703125,-0.390625,0.59375
1630498042281,0.703125,-0.390625,0.59375
1630498042312,0.703125,-0.390625,0.59375
1630498042343,0.703125,-0.390625,0.59375
1630498042375,0.703125,-0.390625,0.59375
1630498042406,0.703125,-0.390625,0.59375
1630498042437,0.703125,-0.390625,0.59375
1630498042468,0.6875,-0.390625,0.59375
1630498042500,0.703125,-0.390625,0.59375
1630498042531,0.703125,-0.390625,0.59375
1630498042562,0.703125,-0.390625,0.59375
1630498042593,0.703125,-0.390625,0.59375
1630498042625,0.703125,-0.390625,0.59375
1630498042656,0.6875,-0.390625,0.59375
1630498042687,0.703125,-0.390625,0.59375
1630498042718,0.703125,-0.390625,0.59375
1630498042750,0.703125,-0.390625,0.59375
1630498042781,0.703125,-0.390625,0.59375
1630498042812,0.703125,-0.390625,0.59375
1630498042843,0.703125,-0.390625,0.59375
1630498042875,0.703125,-0.390625,0.59375
1630498042906,0.703125,-0.390625,0.59375
1630498042937,0.703125,-0.390625,0.59375
1630498042968,0.703125,-0.390625,0.59375
1630498043000,0.703125,-0.390625,0.59375
1630498043031,0.703125,-0.390625,0.59375
1630498043062,0.703125,-0.390625,0.59375
1630498043093,0.703125,-0.390625,0.59375
1630498043125,0.703125,-0.390625,0.59375
1630498043156,0.703125,-0.390625,0.59375
1630498043187,0.703125,-0.390625,0.59375
1630498043218,0.703125,-0.390625,0.59375
1630498043250,0.703125,-0.390625,0.59375
1630498043281,0.703125,-0.390625,0.59375
1630498043312,0.703125,-0.390625,0.59375
1630498043343,0.703125,-0.390625,0.59375
1630498043375,0.703125,-0.390625,0.59375
1630498043406,0.703125,-0.390625,0.59375
1630498043437,0.703125,-0.390625,0.59375
1630498043468,0.703125,-0.390625,0.59375
1630498043500,0.703125,-0.390625,0.59375
1630498043531,0.703125,-0.40625,0.59375
1630498043562,0.703125,-0.390625,0.59375
1630498043593,0.703125,-0.390625,0.59375
1630498043625,0.703125,-0.390625,0.59375
1630498043656,0.703125,-0.40625,0.59375
1630498043687,0.703125,-0.390625,0.59375
1630498043718,0.703125,-0.390625,0.59375
1630498043750,0.703125,-0.390625,0.59375
1630498043781,0.703125,-0.390625,0.59375
1630498043812,0.6875,-0.40625,0.59375
1630498043843,0.703125,-0.390625,0.59375
1630498043875,0.71875,-0.390625,0.59375
1630498043906,0.6875,-0.40625,0.609375
1630498043937,0.703125,-0.40625,0.625
1630498043968,0.6875,-0.40625,0.59375
1630498044000,0.6875,-0.421875,0.59375
1630498044031,0.671875,-0.40625,0.609375
1630498044062,0.703125,-0.390625,0.671875
1630498044093,0.5,-0.3125,0.640625
1630498044125,0.734375,-0.421875,0.625
1630498044156,0.859375,-0.375,0.5625
1630498044187,0.890625,-0.28125,0.515625
1630498044218,0.796875,-0.328125,0.515625
1630498044250,0.78125,-0.328125,0.5625
1630498044281,0.734375,-0.375,0.59375
1630498044312,0.65625,-0.390625,0.578125
1630498044343,0.65625,-0.390625,0.578125
1630498044375,0.71875,-0.390625,0.59375
1630498044406,0.734375,-0.390625,0.578125
1630498044437,0.71875,-0.375,0.578125
1630498044468,0.71875,-0.375,0.578125
1630498044500,0.71875,-0.375,0.59375
1630498044531,0.71875,-0.375,0.578125
1630498044562,0.71875,-0.375,0.578125
1630498044593,0.71875,-0.375,0.578125
1630498044625,0.71875,-0.375,0.59375
1630498044656,0.71875,-0.375,0.59375
1630498044687,0.71875,-0.375,0.578125
1630498044718,0.71875,-0.375,0.578125
1630498044750,0.734375,-0.375,0.578125
1630498044781,0.734375,-0.375,0.578125
1630498044812,0.71875,-0.375,0.578125
1630498044843,0.71875,-0.375,0.578125
1630498044875,0.734375,-0.375,0.578125
1630498044906,0.71875,-0.375,0.578125
1630498044937,0.71875,-0.375,0.578125
1630498044968,0.71875,-0.375,0.578125
1630498045000,0.734375,-0.375,0.578125
1630498045031,0.71875,-0.375,0.578125
1630498045062,0.71875,-0.375,0.578125
1630498045093,0.71875,-0.375,0.578125
1630498045125,0.734375,-0.375,0.59375
1630498045156,0.71875,-0.375,0.578125
1630498045187,0.71875,-0.375,0.59375
1630498045218,0.71875,-0.375,0.578125
1630498045250,0.71875,-0.375,0.578125
1630498045281,0.71875,-0.375,0.578125
1630498045312,0.71875,-0.375,0.578125
1630498045343,0.71875,-0.375,0.578125
1630498045375,0.71875,-0.375,0.578125
1630498045406,0.71875,-0.375,0.578125
1630498045437,0.734375,-0.375,0.578125
1630498045468,0.734375,-0.375,0.578125
1630498045500,0.734375,-0.375,0.578125
1630498045531,0.71875,-0.375,0.578125
1630498045562,0.71875,-0.375,0.578125
1630498045593,0.71875,-0.375,0.578125
1630498045625,0.734375,-0.375,0.578125
1630498045656,0.734375,-0.375,0.578125
1630498045687,0.734375,-0.375,0.578125
1630498045718,0.734375,-0.375,0.578125
1630498045750,0.71875,-0.375,0.578125
1630498045781,0.71875,-0.375,0.578125
1630498045812,0.734375,-0.375,0.578125
1630498045843,0.71875,-0.375,0.578125
1630498045875,0.734375,-0.375,0.578125
1630498045906,0.734375,-0.375,0.578125
1630498045937,0.734375,-0.375,0.578125
1630498045968,0.71875,-0.375,0.578125
1630498046000,0.71875,-0.375,0.578125
1630498046031,0.734375,-0.375,0.578125
1630498046062,0.734375,-0.375,0.578125
1630498046093,0.734375,-0.375,0.578125
1630498046125,0.71875,-0.375,0.5625
1630498046156,0.71875,-0.375,0.578125
1630498046187,0.734375,-0.375,0.578125
1630498046218,0.734375,-0.375,0.578125
1630498046250,0.734375,-0.375,0.578125
1630498046281,0.71875,-0.375,0.578125
1630498046312,0.71875,-0.375,0.578125
1630498046343,0.71875,-0.375,0.578125
1630498046375,0.734375,-0.359375,0.578125
1630498046406,0.734375,-0.359375,0.578125
1630498046437,0.734375,-0.375,0.578125
1630498046468,0.71875,-0.375,0.578125
1630498046500,0.71875,-0.375,0.578125
1630498046531,0.71875,-0.375,0.578125
1630498046562,0.734375,-0.390625,0.578125
1630498046593,0.734375,-0.375,0.578125
1630498046625,0.71875,-0.390625,0.578125
1630498046656,0.71875,-0.375,0.578125
1630498046687,0.734375,-0.375,0.578125
1630498046718,0.734375,-0.375,0.578125
1630498046750,0.734375,-0.375,0.578125
1630498046781,0.71875,-0.375,0.578125
1630498046812,0.71875,-0.375,0.578125
1630498046843,0.71875,-0.375,0.578125
1630498046875,0.71875,-0.375,0.578125
1630498046906,0.734375,-0.375,0.578125
1630498046937,0.734375,-0.375,0.578125
1630498046968,0.71875,-0.390625,0.578125
1630498047000,0.71875,-0.375,0.5625
1630498047031,0.71875,-0.375,0.578125
1630498047062,0.734375,-0.375,0.578125
1630498047093,0.734375,-0.375,0.5625
1630498047125,0.734375,-0.375,0.578125
1630498047156,0.71875,-0.375,0.578125
1630498047187,0.71875,-0.375,0.578125
1630498047218,0.71875,-0.375,0.578125
1630498047250,0.734375,-0.375,0.578125
1630498047281,0.734375,-0.375,0.5625
1630498047312,0.734375,-0.375,0.578125
1630498047343,0.734375,-0.359375,0.578125
1630498047375,0.734375,-0.375,0.578125
1630498047406,0.71875,-0.375,0.578125
1630498047437,0.71875,-0.375,0.578125
1630498047468,0.734375,-0.375,0.578125
1630498047500,0.71875,-0.375,0.578125
1630498047531,0.734375,-0.375,0.578125
1630498047562,0.734375,-0.375,0.578125
1630498047593,0.71875,-0.375,0.578125
1630498047625,0.71875,-0.375,0.578125
1630498047656,0.734375,-0.375,0.578125
1630498047687,0.734375,-0.375,0.578125
1630498047718,0.71875,-0.375,0.578125
1630498047750,0.734375,-0.375,0.578125
1630498047781,0.734375,-0.375,0.5625
1630498047812,0.734375,-0.375,0.578125
1630498047843,0.734375,-0.375,0.578125
1630498047875,0.71875,-0.390625,0.5625
1630498047906,0.703125,-0.390625,0.578125
1630498047937,0.734375,-0.390625,0.578125
1630498047968,0.71875,-0.390625,0.578125
1630498048000,0.71875,-0.359375,0.578125
1630498048031,0.71875,-0.359375,0.59375
1630498048062,0.75,-0.375,0.578125
1630498048093,0.734375,-0.359375,0.5625
1630498048125,0.734375,-0.375,0.578125
1630498048156,0.75,-0.375,0.578125
1630498048187,0.703125,-0.390625,0.59375
1630498048218,0.703125,-0.375,0.578125
1630498048250,0.734375,-0.375,0.578125
1630498048281,0.734375,-0.296875,0.609375
1630498048312,0.859375,-0.40625,0.609375
1630498048343,0.71875,-0.421875,0.625
1630498048375,0.5,-0.453125,0.625
1630498048406,0.515625,-0.453125,0.625
1630498048437,0.625,-0.453125,0.65625
1630498048468,0.671875,-0.40625,0.640625
1630498048500,0.65625,-0.421875,0.640625
1630498048531,0.640625,-0.421875,0.640625
1630498048562,0.65625,-0.421875,0.578125
1630498048593,0.59375,-0.4375,0.640625
1630498048625,0.578125,-0.421875,0.671875
1630498048656,0.59375,-0.421875,0.65625
1630498048687,0.578125,-0.4375,0.609375
1630498048718,0.625,-0.453125,0.640625
1630498048750,0.671875,-0.40625,0.6875
1630498048781,0.6875,-0.390625,0.6875
1630498048812,0.53125,-0.40625,0.734375
1630498048843,0.609375,-0.40625,0.703125
1630498048875,0.578125,-0.421875,0.6875
1630498048906,0.578125,-0.421875,0.671875
1630498048937,0.625,-0.4375,0.65625
1630498048968,0.640625,-0.453125,0.640625
1630498049000,0.625,-0.484375,0.59375
1630498049031,0.609375,-0.484375,0.609375
1630498049062,0.609375,-0.453125,0.640625
1630498049093,0.640625,-0.453125,0.640625
1630498049125,0.640625,-0.4375,0.640625
1630498049156,0.625,-0.453125,0.640625
1630498049187,0.609375,-0.453125,0.625
1630498049218,0.625,-0.453125,0.640625
1630498049250,0.625,-0.453125,0.640625
1630498049281,0.625,-0.453125,0.625
1630498049312,0.640625,-0.46875,0.625
1630498049343,0.609375,-0.46875,0.625
1630498049375,0.625,-0.484375,0.640625
1630498049406,0.59375,-0.453125,0.65625
1630498049437,0.59375,-0.453125,0.671875
1630498049468,0.59375,-0.453125,0.65625
1630498049500,0.59375,-0.453125,0.65625
1630498049531,0.59375,-0.46875,0.65625
1630498049562,0.609375,-0.453125,0.65625
1630498049593,0.609375,-0.453125,0.65625
1630498049625,0.609375,-0.453125,0.640625
1630498049656,0.609375,-0.46875,0.65625
1630498049687,0.625,-0.453125,0.640625
1630498049718,0.609375,-0.453125,0.640625
1630498049750,0.609375,-0.453125,0.640625
1630498049781,0.609375,-0.453125,0.640625
1630498049812,0.609375,-0.453125,0.640625
1630498049843,0.609375,-0.453125,0.640625
1630498049875,0.609375,-0.453125,0.640625
1630498049906,0.625,-0.453125,0.640625
1630498049937,0.609375,-0.453125,0.65625
1630498049968,0.609375,-0.453125,0.640625
1630498050000,0.625,-0.453125,0.640625
1630498050031,0.625,-0.453125,0.640625
1630498050062,0.609375,-0.453125,0.65625
1630498050093,0.625,-0.453125,0.640625
1630498050125,0.625,-0.453125,0.640625
1630498050156,0.625,-0.453125,0.640625
1630498050187,0.609375,-0.453125,0.640625
1630498050218,0.609375,-0.453125,0.640625
1630498050250,0.625,-0.453125,0.640625
1630498050281,0.625,-0.4375,0.640625
1630498050312,0.625,-0.453125,0.640625
1630498050343,0.625,-0.453125,0.640625
1630498050375,0.625,-0.453125,0.640625
1630498050406,0.625,-0.453125,0.640625
1630498050437,0.625,-0.453125,0.640625
1630498050468,0.625,-0.453125,0.640625
1630498050500,0.625,-0.453125,0.640625
1630498050531,0.625,-0.453125,0.640625
1630498050562,0.625,-0.4375,0.640625
1630498050593,0.625,-0.4375,0.65625
1630498050625,0.625,-0.453125,0.640625
1630498050656,0.625,-0.453125,0.640625
1630498050687,0.625,-0.4375,0.640625
1630498050718,0.625,-0.4375,0.640625
1630498050750,0.625,-0.4375,0.640625
1630498050781,0.625,-0.4375,0.65625
1630498050812,0.625,-0.4375,0.65625
1630498050843,0.625,-0.4375,0.640625
1630498050875,0.625,-0.4375,0.640625
1630498050906,0.625,-0.453125,0.640625
1630498050937,0.625,-0.4375,0.640625
1630498050968,0.625,-0.4375,0.640625
1630498051000,0.625,-0.453125,0.640625
1630498051031,0.625,-0.4375,0.640625
1630498051062,0.625,-0.453125,0.640625
1630498051093,0.625,-0.453125,0.640625
1630498051125,0.625,-0.4375,0.640625
1630498051156,0.625,-0.4375,0.640625
1630498051187,0.625,-0.4375,0.640625
1630498051218,0.625,-0.453125,0.640625
1630498051250,0.625,-0.453125,0.640625
1630498051281,0.625,-0.4375,0.640625
1630498051312,0.625,-0.453125,0.640625
1630498051343,0.625,-0.4375,0.640625
1630498051375,0.625,-0.453125,0.640625
1630498051406,0.625,-0.4375,0.640625
1630498051437,0.625,-0.453125,0.640625
1630498051468,0.625,-0.4375,0.640625
1630498051500,0.625,-0.453125,0.640625
1630498051531,0.625,-0.453125,0.640625
1630498051562,0.625,-0.453125,0.640625
1630498051593,0.625,-0.453125,0.640625
1630498051625,0.625,-0.453125,0.640625
1630498051656,0.625,-0.453125,0.65625
1630498051687,0.625,-0.453125,0.640625
1630498051718,0.625,-0.453125,0.640625
1630498051750,0.625,-0.4375,0.640625
1630498051781,0.625,-0.453125,0.640625
1630498051812,0.625,-0.453125,0.640625
1630498051843,0.625,-0.453125,0.640625
1630498051875,0.625,-0.453125,0.640625
1630498051906,0.625,-0.453125,0.640625
1630498051937,0.625,-0.453125,0.640625
1630498051968,0.625,-0.453125,0.640625
1630498052000,0.625,-0.453125,0.640625
1630498052031,0.625,-0.453125,0.640625
1630498052062,0.625,-0.453125,0.640625
1630498052093,0.625,-0.453125,0.640625
1630498052125,0.625,-0.453125,0.640625
1630498052156,0.625,-0.453125,0.640625
1630498052187,0.625,-0.453125,0.640625
1630498052218,0.625,-0.453125,0.640625
1630498052250,0.625,-0.453125,0.640625
1630498052281,0.625,-0.453125,0.640625
1630498052312,0.625,-0.453125,0.640625
1630498052343,0.625,-0.453125,0.640625
1630498052375,0.625,-0.453125,0.640625
1630498052406,0.625,-0.453125,0.640625
1630498052437,0.625,-0.453125,0.640625
1630498052468,0.625,-0.453125,0.640625
1630498052500,0.625,-0.453125,0.640625
1630498052531,0.625,-0.453125,0.640625
1630498052562,0.625,-0.453125,0.640625
1630498052593,0.625,-0.453125,0.640625
1630498052625,0.625,-0.453125,0.640625
1630498052656,0.625,-0.453125,0.640625
1630498052687,0.625,-0.453125,0.640625
1630498052718,0.625,-0.4375,0.640625
1630498052750,0.625,-0.453125,0.640625
1630498052781,0.625,-0.4375,0.640625
1630498052812,0.625,-0.453125,0.640625
1630498052843,0.625,-0.4375,0.640625
1630498052875,0.625,-0.4375,0.640625
1630498052906,0.625,-0.453125,0.640625
1630498052937,0.625,-0.4375,0.640625
1630498052968,0.625,-0.4375,0.640625
1630498053000,0.625,-0.4375,0.640625
1630498053031,0.625,-0.4375,0.640625
1630498053062,0.625,-0.453125,0.640625
1630498053093,0.625,-0.453125,0.640625
1630498053125,0.625,-0.4375,0.640625
1630498053156,0.625,-0.453125,0.640625
1630498053187,0.625,-0.4375,0.640625
1630498053218,0.625,-0.4375,0.640625
1630498053250,0.625,-0.4375,0.640625
1630498053281,0.625,-0.453125,0.640625
1630498053312,0.625,-0.4375,0.640625
1630498053343,0.625,-0.4375,0.640625
1630498053375,0.625,-0.4375,0.640625
1630498053406,0.625,-0.453125,0.640625
1630498053437,0.625,-0.453125,0.640625
1630498053468,0.625,-0.4375,0.640625
1630498053500,0.625,-0.4375,0.640625
1630498053531,0.625,-0.4375,0.65625
1630498053562,0.625,-0.4375,0.640625
1630498053593,0.625,-0.4375,0.640625
1630498053625,0.625,-0.4375,0.640625
1630498053656,0.625,-0.4375,0.640625
1630498053687,0.625,-0.4375,0.640625
1630498053718,0.625,-0.4375,0.640625
1630498053750,0.625,-0.4375,0.640625
1630498053781,0.625,-0.4375,0.640625
1630498053812,0.625,-0.4375,0.640625
1630498053843,0.625,-0.4375,0.640625
1630498053875,0.625,-0.4375,0.640625
1630498053906,0.625,-0.4375,0.640625
1630498053937,0.625,-0.4375,0.640625
1630498053968,0.625,-0.4375,0.640625
1630498054000,0.625,-0.453125,0.640625
1630498054031,0.625,-0.4375,0.640625
1630498054062,0.625,-0.4375,0.640625
1630498054093,0.625,-0.453125,0.640625
1630498054125,0.625,-0.4375,0.640625
1630498054156,0.609375,-0.4375,0.640625
1630498054187,0.625,-0.4375,0.640625
1630498054218,0.625,-0.4375,0.640625
1630498054250,0.625,-0.453125,0.640625
1630498054281,0.625,-0.453125,0.640625
1630498054312,0.625,-0.4375,0.640625
1630498054343,0.625,-0.453125,0.640625
1630498054375,0.625,-0.4375,0.640625
1630498054406,0.625,-0.4375,0.640625
1630498054437,0.625,-0.453125,0.640625
1630498054468,0.625,-0.453125,0.640625
1630498054500,0.625,-0.453125,0.640625
1630498054531,0.625,-0.453125,0.640625
1630498054562,0.625,-0.453125,0.640625
1630498054593,0.625,-0.453125,0.640625
1630498054625,0.625,-0.4375,0.625
1630498054656,0.625,-0.453125,0.640625
1630498054687,0.625,-0.453125,0.640625
1630498054718,0.625,-0.453125,0.640625
1630498054750,0.625,-0.453125,0.640625
1630498054781,0.625,-0.453125,0.640625
1630498054812,0.625,-0.453125,0.640625
1630498054843,0.625,-0.453125,0.640625
1630498054875,0.625,-0.453125,0.640625
1630498054906,0.625,-0.453125,0.640625
1630498054937,0.625,-0.453125,0.640625
1630498054968,0.625,-0.453125,0.640625
1630498055000,0.625,-0.453125,0.640625
1630498055031,0.625,-0.453125,0.640625
1630498055062,0.625,-0.453125,0.640625
1630498055093,0.625,-0.453125,0.640625
1630498055125,0.625,-0.453125,0.640625
1630498055156,0.625,-0.453125,0.640625
1630498055187,0.625,-0.4375,0.640625
1630498055218,0.625,-0.453125,0.640625
1630498055250,0.625,-0.453125,0.640625
1630498055281,0.625,-0.453125,0.640625
1630498055312,0.625,-0.453125,0.640625
1630498055343,0.625,-0.453125,0.640625
1630498055375,0.625,-0.453125,0.640625
1630498055406,0.625,-0.4375,0.640625
1630498055437,0.625,-0.453125,0.640625
1630498055468,0.625,-0.453125,0.640625
1630498055500,0.625,-0.4375,0.640625
1630498055531,0.625,-0.4375,0.640625
1630498055562,0.625,-0.4375,0.640625
1630498055593,0.625,-0.453125,0.640625
1630498055625,0.625,-0.4375,0.640625
1630498055656,0.625,-0.4375,0.640625
1630498055687,0.625,-0.453125,0.640625
1630498055718,0.625,-0.453125,0.640625
1630498055750,0.625,-0.4375,0.640625
1630498055781,0.625,-0.4375,0.640625
1630498055812,0.625,-0.453125,0.640625
1630498055843,0.625,-0.453125,0.640625
1630498055875,0.625,-0.4375,0.640625
1630498055906,0.625,-0.4375,0.640625
1630498055937,0.625,-0.453125,0.640625
1630498055968,0.625,-0.453125,0.640625
1630498056000,0.625,-0.4375,0.640625
1630498056031,0.625,-0.4375,0.640625
1630498056062,0.625,-0.4375,0.640625
1630498056093,0.625,-0.453125,0.640625
1630498056125,0.625,-0.4375,0.640625
1630498056156,0.625,-0.4375,0.640625
1630498056187,0.625,-0.453125,0.640625
1630498056218,0.625,-0.453125,0.640625
1630498056250,0.625,-0.4375,0.640625
1630498056281,0.625,-0.453125,0.640625
1630498056312,0.625,-0.4375,0.640625
1630498056343,0.625,-0.453125,0.640625
1630498056375,0.625,-0.453125,0.640625
1630498056406,0.625,-0.453125,0.640625
1630498056437,0.625,-0.4375,0.640625
1630498056468,0.625,-0.4375,0.640625
1630498056500,0.625,-0.4375,0.640625
1630498056531,0.625,-0.4375,0.640625
1630498056562,0.625,-0.4375,0.640625
1630498056593,0.625,-0.4375,0.65625
1630498056625,0.625,-0.4375,0.640625
1630498056656,0.625,-0.4375,0.640625
1630498056687,0.625,-0.4375,0.640625
1630498056718,0.625,-0.4375,0.640625
1630498056750,0.625,-0.4375,0.640625
1630498056781,0.625,-0.4375,0.640625
1630498056812,0.625,-0.4375,0.640625
1630498056843,0.625,-0.4375,0.640625
1630498056875,0.625,-0.4375,0.640625
1630498056906,0.625,-0.4375,0.65625
1630498056937,0.625,-0.453125,0.640625
1630498056968,0.625,-0.4375,0.640625
1630498057000,0.625,-0.4375,0.640625
1630498057031,0.625,-0.4375,0.640625
1630498057062,0.625,-0.4375,0.640625
1630498057093,0.625,-0.453125,0.640625
1630498057125,0.625,-0.453125,0.640625
1630498057156,0.625,-0.4375,0.640625
1630498057187,0.625,-0.4375,0.640625
1630498057218,0.625,-0.453125,0.640625
1630498057250,0.625,-0.4375,0.640625
1630498057281,0.625,-0.453125,0.640625
1630498057312,0.625,-0.453125,0.640625
1630498057343,0.625,-0.453125,0.640625
1630498057375,0.625,-0.4375,0.640625
1630498057406,0.625,-0.453125,0.640625
1630498057437,0.625,-0.453125,0.640625
1630498057468,0.625,-0.453125,0.640625
1630498057500,0.625,-0.453125,0.640625
1630498057531,0.625,-0.453125,0.640625
1630498057562,0.625,-0.4375,0.640625
1630498057593,0.625,-0.453125,0.640625
1630498057625,0.625,-0.453125,0.640625
1630498057656,0.625,-0.453125,0.640625
1630498057687,0.625,-0.453125,0.640625
1630498057718,0.625,-0.453125,0.640625
1630498057750,0.625,-0.453125,0.640625
1630498057781,0.625,-0.453125,0.640625
1630498057812,0.625,-0.453125,0.640625
1630498057843,0.625,-0.453125,0.640625
1630498057875,0.625,-0.453125,0.640625
1630498057906,0.625,-0.453125,0.640625
1630498057937,0.625,-0.453125,0.640625
1630498057968,0.625,-0.453125,0.640625
1630498058000,0.625,-0.453125,0.640625
1630498058031,0.625,-0.453125,0.640625
1630498058062,0.625,-0.453125,0.640625
1630498058093,0.625,-0.453125,0.640625
1630498058125,0.625,-0.453125,0.640625
1630498058156,0.625,-0.453125,0.640625
1630498058187,0.625,-0.453125,0.640625
1630498058218,0.625,-0.453125,0.640625
1630498058250,0.625,-0.453125,0.640625
1630498058281,0.625,-0.4375,0.640625
1630498058312,0.625,-0.453125,0.640625
1630498058343,0.625,-0.453125,0.640625
1630498058375,0.625,-0.453125,0.640625
1630498058406,0.625,-0.453125,0.640625
1630498058437,0.625,-0.4375,0.640625
1630498058468,0.625,-0.4375,0.640625
1630498058500,0.625,-0.453125,0.640625
1630498058531,0.625,-0.4375,0.640625
1630498058562,0.625,-0.453125,0.640625
1630498058593,0.625,-0.4375,0.640625
1630498058625,0.625,-0.4375,0.640625
1630498058656,0.625,-0.453125,0.640625
1630498058687,0.625,-0.453125,0.640625
1630498058718,0.625,-0.4375,0.640625
1630498058750,0.625,-0.4375,0.640625
1630498058781,0.625,-0.4375,0.640625
1630498058812,0.625,-0.4375,0.640625
1630498058843,0.625,-0.4375,0.640625
1630498058875,0.625,-0.4375,0.65625
1630498058906,0.625,-0.4375,0.640625
1630498058937,0.625,-0.4375,0.640625
1630498058968,0.625,-0.4375,0.640625
1630498059000,0.625,-0.4375,0.640625
1630498059031,0.625,-0.4375,0.640625
1630498059062,0.625,-0.4375,0.640625
1630498059093,0.625,-0.4375,0.640625
1630498059125,0.625,-0.4375,0.640625
1630498059156,0.625,-0.4375,0.640625
1630498059187,0.625,-0.4375,0.640625
1630498059218,0.625,-0.4375,0.640625
1630498059250,0.625,-0.4375,0.640625
1630498059281,0.625,-0.4375,0.640625
1630498059312,0.625,-0.4375,0.640625
1630498059343,0.625,-0.4375,0.640625
1630498059375,0.625,-0.4375,0.640625
1630498059406,0.625,-0.4375,0.640625
1630498059437,0.625,-0.4375,0.640625
1630498059468,0.625,-0.4375,0.640625
1630498059500,0.625,-0.4375,0.640625
1630498059531,0.625,-0.4375,0.640625
1630498059562,0.625,-0.4375,0.640625
1630498059593,0.625,-0.4375,0.640625
1630498059625,0.625,-0.453125,0.640625
1630498059656,0.625,-0.453125,0.640625
1630498059687,0.625,-0.4375,0.640625
1630498059718,0.625,-0.4375,0.640625
1630498059750,0.625,-0.4375,0.640625
1630498059781,0.625,-0.4375,0.640625
1630498059812,0.625,-0.4375,0.640625
1630498059843,0.625,-0.453125,0.640625
1630498059875,0.625,-0.4375,0.640625
1630498059906,0.625,-0.4375,0.640625
1630498059937,0.625,-0.4375,0.640625
1630498059968,0.625,-0.453125,0.640625
1630498060000,0.625,-0.453125,0.640625
1630498060031,0.625,-0.4375,0.640625
1630498060062,0.625,-0.4375,0.640625
1630498060093,0.625,-0.453125,0.640625
1630498060125,0.625,-0.453125,0.640625
1630498060156,0.625,-0.453125,0.640625
1630498060187,0.625,-0.453125,0.640625
1630498060218,0.625,-0.453125,0.640625
1630498060250,0.625,-0.453125,0.640625
1630498060281,0.625,-0.453125,0.640625
1630498060312,0.625,-0.453125,0.640625
1630498060343,0.625,-0.453125,0.640625
1630498060375,0.625,-0.453125,0.640625
1630498060406,0.625,-0.453125,0.640625
1630498060437,0.625,-0.453125,0.640625
1630498060468,0.625,-0.453125,0.640625
1630498060500,0.625,-0.453125,0.640625
1630498060531,0.625,-0.453125,0.625
1630498060562,0.625,-0.453125,0.640625
1630498060593,0.625,-0.453125,0.640625
1630498060625,0.625,-0.453125,0.640625
1630498060656,0.625,-0.453125,0.640625
1630498060687,0.625,-0.453125,0.640625
1630498060718,0.625,-0.453125,0.640625
1630498060750,0.625,-0.453125,0.640625
1630498060781,0.625,-0.453125,0.640625
1630498060812,0.625,-0.453125,0.640625
1630498060843,0.625,-0.453125,0.640625
1630498060875,0.625,-0.453125,0.640625
1630498060906,0.625,-0.453125,0.640625
1630498060937,0.625,-0.453125,0.640625
1630498060968,0.625,-0.4375,0.640625
1630498061000,0.625,-0.453125,0.640625
1630498061031,0.625,-0.453125,0.640625
1630498061062,0.625,-0.453125,0.640625
1630498061093,0.625,-0.4375,0.640625
1630498061125,0.625,-0.453125,0.640625
1630498061156,0.625,-0.4375,0.640625
1630498061187,0.625,-0.4375,0.640625
1630498061218,0.625,-0.4375,0.640625
1630498061250,0.625,-0.4375,0.640625
1630498061281,0.625,-0.4375,0.640625
1630498061312,0.625,-0.4375,0.640625
1630498061343,0.625,-0.4375,0.640625
1630498061375,0.625,-0.4375,0.640625
1630498061406,0.625,-0.4375,0.640625
1630498061437,0.625,-0.4375,0.640625
1630498061468,0.625,-0.4375,0.640625
1630498061500,0.625,-0.4375,0.640625
1630498061531,0.625,-0.453125,0.640625
1630498061562,0.625,-0.4375,0.640625
1630498061593,0.625,-0.453125,0.640625
1630498061625,0.625,-0.4375,0.640625
1630498061656,0.625,-0.4375,0.640625
1630498061687,0.625,-0.4375,0.640625
1630498061718,0.625,-0.4375,0.640625
1630498061750,0.625,-0.4375,0.640625
1630498061781,0.625,-0.4375,0.640625
1630498061812,0.625,-0.4375,0.640625
1630498061843,0.625,-0.4375,0.640625
1630498061875,0.625,-0.4375,0.640625
1630498061906,0.625,-0.4375,0.640625
1630498061937,0.625,-0.4375,0.65625
1630498061968,0.625,-0.4375,0.640625
1630498062000,0.625,-0.4375,0.640625
1630498062031,0.625,-0.4375,0.640625
1630498062062,0.625,-0.4375,0.640625
1630498062093,0.625,-0.4375,0.640625
1630498062125,0.625,-0.4375,0.640625
1630498062156,0.625,-0.4375,0.640625
1630498062187,0.625,-0.4375,0.640625
1630498062218,0.625,-0.4375,0.640625
1630498062250,0.625,-0.4375,0.640625
1630498062281,0.625,-0.4375,0.640625
1630498062312,0.625,-0.4375,0.640625
1630498062343,0.625,-0.4375,0.640625
1630498062375,0.625,-0.4375,0.640625
1630498062406,0.625,-0.4375,0.640625
1630498062437,0.625,-0.4375,0.65625
1630498062468,0.625,-0.4375,0.640625
1630498062500,0.625,-0.4375,0.640625
1630498062531,0.625,-0.4375,0.640625
1630498062562,0.625,-0.4375,0.640625
1630498062593,0.625,-0.4375,0.640625
1630498062625,0.625,-0.4375,0.640625
1630498062656,0.625,-0.4375,0.640625
1630498062687,0.625,-0.4375,0.640625
1630498062718,0.625,-0.4375,0.640625
1630498062750,0.625,-0.4375,0.640625
1630498062781,0.625,-0.453125,0.640625
1630498062812,0.625,-0.453125,0.640625
1630498062843,0.625,-0.4375,0.640625
1630498062875,0.625,-0.453125,0.640625
1630498062906,0.625,-0.453125,0.640625
1630498062937,0.625,-0.453125,0.640625
1630498062968,0.625,-0.453125,0.640625
1630498063000,0.625,-0.453125,0.640625
1630498063031,0.625,-0.453125,0.640625
1630498063062,0.625,-0.4375,0.640625
1630498063093,0.625,-0.453125,0.640625
1630498063125,0.625,-0.453125,0.640625
1630498063156,0.625,-0.453125,0.640625
1630498063187,0.625,-0.4375,0.640625
1630498063218,0.625,-0.453125,0.640625
1630498063250,0.625,-0.453125,0.640625
1630498063281,0.625,-0.453125,0.640625
1630498063312,0.625,-0.453125,0.640625
1630498063343,0.625,-0.453125,0.640625
1630498063375,0.625,-0.453125,0.640625
1630498063406,0.625,-0.453125,0.640625
1630498063437,0.625,-0.453125,0.640625
1630498063468,0.625,-0.453125,0.640625
1630498063500,0.625,-0.453125,0.640625
1630498063531,0.625,-0.4375,0.640625
1630498063562,0.625,-0.453125,0.640625
1630498063593,0.625,-0.4375,0.640625
1630498063625,0.625,-0.4375,0.640625
1630498063656,0.625,-0.4375,0.640625
1630498063687,0.625,-0.453125,0.640625
1630498063718,0.625,-0.453125,0.640625
1630498063750,0.625,-0.453125,0.640625
1630498063781,0.625,-0.4375,0.640625
1630498063812,0.625,-0.4375,0.640625
1630498063843,0.625,-0.453125,0.640625
1630498063875,0.625,-0.4375,0.640625
1630498063906,0.625,-0.453125,0.640625
1630498063937,0.625,-0.453125,0.640625
1630498063968,0.625,-0.4375,0.640625
1630498064000,0.625,-0.4375,0.640625
1630498064031,0.625,-0.4375,0.640625
1630498064062,0.625,-0.453125,0.640625
1630498064093,0.625,-0.4375,0.640625
1630498064125,0.625,-0.453125,0.640625
1630498064156,0.625,-0.4375,0.640625
1630498064187,0.625,-0.4375,0.640625
1630498064218,0.625,-0.4375,0.640625
1630498064250,0.625,-0.4375,0.640625
1630498064281,0.625,-0.4375,0.640625
1630498064312,0.625,-0.4375,0.640625
1630498064343,0.625,-0.4375,0.640625
1630498064375,0.625,-0.4375,0.640625
1630498064406,0.625,-0.4375,0.640625
1630498064437,0.625,-0.4375,0.640625
1630498064468,0.625,-0.4375,0.65625
1630498064500,0.625,-0.4375,0.65625
1630498064531,0.625,-0.4375,0.640625
1630498064562,0.625,-0.4375,0.640625
1630498064593,0.625,-0.4375,0.640625
1630498064625,0.625,-0.4375,0.640625
1630498064656,0.625,-0.4375,0.640625
1630498064687,0.625,-0.4375,0.640625
1630498064718,0.625,-0.4375,0.640625
1630498064750,0.625,-0.4375,0.640625
1630498064781,0.625,-0.4375,0.640625
1630498064812,0.625,-0.4375,0.640625
1630498064843,0.625,-0.4375,0.640625
1630498064875,0.625,-0.4375,0.65625
1630498064906,0.625,-0.4375,0.640625
1630498064937,0.625,-0.4375,0.640625
1630498064968,0.625,-0.4375,0.640625
1630498065000,0.625,-0.4375,0.640625
1630498065031,0.625,-0.4375,0.640625
1630498065062,0.625,-0.4375,0.640625
1630498065093,0.625,-0.4375,0.640625
1630498065125,0.625,-0.4375,0.640625
1630498065156,0.625,-0.4375,0.640625
1630498065187,0.625,-0.4375,0.640625
1630498065218,0.625,-0.453125,0.640625
1630498065250,0.625,-0.4375,0.640625
1630498065281,0.625,-0.4375,0.640625
1630498065312,0.625,-0.4375,0.65625
1630498065343,0.625,-0.4375,0.640625
1630498065375,0.625,-0.4375,0.640625
1630498065406,0.625,-0.4375,0.640625
1630498065437,0.625,-0.4375,0.640625
1630498065468,0.625,-0.4375,0.640625
1630498065500,0.625,-0.4375,0.640625
1630498065531,0.625,-0.453125,0.640625
1630498065562,0.625,-0.4375,0.640625
1630498065593,0.625,-0.4375,0.640625
1630498065625,0.625,-0.453125,0.640625
1630498065656,0.625,-0.453125,0.640625
1630498065687,0.625,-0.4375,0.640625
1630498065718,0.625,-0.4375,0.640625
1630498065750,0.625,-0.453125,0.640625
1630498065781,0.625,-0.453125,0.640625
1630498065812,0.625,-0.453125,0.640625
1630498065843,0.625,-0.4375,0.640625
1630498065875,0.625,-0.453125,0.640625
1630498065906,0.625,-0.453125,0.640625
1630498065937,0.625,-0.453125,0.640625
1630498065968,0.625,-0.453125,0.640625
1630498066000,0.625,-0.453125,0.640625
1630498066031,0.625,-0.453125,0.640625
1630498066062,0.625,-0.453125,0.640625
1630498066093,0.625,-0.453125,0.640625
1630498066125,0.625,-0.4375,0.640625
1630498066156,0.625,-0.453125,0.640625
1630498066187,0.625,-0.453125,0.640625
1630498066218,0.625,-0.453125,0.640625
1630498066250,0.625,-0.453125,0.640625
1630498066281,0.625,-0.453125,0.640625
1630498066312,0.625,-0.453125,0.640625
1630498066343,0.625,-0.453125,0.640625
1630498066375,0.625,-0.453125,0.640625
1630498066406,0.625,-0.4375,0.640625
1630498066437,0.625,-0.4375,0.640625
1630498066468,0.625,-0.4375,0.640625
1630498066500,0.625,-0.4375,0.640625
1630498066531,0.625,-0.4375,0.640625
1630498066562,0.625,-0.4375,0.640625
1630498066593,0.625,-0.453125,0.640625
1630498066625,0.625,-0.453125,0.640625
1630498066656,0.625,-0.453125,0.640625
1630498066687,0.625,-0.453125,0.640625
1630498066718,0.625,-0.453125,0.640625
1630498066750,0.625,-0.4375,0.640625
1630498066781,0.625,-0.453125,0.640625
1630498066812,0.625,-0.453125,0.640625
1630498066843,0.625,-0.4375,0.640625
1630498066875,0.625,-0.453125,0.640625
1630498066906,0.625,-0.4375,0.640625
1630498066937,0.625,-0.453125,0.640625
1630498066968,0.625,-0.4375,0.640625
1630498067000,0.625,-0.4375,0.640625
1630498067031,0.625,-0.4375,0.640625
1630498067062,0.625,-0.4375,0.640625
1630498067093,0.625,-0.453125,0.640625
1630498067125,0.625,-0.4375,0.640625
1630498067156,0.625,-0.453125,0.640625
1630498067187,0.625,-0.4375,0.640625
1630498067218,0.625,-0.4375,0.640625
1630498067250,0.625,-0.4375,0.65625
1630498067281,0.625,-0.4375,0.640625
1630498067312,0.625,-0.4375,0.640625
1630498067343,0.640625,-0.4375,0.640625
1630498067375,0.625,-0.4375,0.640625
1630498067406,0.625,-0.4375,0.640625
1630498067437,0.625,-0.4375,0.640625
1630498067468,0.625,-0.4375,0.640625
1630498067500,0.625,-0.453125,0.640625
1630498067531,0.625,-0.4375,0.640625
1630498067562,0.625,-0.4375,0.640625
1630498067593,0.625,-0.4375,0.640625
1630498067625,0.625,-0.4375,0.640625
1630498067656,0.625,-0.4375,0.640625
1630498067687,0.625,-0.4375,0.640625
1630498067718,0.625,-0.4375,0.640625
1630498067750,0.625,-0.4375,0.640625
1630498067781,0.625,-0.4375,0.640625
1630498067812,0.625,-0.4375,0.640625
1630498067843,0.625,-0.4375,0.640625
1630498067875,0.625,-0.4375,0.640625
1630498067906,0.625,-0.4375,0.640625
1630498067937,0.625,-0.453125,0.640625
1630498067968,0.625,-0.4375,0.640625
1630498068000,0.625,-0.4375,0.640625
1630498068031,0.625,-0.4375,0.640625
1630498068062,0.625,-0.4375,0.640625
1630498068093,0.625,-0.453125,0.640625
1630498068125,0.625,-0.4375,0.640625
1630498068156,0.625,-0.4375,0.640625
1630498068187,0.625,-0.4375,0.640625
1630498068218,0.625,-0.4375,0.640625
1630498068250,0.625,-0.453125,0.640625
1630498068281,0.625,-0.4375,0.640625
1630498068312,0.625,-0.4375,0.640625
1630498068343,0.625,-0.4375,0.640625
1630498068375,0.625,-0.4375,0.640625
1630498068406,0.625,-0.4375,0.640625
1630498068437,0.625,-0.453125,0.640625
1630498068468,0.625,-0.453125,0.640625
1630498068500,0.625,-0.4375,0.640625
1630498068531,0.625,-0.453125,0.640625
1630498068562,0.625,-0.453125,0.640625
1630498068593,0.625,-0.4375,0.640625
1630498068625,0.625,-0.453125,0.640625
1630498068656,0.625,-0.453125,0.640625
1630498068687,0.625,-0.453125,0.640625
1630498068718,0.625,-0.453125,0.640625
1630498068750,0.625,-0.453125,0.640625
1630498068781,0.625,-0.453125,0.640625
1630498068812,0.625,-0.453125,0.640625
1630498068843,0.625,-0.453125,0.640625
1630498068875,0.625,-0.453125,0.640625
1630498068906,0.625,-0.453125,0.640625
1630498068937,0.625,-0.453125,0.640625
1630498068968,0.625,-0.4375,0.640625
1630498069000,0.625,-0.453125,0.640625
1630498069031,0.625,-0.453125,0.640625
1630498069062,0.625,-0.453125,0.640625
1630498069093,0.625,-0.453125,0.640625
1630498069125,0.625,-0.453125,0.640625
1630498069156,0.625,-0.4375,0.640625
1630498069187,0.625,-0.4375,0.640625
1630498069218,0.625,-0.4375,0.640625
1630498069250,0.625,-0.4375,0.640625
1630498069281,0.625,-0.453125,0.640625
1630498069312,0.625,-0.453125,0.640625
1630498069343,0.625,-0.4375,0.640625
1630498069375,0.625,-0.453125,0.640625
1630498069406,0.625,-0.4375,0.640625
1630498069437,0.625,-0.4375,0.640625
1630498069468,0.625,-0.4375,0.640625
1630498069500,0.625,-0.4375,0.640625
1630498069531,0.625,-0.4375,0.640625
1630498069562,0.625,-0.4375,0.640625
1630498069593,0.625,-0.4375,0.640625
1630498069625,0.625,-0.453125,0.640625
1630498069656,0.625,-0.4375,0.640625
1630498069687,0.625,-0.4375,0.640625
1630498069718,0.625,-0.453125,0.640625
1630498069750,0.625,-0.4375,0.640625
1630498069781,0.625,-0.4375,0.640625
1630498069812,0.625,-0.4375,0.640625
1630498069843,0.625,-0.4375,0.640625
1630498069875,0.625,-0.4375,0.640625
1630498069906,0.625,-0.4375,0.640625
1630498069937,0.625,-0.4375,0.640625
1630498069968,0.625,-0.4375,0.640625
1630498070000,0.625,-0.4375,0.640625
1630498070031,0.625,-0.4375,0.640625
1630498070062,0.625,-0.4375,0.640625
1630498070093,0.625,-0.4375,0.640625
1630498070125,0.625,-0.4375,0.640625
1630498070156,0.625,-0.4375,0.640625
1630498070187,0.625,-0.4375,0.640625
1630498070218,0.625,-0.4375,0.640625
1630498070250,0.625,-0.4375,0.65625
1630498070281,0.625,-0.453125,0.640625
1630498070312,0.625,-0.4375,0.640625
1630498070343,0.625,-0.4375,0.640625
1630498070375,0.625,-0.4375,0.640625
1630498070406,0.625,-0.4375,0.640625
1630498070437,0.625,-0.4375,0.640625
1630498070468,0.625,-0.4375,0.640625
1630498070500,0.625,-0.4375,0.640625
1630498070531,0.625,-0.4375,0.640625
1630498070562,0.625,-0.4375,0.640625
1630498070593,0.625,-0.4375,0.640625
1630498070625,0.625,-0.4375,0.640625
1630498070656,0.625,-0.4375,0.640625
1630498070687,0.625,-0.4375,0.640625
1630498070718,0.625,-0.4375,0.640625
1630498070750,0.625,-0.4375,0.640625
1630498070781,0.625,-0.4375,0.640625
1630498070812,0.625,-0.4375,0.640625
1630498070843,0.625,-0.4375,0.640625
1630498070875,0.625,-0.4375,0.640625
1630498070906,0.625,-0.4375,0.65625
1630498070937,0.625,-0.4375,0.640625
1630498070968,0.625,-0.453125,0.640625
1630498071000,0.625,-0.453125,0.640625
1630498071031,0.625,-0.453125,0.640625
1630498071062,0.625,-0.453125,0.640625
1630498071093,0.625,-0.453125,0.640625
1630498071125,0.625,-0.4375,0.640625
1630498071156,0.625,-0.4375,0.640625
1630498071187,0.625,-0.453125,0.640625
1630498071218,0.625,-0.453125,0.640625
1630498071250,0.625,-0.453125,0.640625
1630498071281,0.625,-0.453125,0.640625
1630498071312,0.625,-0.453125,0.640625
1630498071343,0.625,-0.4375,0.640625
1630498071375,0.625,-0.453125,0.640625
1630498071406,0.625,-0.453125,0.640625
1630498071437,0.625,-0.453125,0.640625
1630498071468,0.625,-0.453125,0.640625
1630498071500,0.625,-0.453125,0.640625
1630498071531,0.625,-0.453125,0.640625
1630498071562,0.625,-0.453125,0.640625
1630498071593,0.625,-0.453125,0.640625
1630498071625,0.625,-0.453125,0.640625
1630498071656,0.625,-0.453125,0.640625
1630498071687,0.625,-0.453125,0.640625
1630498071718,0.625,-0.453125,0.640625
1630498071750,0.625,-0.453125,0.640625
1630498071781,0.625,-0.453125,0.640625
1630498071812,0.625,-0.453125,0.640625
1630498071843,0.625,-0.4375,0.640625
1630498071875,0.625,-0.453125,0.640625
1630498071906,0.625,-0.453125,0.640625
1630498071937,0.625,-0.453125,0.640625
1630498071968,0.625,-0.453125,0.640625
1630498072000,0.625,-0.453125,0.640625
1630498072031,0.625,-0.453125,0.640625
1630498072062,0.625,-0.4375,0.640625
