timestamp,ax,ay,az
1630411793156,0.90625,-0.3125,-0.28125
1630411793187,0.921875,-0.328125,-0.296875
1630411793218,0.921875,-0.3125,-0.296875
1630411793250,0.90625,-0.3125,-0.28125
1630411793281,0.921875,-0.328125,-0.28125
1630411793312,0.921875,-0.3125,-0.28125
1630411793343,0.921875,-0.3125,-0.28125
1630411793375,0.921875,-0.3125,-0.28125
1630411793406,0.921875,-0.328125,-0.28125
1630411793437,0.90625,-0.328125,-0.28125
1630411793468,0.921875,-0.3125,-0.28125
1630411793500,0.921875,-0.328125,-0.28125
1630411793531,0.921875,-0.3125,-0.28125
1630411793562,0.921875,-0.3125,-0.28125
1630411793593,0.921875,-0.328125,-0.28125
1630411793625,0.921875,-0.328125,-0.28125
1630411793656,0.921875,-0.3125,-0.28125
1630411793687,0.90625,-0.328125,-0.28125
1630411793718,0.921875,-0.3125,-0.28125
1630411793750,0.921875,-0.3125,-0.28125
1630411793781,0.921875,-0.3125,-0.28125
1630411793812,0.921875,-0.3125,-0.28125
1630411793843,0.921875,-0.3125,-0.28125
1630411793875,0.921875,-0.3125,-0.28125
1630411793906,0.921875,-0.3125,-0.28125
1630411793937,0.921875,-0.3125,-0.28125
1630411793968,0.921875,-0.328125,-0.28125
1630411794000,0.921875,-0.328125,-0.28125
1630411794031,0.921875,-0.3125,-0.28125
1630411794062,0.921875,-0.3125,-0.28125
1630411794093,0.90625,-0.3125,-0.28125
1630411794125,0.921875,-0.3125,-0.28125
1630411794156,0.90625,-0.3125,-0.28125
1630411794187,0.921875,-0.328125,-0.28125
1630411794218,0.921875,-0.328125,-0.28125
1630411794250,0.921875,-0.3125,-0.28125
1630411794281,0.921875,-0.328125,-0.28125
1630411794312,0.921875,-0.328125,-0.28125
1630411794343,0.921875,-0.3125,-0.28125
1630411794375,0.921875,-0.328125,-0.28125
1630411794406,0.921875,-0.328125,-0.28125
1630411794437,0.90625,-0.328125,-0.28125
1630411794468,0.90625,-0.328125,-0.28125
1630411794500,0.90625,-0.328125,-0.28125
1630411794531,0.90625,-0.328125,-0.28125
1630411794562,0.921875,-0.328125,-0.28125
1630411794593,0.921875,-0.328125,-0.296875
1630411794625,0.90625,-0.328125,-0.28125
1630411794656,0.90625,-0.328125,-0.28125
1630411794687,0.921875,-0.328125,-0.28125
1630411794718,0.90625,-0.328125,-0.296875
1630411794750,0.90625,-0.328125,-0.28125
1630411794781,0.921875,-0.328125,-0.28125
1630411794812,0.90625,-0.328125,-0.28125
1630411794843,0.90625,-0.328125,-0.296875
1630411794875,0.90625,-0.328125,-0.296875
1630411794906,0.90625,-0.328125,-0.296875
1630411794937,0.90625,-0.328125,-0.296875
1630411794968,0.90625,-0.328125,-0.296875
1630411795000,0.90625,-0.328125,-0.296875
1630411795031,0.921875,-0.328125,-0.296875
1630411795062,0.921875,-0.328125,-0.296875
1630411795093,0.90625,-0.328125,-0.28125
1630411795125,0.90625,-0.328125,-0.296875
1630411795156,0.921875,-0.328125,-0.296875
1630411795187,0.921875,-0.328125,-0.296875
1630411795218,0.921875,-0.328125,-0.296875
1630411795250,0.90625,-0.328125,-0.28125
1630411795281,0.90625,-0.328125,-0.28125
1630411795312,0.90625,-0.3125,-0.296875
1630411795343,0.90625,-0.3125,-0.28125
1630411795375,0.90625,-0.328125,-0.28125
1630411795406,0.921875,-0.328125,-0.28125
1630411795437,0.921875,-0.3125,-0.28125
1630411795468,0.90625,-0.3125,-0.28125
1630411795500,0.921875,-0.3125,-0.28125
1630411795531,0.921875,-0.3125,-0.28125
1630411795562,0.90625,-0.3125,-0.28125
1630411795593,0.921875,-0.328125,-0.28125
1630411795625,0.921875,-0.3125,-0.28125
1630411795656,0.921875,-0.3125,-0.296875
1630411795687,0.90625,-0.328125,-0.296875
1630411795718,0.921875,-0.328125,-0.296875
1630411795750,0.90625,-0.3125,-0.28125
1630411795781,0.921875,-0.3125,-0.28125
1630411795812,0.921875,-0.3125,-0.296875
1630411795843,0.921875,-0.3125,-0.28125
1630411795875,0.90625,-0.3125,-0.28125
1630411795906,0.921875,-0.3125,-0.296875
1630411795937,0.921875,-0.3125,-0.296875
1630411795968,0.90625,-0.3125,-0.296875
1630411796000,0.90625,-0.328125,-0.28125
1630411796031,0.921875,-0.328125,-0.28125
1630411796062,0.921875,-0.3125,-0.28125
1630411796093,0.90625,-0.3125,-0.28125
1630411796125,0.921875,-0.3125,-0.296875
1630411796156,0.921875,-0.3125,-0.296875
1630411796187,0.953125,-0.3125,-0.328125
1630411796218,0.921875,-0.296875,-0.265625
1630411796250,0.90625,-0.296875,-0.25
1630411796281,1.0,-0.296875,-0.28125
1630411796312,0.84375,-0.25,-0.21875
1630411796343,0.859375,-0.265625,-0.203125
1630411796375,0.96875,-0.25,-0.25
1630411796406,1.015625,-0.234375,-0.265625
1630411796437,0.984375,-0.25,-0.265625
1630411796468,0.953125,-0.21875,-0.234375
1630411796500,0.984375,-0.15625,-0.15625
1630411796531,1.09375,-0.203125,-0.140625
1630411796562,0.984375,-0.21875,-0.078125
1630411796593,0.84375,-0.328125,-0.140625
1630411796625,0.984375,-0.28125,-0.1875
1630411796656,1.0,-0.234375,-0.15625
1630411796687,1.0,-0.1875,-0.15625
1630411796718,1.015625,-0.203125,-0.09375
1630411796750,1.0,-0.203125,-0.078125
1630411796781,0.984375,-0.1875,-0.0625
1630411796812,0.96875,-0.171875,-0.03125
1630411796843,0.921875,-0.140625,-0.046875
1630411796875,0.921875,-0.140625,-0.109375
1630411796906,0.875,-0.171875,-0.140625
1630411796937,0.9375,-0.171875,-0.140625
1630411796968,0.984375,-0.171875,-0.171875
1630411797000,1.0625,-0.1875,-0.203125
1630411797031,1.015625,-0.203125,-0.15625
1630411797062,0.984375,-0.1875,-0.109375
1630411797093,0.9375,-0.140625,-0.0625
1630411797125,0.9375,-0.125,-0.0625
1630411797156,1.0,-0.15625,-0.078125
1630411797187,1.046875,-0.171875,-0.125
1630411797218,1.0625,-0.171875,-0.140625
1630411797250,1.0,-0.171875,-0.125
1630411797281,0.96875,-0.15625,-0.109375
1630411797312,1.0,-0.15625,-0.140625
1630411797343,0.984375,-0.15625,-0.203125
1630411797375,1.03125,-0.1875,-0.15625
1630411797406,0.828125,-0.28125,-0.40625
1630411797437,0.859375,-0.15625,-0.5
1630411797468,1.3125,-0.15625,-0.234375
1630411797500,1.015625,-0.34375,-0.125
1630411797531,1.09375,-0.3125,-0.203125
1630411797562,0.828125,-0.28125,-0.4375
1630411797593,0.859375,-0.28125,-0.3125
1630411797625,0.8125,-0.3125,-0.234375
1630411797656,0.78125,-0.28125,-0.390625
1630411797687,0.796875,-0.3125,-0.515625
1630411797718,0.84375,-0.265625,-0.703125
1630411797750,0.953125,-0.28125,-0.65625
1630411797781,0.90625,-0.265625,-0.5625
1630411797812,0.78125,-0.203125,-0.46875
1630411797843,0.8125,-0.203125,-0.46875
1630411797875,0.890625,-0.21875,-0.484375
1630411797906,0.875,-0.265625,-0.40625
1630411797937,0.875,-0.28125,-0.390625
1630411797968,0.921875,-0.296875,-0.34375
1630411798000,0.9375,-0.28125,-0.40625
1630411798031,0.828125,-0.234375,-0.359375
1630411798062,0.875,-0.25,-0.328125
1630411798093,0.890625,-0.234375,-0.34375
1630411798125,0.9375,-0.234375,-0.34375
1630411798156,0.875,-0.25,-0.296875
1630411798187,0.890625,-0.25,-0.296875
1630411798218,0.921875,-0.265625,-0.34375
1630411798250,0.921875,-0.25,-0.34375
1630411798281,0.921875,-0.25,-0.34375
1630411798312,0.921875,-0.234375,-0.34375
1630411798343,0.921875,-0.25,-0.34375
1630411798375,0.921875,-0.25,-0.34375
1630411798406,0.90625,-0.25,-0.34375
1630411798437,0.90625,-0.25,-0.34375
1630411798468,0.9375,-0.234375,-0.34375
1630411798500,0.921875,-0.234375,-0.328125
1630411798531,0.921875,-0.25,-0.34375
1630411798562,0.921875,-0.25,-0.34375
1630411798593,0.90625,-0.25,-0.359375
1630411798625,0.90625,-0.25,-0.359375
1630411798656,0.921875,-0.234375,-0.34375
1630411798687,0.921875,-0.234375,-0.34375
1630411798718,0.921875,-0.234375,-0.34375
1630411798750,0.921875,-0.234375,-0.34375
1630411798781,0.921875,-0.25,-0.34375
1630411798812,0.921875,-0.25,-0.34375
1630411798843,0.90625,-0.25,-0.328125
1630411798875,0.921875,-0.25,-0.34375
1630411798906,0.921875,-0.25,-0.328125
1630411798937,0.921875,-0.25,-0.328125
1630411798968,0.921875,-0.25,-0.328125
1630411799000,0.921875,-0.25,-0.328125
1630411799031,0.921875,-0.25,-0.328125
1630411799062,0.921875,-0.234375,-0.34375
1630411799093,0.921875,-0.234375,-0.328125
1630411799125,0.921875,-0.234375,-0.34375
1630411799156,0.921875,-0.234375,-0.328125
1630411799187,0.921875,-0.25,-0.328125
1630411799218,0.921875,-0.25,-0.328125
1630411799250,0.921875,-0.25,-0.328125
1630411799281,0.921875,-0.25,-0.328125
1630411799312,0.921875,-0.25,-0.328125
1630411799343,0.921875,-0.25,-0.34375
1630411799375,0.921875,-0.234375,-0.34375
1630411799406,0.921875,-0.234375,-0.34375
1630411799437,0.921875,-0.234375,-0.34375
1630411799468,0.921875,-0.25,-0.34375
1630411799500,0.921875,-0.25,-0.328125
1630411799531,0.921875,-0.25,-0.328125
1630411799562,0.921875,-0.234375,-0.34375
1630411799593,0.921875,-0.234375,-0.34375
1630411799625,0.921875,-0.234375,-0.34375
1630411799656,0.921875,-0.234375,-0.34375
1630411799687,0.921875,-0.234375,-0.34375
1630411799718,0.921875,-0.25,-0.328125
1630411799750,0.921875,-0.25,-0.34375
1630411799781,0.921875,-0.25,-0.328125
1630411799812,0.90625,-0.25,-0.328125
1630411799843,0.921875,-0.25,-0.34375
1630411799875,0.921875,-0.25,-0.34375
1630411799906,0.921875,-0.25,-0.34375
1630411799937,0.921875,-0.25,-0.34375
1630411799968,0.921875,-0.25,-0.34375
1630411800000,0.921875,-0.25,-0.328125
1630411800031,0.921875,-0.25,-0.328125
1630411800062,0.921875,-0.25,-0.34375
1630411800093,0.921875,-0.25,-0.34375
1630411800125,0.921875,-0.25,-0.34375
1630411800156,0.921875,-0.25,-0.34375
1630411800187,0.921875,-0.25,-0.34375
1630411800218,0.921875,-0.25,-0.34375
1630411800250,0.90625,-0.25,-0.34375
1630411800281,0.921875,-0.25,-0.328125
1630411800312,0.921875,-0.25,-0.34375
1630411800343,0.921875,-0.25,-0.34375
1630411800375,0.90625,-0.25,-0.34375
1630411800406,0.921875,-0.25,-0.34375
1630411800437,0.921875,-0.25,-0.34375
1630411800468,0.921875,-0.25,-0.34375
1630411800500,0.921875,-0.25,-0.34375
1630411800531,0.90625,-0.25,-0.34375
1630411800562,0.90625,-0.265625,-0.34375
1630411800593,0.90625,-0.265625,-0.34375
1630411800625,0.921875,-0.25,-0.34375
1630411800656,0.921875,-0.25,-0.34375
1630411800687,0.921875,-0.25,-0.359375
1630411800718,0.90625,-0.25,-0.359375
1630411800750,0.90625,-0.25,-0.34375
1630411800781,0.921875,-0.25,-0.34375
1630411800812,0.90625,-0.25,-0.34375
1630411800843,0.90625,-0.25,-0.34375
1630411800875,0.921875,-0.25,-0.34375
1630411800906,0.921875,-0.25,-0.34375
1630411800937,0.921875,-0.25,-0.34375
1630411800968,0.921875,-0.25,-0.34375
1630411801000,0.90625,-0.25,-0.34375
1630411801031,0.921875,-0.25,-0.34375
1630411801062,0.921875,-0.25,-0.34375
1630411801093,0.921875,-0.25,-0.34375
1630411801125,0.90625,-0.25,-0.34375
1630411801156,0.90625,-0.25,-0.34375
1630411801187,0.90625,-0.25,-0.34375
1630411801218,0.921875,-0.25,-0.34375
1630411801250,0.921875,-0.25,-0.34375
1630411801281,0.921875,-0.25,-0.34375
1630411801312,0.921875,-0.25,-0.34375
1630411801343,0.921875,-0.25,-0.34375
1630411801375,0.921875,-0.25,-0.34375
1630411801406,0.921875,-0.25,-0.34375
1630411801437,0.921875,-0.25,-0.34375
1630411801468,0.921875,-0.25,-0.34375
1630411801500,0.921875,-0.25,-0.34375
1630411801531,0.921875,-0.25,-0.34375
1630411801562,0.921875,-0.25,-0.34375
1630411801593,0.921875,-0.25,-0.34375
1630411801625,0.921875,-0.25,-0.34375
1630411801656,0.921875,-0.25,-0.34375
1630411801687,0.921875,-0.25,-0.328125
1630411801718,0.921875,-0.25,-0.34375
1630411801750,0.921875,-0.25,-0.328125
1630411801781,0.921875,-0.25,-0.34375
1630411801812,0.921875,-0.25,-0.34375
1630411801843,0.921875,-0.25,-0.34375
1630411801875,0.921875,-0.25,-0.34375
1630411801906,0.921875,-0.25,-0.34375
1630411801937,0.921875,-0.25,-0.34375
1630411801968,0.921875,-0.25,-0.34375
1630411802000,0.921875,-0.25,-0.34375
1630411802031,0.921875,-0.25,-0.34375
1630411802062,0.921875,-0.25,-0.34375
1630411802093,0.921875,-0.25,-0.34375
1630411802125,0.921875,-0.25,-0.34375
1630411802156,0.921875,-0.25,-0.34375
1630411802187,0.921875,-0.25,-0.34375
1630411802218,0.921875,-0.25,-0.34375
1630411802250,0.90625,-0.25,-0.34375
1630411802281,0.921875,-0.25,-0.34375
1630411802312,0.921875,-0.25,-0.34375
1630411802343,0.921875,-0.25,-0.34375
1630411802375,0.921875,-0.25,-0.34375
1630411802406,0.921875,-0.25,-0.34375
1630411802437,0.921875,-0.25,-0.34375
1630411802468,0.921875,-0.25,-0.34375
1630411802500,0.921875,-0.25,-0.34375
1630411802531,0.921875,-0.25,-0.34375
1630411802562,0.921875,-0.25,-0.34375
1630411802593,0.921875,-0.25,-0.34375
1630411802625,0.921875,-0.25,-0.34375
1630411802656,0.921875,-0.25,-0.34375
1630411802687,0.921875,-0.25,-0.34375
1630411802718,0.921875,-0.25,-0.34375
1630411802750,0.921875,-0.25,-0.34375
1630411802781,0.921875,-0.25,-0.34375
1630411802812,0.921875,-0.25,-0.34375
1630411802843,0.921875,-0.25,-0.34375
1630411802875,0.921875,-0.25,-0.34375
1630411802906,0.921875,-0.25,-0.328125
1630411802937,0.921875,-0.25,-0.34375
1630411802968,0.921875,-0.25,-0.34375
1630411803000,0.921875,-0.25,-0.34375
1630411803031,0.921875,-0.25,-0.34375
1630411803062,0.921875,-0.25,-0.34375
1630411803093,0.921875,-0.25,-0.34375
1630411803125,0.921875,-0.25,-0.34375
1630411803156,0.921875,-0.25,-0.34375
1630411803187,0.921875,-0.25,-0.34375
1630411803218,0.921875,-0.25,-0.34375
1630411803250,0.921875,-0.25,-0.328125
1630411803281,0.921875,-0.25,-0.34375
1630411803312,0.921875,-0.25,-0.34375
1630411803343,0.921875,-0.25,-0.34375
1630411803375,0.921875,-0.25,-0.34375
1630411803406,0.921875,-0.25,-0.34375
1630411803437,0.921875,-0.25,-0.34375
1630411803468,0.921875,-0.25,-0.34375
1630411803500,0.921875,-0.25,-0.34375
1630411803531,0.921875,-0.25,-0.34375
1630411803562,0.921875,-0.25,-0.34375
1630411803593,0.921875,-0.25,-0.328125
1630411803625,0.921875,-0.25,-0.34375
1630411803656,0.921875,-0.25,-0.34375
1630411803687,0.921875,-0.25,-0.34375
1630411803718,0.921875,-0.25,-0.34375
1630411803750,0.921875,-0.25,-0.34375
1630411803781,0.90625,-0.25,-0.34375
1630411803812,0.90625,-0.265625,-0.34375
1630411803843,0.90625,-0.25,-0.34375
1630411803875,0.90625,-0.25,-0.34375
1630411803906,0.90625,-0.25,-0.34375
1630411803937,0.921875,-0.25,-0.34375
1630411803968,0.921875,-0.25,-0.34375
1630411804000,0.921875,-0.25,-0.34375
1630411804031,0.921875,-0.25,-0.34375
1630411804062,0.921875,-0.25,-0.34375
1630411804093,0.921875,-0.25,-0.34375
1630411804125,0.90625,-0.25,-0.34375
1630411804156,0.921875,-0.25,-0.34375
1630411804187,0.90625,-0.25,-0.34375
1630411804218,0.921875,-0.25,-0.34375
1630411804250,0.921875,-0.25,-0.34375
1630411804281,0.921875,-0.25,-0.34375
1630411804312,0.921875,-0.25,-0.34375
1630411804343,0.921875,-0.25,-0.34375
1630411804375,0.921875,-0.25,-0.34375
1630411804406,0.921875,-0.25,-0.34375
1630411804437,0.921875,-0.25,-0.34375
1630411804468,0.921875,-0.25,-0.34375
1630411804500,0.921875,-0.25,-0.34375
1630411804531,0.90625,-0.25,-0.34375
1630411804562,0.921875,-0.25,-0.34375
1630411804593,0.90625,-0.25,-0.34375
1630411804625,0.921875,-0.25,-0.34375
1630411804656,0.921875,-0.25,-0.34375
1630411804687,0.921875,-0.25,-0.34375
1630411804718,0.921875,-0.25,-0.328125
1630411804750,0.921875,-0.25,-0.34375
1630411804781,0.921875,-0.25,-0.34375
1630411804812,0.921875,-0.25,-0.34375
1630411804843,0.921875,-0.25,-0.34375
1630411804875,0.921875,-0.25,-0.34375
1630411804906,0.921875,-0.25,-0.34375
1630411804937,0.921875,-0.25,-0.34375
1630411804968,0.921875,-0.25,-0.34375
1630411805000,0.921875,-0.25,-0.34375
1630411805031,0.921875,-0.25,-0.34375
1630411805062,0.921875,-0.25,-0.34375
1630411805093,0.921875,-0.25,-0.34375
1630411805125,0.921875,-0.25,-0.34375
1630411805156,0.921875,-0.25,-0.34375
1630411805187,0.921875,-0.25,-0.34375
1630411805218,0.921875,-0.25,-0.34375
1630411805250,0.921875,-0.25,-0.34375
1630411805281,0.921875,-0.25,-0.34375
1630411805312,0.921875,-0.25,-0.34375
1630411805343,0.921875,-0.25,-0.34375
1630411805375,0.921875,-0.25,-0.34375
1630411805406,0.921875,-0.25,-0.34375
1630411805437,0.921875,-0.25,-0.34375
1630411805468,0.921875,-0.25,-0.34375
1630411805500,0.921875,-0.25,-0.34375
1630411805531,0.921875,-0.25,-0.34375
1630411805562,0.921875,-0.25,-0.34375
1630411805593,0.921875,-0.25,-0.34375
1630411805625,0.921875,-0.25,-0.34375
1630411805656,0.921875,-0.25,-0.34375
1630411805687,0.921875,-0.25,-0.34375
1630411805718,0.921875,-0.25,-0.34375
1630411805750,0.921875,-0.25,-0.34375
1630411805781,0.921875,-0.25,-0.34375
1630411805812,0.921875,-0.25,-0.34375
1630411805843,0.921875,-0.25,-0.34375
1630411805875,0.90625,-0.25,-0.34375
1630411805906,0.921875,-0.25,-0.34375
1630411805937,0.921875,-0.25,-0.34375
1630411805968,0.90625,-0.25,-0.34375
1630411806000,0.90625,-0.25,-0.34375
1630411806031,0.921875,-0.25,-0.34375
1630411806062,0.921875,-0.25,-0.34375
1630411806093,0.921875,-0.25,-0.34375
1630411806125,0.921875,-0.25,-0.34375
1630411806156,0.921875,-0.25,-0.34375
1630411806187,0.921875,-0.25,-0.34375
1630411806218,0.921875,-0.25,-0.34375
1630411806250,0.921875,-0.25,-0.34375
1630411806281,0.90625,-0.25,-0.34375
1630411806312,0.921875,-0.25,-0.34375
1630411806343,0.921875,-0.25,-0.34375
1630411806375,0.90625,-0.25,-0.34375
1630411806406,0.90625,-0.25,-0.34375
1630411806437,0.90625,-0.25,-0.34375
1630411806468,0.90625,-0.25,-0.34375
1630411806500,0.921875,-0.25,-0.34375
1630411806531,0.921875,-0.25,-0.34375
1630411806562,0.921875,-0.25,-0.34375
1630411806593,0.90625,-0.265625,-0.34375
1630411806625,0.90625,-0.25,-0.34375
1630411806656,0.921875,-0.25,-0.34375
1630411806687,0.921875,-0.25,-0.34375
1630411806718,0.90625,-0.25,-0.34375
1630411806750,0.90625,-0.25,-0.34375
1630411806781,0.90625,-0.25,-0.34375
1630411806812,0.921875,-0.25,-0.34375
1630411806843,0.90625,-0.25,-0.34375
1630411806875,0.90625,-0.25,-0.34375
1630411806906,0.921875,-0.25,-0.34375
1630411806937,0.921875,-0.25,-0.34375
1630411806968,0.921875,-0.25,-0.34375
1630411807000,0.921875,-0.25,-0.34375
1630411807031,0.921875,-0.25,-0.34375
1630411807062,0.90625,-0.25,-0.328125
1630411807093,0.90625,-0.25,-0.34375
1630411807125,0.90625,-0.25,-0.34375
1630411807156,0.921875,-0.25,-0.34375
1630411807187,0.921875,-0.25,-0.34375
1630411807218,0.921875,-0.25,-0.34375
1630411807250,0.90625,-0.25,-0.34375
1630411807281,0.90625,-0.25,-0.34375
1630411807312,0.921875,-0.25,-0.34375
1630411807343,0.921875,-0.25,-0.34375
1630411807375,0.90625,-0.25,-0.34375
1630411807406,0.921875,-0.25,-0.34375
1630411807437,0.921875,-0.25,-0.34375
1630411807468,0.90625,-0.25,-0.34375
1630411807500,0.90625,-0.25,-0.34375
1630411807531,0.90625,-0.25,-0.34375
1630411807562,0.921875,-0.25,-0.34375
1630411807593,0.921875,-0.25,-0.34375
1630411807625,0.921875,-0.25,-0.34375
1630411807656,0.921875,-0.25,-0.34375
1630411807687,0.921875,-0.25,-0.34375
1630411807718,0.921875,-0.25,-0.34375
1630411807750,0.921875,-0.25,-0.34375
1630411807781,0.921875,-0.25,-0.34375
1630411807812,0.921875,-0.25,-0.34375
1630411807843,0.921875,-0.25,-0.359375
1630411807875,0.921875,-0.25,-0.34375
1630411807906,0.90625,-0.25,-0.34375
1630411807937,0.921875,-0.25,-0.34375
1630411807968,0.921875,-0.25,-0.34375
1630411808000,0.921875,-0.25,-0.34375
1630411808031,0.90625,-0.25,-0.34375
1630411808062,0.921875,-0.25,-0.34375
1630411808093,0.90625,-0.25,-0.34375
1630411808125,0.90625,-0.25,-0.34375
1630411808156,0.921875,-0.25,-0.34375
1630411808187,0.921875,-0.25,-0.34375
1630411808218,0.921875,-0.25,-0.359375
1630411808250,0.921875,-0.25,-0.34375
1630411808281,0.90625,-0.25,-0.34375
1630411808312,0.90625,-0.25,-0.34375
1630411808343,0.921875,-0.25,-0.34375
1630411808375,0.90625,-0.25,-0.34375
1630411808406,0.921875,-0.25,-0.34375
1630411808437,0.90625,-0.25,-0.34375
1630411808468,0.921875,-0.25,-0.34375
1630411808500,0.921875,-0.25,-0.34375
1630411808531,0.921875,-0.25,-0.34375
1630411808562,0.921875,-0.25,-0.34375
1630411808593,0.921875,-0.25,-0.34375
1630411808625,0.921875,-0.25,-0.34375
1630411808656,0.90625,-0.25,-0.359375
1630411808687,0.921875,-0.25,-0.34375
1630411808718,0.921875,-0.25,-0.34375
1630411808750,0.90625,-0.25,-0.34375
1630411808781,0.90625,-0.25,-0.34375
1630411808812,0.90625,-0.25,-0.34375
1630411808843,0.90625,-0.25,-0.34375
1630411808875,0.90625,-0.25,-0.34375
1630411808906,0.921875,-0.25,-0.34375
1630411808937,0.90625,-0.25,-0.34375
1630411808968,0.90625,-0.25,-0.34375
1630411809000,0.921875,-0.25,-0.34375
1630411809031,0.921875,-0.25,-0.34375
1630411809062,0.90625,-0.25,-0.34375
1630411809093,0.90625,-0.25,-0.34375
1630411809125,0.90625,-0.25,-0.34375
1630411809156,0.90625,-0.25,-0.34375
1630411809187,0.921875,-0.25,-0.34375
1630411809218,0.90625,-0.25,-0.34375
1630411809250,0.90625,-0.25,-0.34375
1630411809281,0.90625,-0.25,-0.34375
1630411809312,0.90625,-0.25,-0.34375
1630411809343,0.921875,-0.25,-0.34375
1630411809375,0.921875,-0.25,-0.34375
1630411809406,0.90625,-0.25,-0.34375
1630411809437,0.90625,-0.25,-0.34375
1630411809468,0.90625,-0.25,-0.34375
1630411809500,0.921875,-0.25,-0.34375
1630411809531,0.90625,-0.25,-0.34375
1630411809562,0.90625,-0.25,-0.34375
1630411809593,0.90625,-0.25,-0.34375
1630411809625,0.90625,-0.25,-0.34375
1630411809656,0.90625,-0.25,-0.34375
1630411809687,0.90625,-0.25,-0.34375
1630411809718,0.90625,-0.265625,-0.34375
1630411809750,0.90625,-0.25,-0.359375
1630411809781,0.921875,-0.25,-0.359375
1630411809812,0.921875,-0.25,-0.34375
1630411809843,0.90625,-0.25,-0.359375
1630411809875,0.921875,-0.25,-0.359375
1630411809906,0.90625,-0.25,-0.34375
1630411809937,0.90625,-0.25,-0.34375
1630411809968,0.921875,-0.25,-0.34375
1630411810000,0.90625,-0.25,-0.34375
1630411810031,0.921875,-0.25,-0.34375
1630411810062,0.921875,-0.25,-0.359375
1630411810093,0.921875,-0.25,-0.34375
1630411810125,0.90625,-0.25,-0.34375
1630411810156,0.90625,-0.25,-0.34375
1630411810187,0.90625,-0.25,-0.34375
1630411810218,0.921875,-0.25,-0.359375
1630411810250,0.90625,-0.25,-0.34375
1630411810281,0.90625,-0.25,-0.34375
1630411810312,0.90625,-0.25,-0.359375
1630411810343,0.90625,-0.25,-0.34375
1630411810375,0.90625,-0.25,-0.34375
1630411810406,0.921875,-0.25,-0.34375
1630411810437,0.921875,-0.25,-0.34375
1630411810468,0.90625,-0.25,-0.34375
1630411810500,0.921875,-0.25,-0.34375
1630411810531,0.90625,-0.25,-0.34375
1630411810562,0.921875,-0.25,-0.34375
1630411810593,0.921875,-0.25,-0.34375
1630411810625,0.90625,-0.25,-0.34375
1630411810656,0.921875,-0.25,-0.34375
1630411810687,0.921875,-0.25,-0.34375
1630411810718,0.921875,-0.25,-0.34375
1630411810750,0.90625,-0.25,-0.34375
1630411810781,0.90625,-0.25,-0.34375
1630411810812,0.90625,-0.25,-0.34375
1630411810843,0.921875,-0.25,-0.34375
1630411810875,0.921875,-0.25,-0.34375
1630411810906,0.921875,-0.25,-0.34375
1630411810937,0.921875,-0.25,-0.34375
1630411810968,0.921875,-0.25,-0.34375
1630411811000,0.921875,-0.25,-0.34375
1630411811031,0.90625,-0.25,-0.34375
1630411811062,0.921875,-0.25,-0.34375
1630411811093,0.90625,-0.25,-0.34375
1630411811125,0.921875,-0.25,-0.34375
1630411811156,0.90625,-0.25,-0.34375
1630411811187,0.921875,-0.25,-0.34375
1630411811218,0.921875,-0.25,-0.34375
1630411811250,0.921875,-0.25,-0.34375
1630411811281,0.921875,-0.25,-0.34375
1630411811312,0.90625,-0.25,-0.34375
1630411811343,0.90625,-0.25,-0.34375
1630411811375,0.921875,-0.25,-0.34375
1630411811406,0.921875,-0.25,-0.34375
1630411811437,0.921875,-0.25,-0.34375
1630411811468,0.90625,-0.25,-0.34375
1630411811500,0.921875,-0.25,-0.34375
1630411811531,0.921875,-0.25,-0.34375
1630411811562,0.921875,-0.25,-0.34375
1630411811593,0.90625,-0.25,-0.34375
1630411811625,0.90625,-0.25,-0.34375
1630411811656,0.921875,-0.25,-0.34375
1630411811687,0.921875,-0.25,-0.34375
1630411811718,0.921875,-0.25,-0.34375
1630411811750,0.921875,-0.25,-0.34375
1630411811781,0.90625,-0.25,-0.34375
1630411811812,0.90625,-0.25,-0.34375
1630411811843,0.921875,-0.25,-0.34375
1630411811875,0.90625,-0.25,-0.34375
1630411811906,0.90625,-0.25,-0.34375
1630411811937,0.921875,-0.25,-0.34375
1630411811968,0.90625,-0.25,-0.34375
1630411812000,0.90625,-0.25,-0.34375
1630411812031,0.921875,-0.25,-0.34375
1630411812062,0.90625,-0.25,-0.34375
1630411812093,0.90625,-0.25,-0.34375
1630411812125,0.90625,-0.25,-0.34375
1630411812156,0.921875,-0.25,-0.34375
1630411812187,0.921875,-0.25,-0.359375
1630411812218,0.90625,-0.25,-0.34375
1630411812250,0.90625,-0.25,-0.34375
1630411812281,0.90625,-0.265625,-0.34375
1630411812312,0.90625,-0.265625,-0.34375
1630411812343,0.90625,-0.25,-0.34375
1630411812375,0.90625,-0.25,-0.34375
1630411812406,0.90625,-0.25,-0.34375
1630411812437,0.90625,-0.25,-0.34375
1630411812468,0.90625,-0.25,-0.34375
1630411812500,0.90625,-0.25,-0.34375
1630411812531,0.90625,-0.25,-0.34375
1630411812562,0.90625,-0.25,-0.359375
1630411812593,0.90625,-0.25,-0.359375
1630411812625,0.90625,-0.265625,-0.34375
1630411812656,0.90625,-0.25,-0.34375
1630411812687,0.90625,-0.25,-0.359375
1630411812718,0.90625,-0.25,-0.359375
1630411812750,0.90625,-0.25,-0.359375
1630411812781,0.90625,-0.25,-0.34375
1630411812812,0.90625,-0.25,-0.34375
1630411812843,0.90625,-0.25,-0.34375
1630411812875,0.921875,-0.25,-0.34375
1630411812906,0.90625,-0.25,-0.34375
1630411812937,0.90625,-0.25,-0.359375
1630411812968,0.90625,-0.25,-0.34375
1630411813000,0.90625,-0.25,-0.34375
1630411813031,0.90625,-0.25,-0.359375
1630411813062,0.90625,-0.25,-0.359375
1630411813093,0.90625,-0.25,-0.34375
1630411813125,0.90625,-0.25,-0.34375
1630411813156,0.90625,-0.25,-0.34375
1630411813187,0.921875,-0.25,-0.34375
1630411813218,0.90625,-0.25,-0.359375
1630411813250,0.90625,-0.25,-0.34375
1630411813281,0.90625,-0.25,-0.34375
1630411813312,0.90625,-0.25,-0.34375
1630411813343,0.90625,-0.25,-0.34375
1630411813375,0.90625,-0.25,-0.359375
1630411813406,0.90625,-0.25,-0.359375
1630411813437,0.90625,-0.25,-0.34375
1630411813468,0.90625,-0.25,-0.34375
1630411813500,0.90625,-0.25,-0.34375
1630411813531,0.921875,-0.25,-0.34375
1630411813562,0.90625,-0.25,-0.34375
1630411813593,0.90625,-0.25,-0.34375
1630411813625,0.921875,-0.25,-0.359375
1630411813656,0.921875,-0.25,-0.34375
1630411813687,0.90625,-0.25,-0.34375
1630411813718,0.90625,-0.25,-0.34375
1630411813750,0.90625,-0.25,-0.34375
1630411813781,0.90625,-0.25,-0.34375
1630411813812,0.90625,-0.25,-0.34375
1630411813843,0.921875,-0.25,-0.34375
1630411813875,0.921875,-0.25,-0.34375
1630411813906,0.90625,-0.25,-0.34375
1630411813937,0.921875,-0.25,-0.34375
1630411813968,0.90625,-0.25,-0.34375
1630411814000,0.90625,-0.25,-0.34375
1630411814031,0.90625,-0.25,-0.34375
1630411814062,0.90625,-0.25,-0.34375
1630411814093,0.90625,-0.25,-0.359375
1630411814125,0.90625,-0.25,-0.359375
1630411814156,0.90625,-0.25,-0.34375
1630411814187,0.90625,-0.25,-0.34375
1630411814218,0.90625,-0.25,-0.34375
1630411814250,0.90625,-0.25,-0.34375
1630411814281,0.921875,-0.25,-0.34375
1630411814312,0.90625,-0.25,-0.34375
1630411814343,0.90625,-0.25,-0.34375
1630411814375,0.921875,-0.25,-0.359375
1630411814406,0.921875,-0.25,-0.34375
1630411814437,0.90625,-0.25,-0.34375
1630411814468,0.90625,-0.25,-0.34375
1630411814500,0.90625,-0.25,-0.34375
1630411814531,0.90625,-0.25,-0.34375
1630411814562,0.921875,-0.25,-0.34375
1630411814593,0.90625,-0.25,-0.359375
1630411814625,0.90625,-0.25,-0.34375
1630411814656,0.90625,-0.25,-0.34375
1630411814687,0.90625,-0.25,-0.34375
1630411814718,0.90625,-0.25,-0.34375
1630411814750,0.90625,-0.25,-0.34375
1630411814781,0.90625,-0.25,-0.34375
1630411814812,0.90625,-0.25,-0.34375
1630411814843,0.90625,-0.25,-0.34375
1630411814875,0.90625,-0.25,-0.359375
1630411814906,0.90625,-0.25,-0.359375
1630411814937,0.90625,-0.25,-0.34375
1630411814968,0.90625,-0.25,-0.34375
1630411815000,0.90625,-0.25,-0.359375
1630411815031,0.90625,-0.265625,-0.34375
1630411815062,0.90625,-0.25,-0.34375
1630411815093,0.921875,-0.25,-0.359375
1630411815125,0.921875,-0.25,-0.359375
1630411815156,0.90625,-0.25,-0.34375
1630411815187,0.90625,-0.25,-0.359375
1630411815218,0.90625,-0.25,-0.359375
1630411815250,0.90625,-0.25,-0.359375
1630411815281,0.90625,-0.25,-0.359375
1630411815312,0.90625,-0.25,-0.359375
1630411815343,0.90625,-0.25,-0.359375
1630411815375,0.90625,-0.25,-0.359375
1630411815406,0.90625,-0.25,-0.34375
1630411815437,0.90625,-0.25,-0.359375
1630411815468,0.90625,-0.25,-0.34375
1630411815500,0.90625,-0.25,-0.34375
1630411815531,0.90625,-0.25,-0.34375
1630411815562,0.90625,-0.25,-0.359375
1630411815593,0.90625,-0.25,-0.359375
1630411815625,0.90625,-0.265625,-0.34375
1630411815656,0.90625,-0.25,-0.359375
1630411815687,0.90625,-0.25,-0.34375
1630411815718,0.921875,-0.25,-0.359375
1630411815750,0.921875,-0.25,-0.359375
1630411815781,0.90625,-0.25,-0.34375
1630411815812,0.90625,-0.25,-0.359375
1630411815843,0.921875,-0.25,-0.359375
1630411815875,0.90625,-0.25,-0.359375
1630411815906,0.90625,-0.25,-0.34375
1630411815937,0.90625,-0.25,-0.34375
1630411815968,0.90625,-0.25,-0.359375
1630411816000,0.90625,-0.25,-0.34375
1630411816031,0.90625,-0.25,-0.34375
1630411816062,0.90625,-0.25,-0.359375
1630411816093,0.90625,-0.25,-0.34375
1630411816125,0.90625,-0.25,-0.34375
1630411816156,0.90625,-0.25,-0.34375
1630411816187,0.90625,-0.25,-0.34375
1630411816218,0.90625,-0.25,-0.34375
1630411816250,0.90625,-0.25,-0.359375
1630411816281,0.90625,-0.25,-0.359375
1630411816312,0.90625,-0.25,-0.359375
1630411816343,0.90625,-0.25,-0.359375
1630411816375,0.90625,-0.25,-0.359375
1630411816406,0.90625,-0.25,-0.34375
1630411816437,0.90625,-0.25,-0.359375
1630411816468,0.90625,-0.25,-0.359375
1630411816500,0.921875,-0.25,-0.34375
1630411816531,0.90625,-0.25,-0.359375
1630411816562,0.90625,-0.25,-0.359375
1630411816593,0.921875,-0.25,-0.359375
1630411816625,0.90625,-0.25,-0.359375
1630411816656,0.90625,-0.25,-0.359375
1630411816687,0.90625,-0.25,-0.359375
1630411816718,0.90625,-0.25,-0.34375
1630411816750,0.90625,-0.25,-0.34375
1630411816781,0.90625,-0.25,-0.359375
1630411816812,0.90625,-0.25,-0.359375
1630411816843,0.90625,-0.25,-0.359375
1630411816875,0.90625,-0.25,-0.34375
1630411816906,0.90625,-0.25,-0.34375
1630411816937,0.921875,-0.25,-0.34375
1630411816968,0.90625,-0.25,-0.34375
1630411817000,0.90625,-0.25,-0.359375
1630411817031,0.921875,-0.25,-0.359375
1630411817062,0.90625,-0.25,-0.359375
1630411817093,0.90625,-0.25,-0.34375
1630411817125,0.90625,-0.25,-0.359375
1630411817156,0.90625,-0.25,-0.359375
1630411817187,0.921875,-0.25,-0.34375
1630411817218,0.90625,-0.25,-0.359375
1630411817250,0.90625,-0.25,-0.359375
1630411817281,0.90625,-0.25,-0.34375
1630411817312,0.90625,-0.25,-0.34375
1630411817343,0.90625,-0.25,-0.34375
1630411817375,0.921875,-0.25,-0.359375
1630411817406,0.90625,-0.25,-0.359375
1630411817437,0.90625,-0.25,-0.34375
1630411817468,0.90625,-0.25,-0.359375
1630411817500,0.90625,-0.25,-0.359375
1630411817531,0.90625,-0.25,-0.359375
1630411817562,0.90625,-0.25,-0.359375
1630411817593,0.90625,-0.25,-0.359375
1630411817625,0.90625,-0.25,-0.34375
1630411817656,0.90625,-0.25,-0.359375
1630411817687,0.90625,-0.25,-0.359375
1630411817718,0.90625,-0.25,-0.359375
1630411817750,0.90625,-0.25,-0.359375
1630411817781,0.90625,-0.25,-0.359375
1630411817812,0.90625,-0.25,-0.359375
1630411817843,0.90625,-0.25,-0.359375
1630411817875,0.90625,-0.265625,-0.359375
1630411817906,0.90625,-0.25,-0.359375
1630411817937,0.90625,-0.265625,-0.359375
1630411817968,0.90625,-0.25,-0.359375
1630411818000,0.90625,-0.25,-0.359375
1630411818031,0.921875,-0.265625,-0.359375
1630411818062,0.90625,-0.25,-0.359375
1630411818093,0.90625,-0.25,-0.359375
1630411818125,0.90625,-0.25,-0.359375
1630411818156,0.90625,-0.265625,-0.359375
1630411818187,0.90625,-0.25,-0.359375
1630411818218,0.90625,-0.25,-0.359375
1630411818250,0.90625,-0.25,-0.359375
1630411818281,0.90625,-0.25,-0.34375
1630411818312,0.90625,-0.25,-0.359375
1630411818343,0.90625,-0.25,-0.34375
1630411818375,0.90625,-0.25,-0.359375
1630411818406,0.90625,-0.25,-0.359375
1630411818437,0.90625,-0.25,-0.34375
1630411818468,0.90625,-0.25,-0.359375
1630411818500,0.90625,-0.25,-0.359375
1630411818531,0.90625,-0.25,-0.34375
1630411818562,0.90625,-0.25,-0.359375
1630411818593,0.90625,-0.25,-0.359375
1630411818625,0.90625,-0.25,-0.359375
1630411818656,0.90625,-0.25,-0.359375
1630411818687,0.90625,-0.25,-0.359375
1630411818718,0.90625,-0.25,-0.359375
1630411818750,0.90625,-0.25,-0.34375
1630411818781,0.90625,-0.25,-0.359375
1630411818812,0.90625,-0.25,-0.359375
1630411818843,0.921875,-0.25,-0.359375
1630411818875,0.90625,-0.25,-0.359375
1630411818906,0.921875,-0.25,-0.34375
1630411818937,0.921875,-0.25,-0.359375
1630411818968,0.90625,-0.25,-0.34375
1630411819000,0.90625,-0.25,-0.34375
1630411819031,0.90625,-0.25,-0.34375
1630411819062,0.90625,-0.25,-0.34375
1630411819093,0.90625,-0.25,-0.34375
1630411819125,0.90625,-0.25,-0.34375
1630411819156,0.921875,-0.25,-0.34375
1630411819187,0.921875,-0.25,-0.34375
1630411819218,0.921875,-0.25,-0.34375
1630411819250,0.90625,-0.25,-0.328125
1630411819281,0.921875,-0.25,-0.34375
1630411819312,0.921875,-0.25,-0.34375
1630411819343,0.90625,-0.25,-0.34375
1630411819375,0.921875,-0.25,-0.34375
1630411819406,0.921875,-0.25,-0.34375
1630411819437,0.921875,-0.25,-0.34375
1630411819468,0.921875,-0.25,-0.34375
1630411819500,0.921875,-0.25,-0.34375
1630411819531,0.921875,-0.25,-0.328125
1630411819562,0.921875,-0.25,-0.34375
1630411819593,0.921875,-0.25,-0.34375
1630411819625,0.921875,-0.25,-0.328125
1630411819656,0.921875,-0.25,-0.328125
1630411819687,0.921875,-0.25,-0.328125
1630411819718,0.921875,-0.25,-0.328125
1630411819750,0.921875,-0.25,-0.34375
1630411819781,0.921875,-0.25,-0.34375
1630411819812,0.921875,-0.25,-0.34375
1630411819843,0.921875,-0.25,-0.34375
1630411819875,0.921875,-0.25,-0.34375
1630411819906,0.921875,-0.25,-0.34375
1630411819937,0.921875,-0.25,-0.34375
1630411819968,0.921875,-0.25,-0.34375
1630411820000,0.921875,-0.25,-0.34375
1630411820031,0.921875,-0.25,-0.34375
1630411820062,0.90625,-0.25,-0.34375
1630411820093,0.921875,-0.25,-0.34375
1630411820125,0.921875,-0.25,-0.34375
1630411820156,0.90625,-0.25,-0.34375
1630411820187,0.921875,-0.25,-0.34375
1630411820218,0.90625,-0.25,-0.359375
1630411820250,0.90625,-0.25,-0.34375
1630411820281,0.90625,-0.25,-0.359375
1630411820312,0.90625,-0.25,-0.359375
1630411820343,0.90625,-0.25,-0.359375
1630411820375,0.90625,-0.25,-0.359375
1630411820406,0.90625,-0.25,-0.34375
1630411820437,0.90625,-0.25,-0.359375
1630411820468,0.90625,-0.25,-0.359375
1630411820500,0.921875,-0.265625,-0.359375
1630411820531,0.90625,-0.25,-0.359375
1630411820562,0.90625,-0.25,-0.359375
1630411820593,0.90625,-0.25,-0.34375
1630411820625,0.90625,-0.25,-0.34375
1630411820656,0.90625,-0.25,-0.34375
1630411820687,0.90625,-0.25,-0.34375
1630411820718,0.90625,-0.25,-0.359375
1630411820750,0.90625,-0.25,-0.359375
1630411820781,0.90625,-0.25,-0.359375
1630411820812,0.90625,-0.25,-0.359375
1630411820843,0.90625,-0.25,-0.359375
1630411820875,0.90625,-0.25,-0.359375
1630411820906,0.90625,-0.25,-0.359375
1630411820937,0.90625,-0.25,-0.359375
1630411820968,0.90625,-0.25,-0.359375
1630411821000,0.90625,-0.25,-0.359375
1630411821031,0.90625,-0.25,-0.359375
1630411821062,0.90625,-0.25,-0.359375
1630411821093,0.90625,-0.25,-0.359375
1630411821125,0.90625,-0.25,-0.359375
1630411821156,0.90625,-0.25,-0.359375
1630411821187,0.90625,-0.25,-0.359375
1630411821218,0.921875,-0.25,-0.359375
1630411821250,0.90625,-0.25,-0.359375
1630411821281,0.90625,-0.25,-0.359375
1630411821312,0.90625,-0.25,-0.359375
1630411821343,0.90625,-0.25,-0.359375
1630411821375,0.90625,-0.25,-0.359375
1630411821406,0.90625,-0.25,-0.359375
1630411821437,0.90625,-0.25,-0.359375
1630411821468,0.90625,-0.25,-0.359375
1630411821500,0.90625,-0.25,-0.359375
1630411821531,0.90625,-0.25,-0.359375
1630411821562,0.90625,-0.25,-0.359375
1630411821593,0.90625,-0.25,-0.34375
1630411821625,0.90625,-0.25,-0.359375
1630411821656,0.90625,-0.25,-0.359375
1630411821687,0.90625,-0.25,-0.359375
1630411821718,0.90625,-0.25,-0.359375
1630411821750,0.90625,-0.25,-0.34375
1630411821781,0.90625,-0.25,-0.359375
1630411821812,0.90625,-0.25,-0.359375
1630411821843,0.90625,-0.25,-0.359375
1630411821875,0.90625,-0.25,-0.359375
1630411821906,0.90625,-0.25,-0.359375
1630411821937,0.90625,-0.25,-0.359375
1630411821968,0.90625,-0.25,-0.359375
1630411822000,0.921875,-0.25,-0.359375
1630411822031,0.90625,-0.25,-0.359375
1630411822062,0.90625,-0.25,-0.359375
1630411822093,0.90625,-0.25,-0.359375
1630411822125,0.90625,-0.25,-0.359375
1630411822156,0.921875,-0.25,-0.359375
1630411822187,0.90625,-0.25,-0.359375
1630411822218,0.90625,-0.25,-0.359375
1630411822250,0.921875,-0.25,-0.359375
1630411822281,0.90625,-0.25,-0.359375
1630411822312,0.90625,-0.25,-0.359375
1630411822343,0.90625,-0.25,-0.359375
1630411822375,0.90625,-0.25,-0.359375
1630411822406,0.921875,-0.25,-0.359375
1630411822437,0.90625,-0.25,-0.359375
1630411822468,0.90625,-0.25,-0.359375
1630411822500,0.90625,-0.25,-0.34375
1630411822531,0.90625,-0.25,-0.359375
1630411822562,0.921875,-0.25,-0.359375
1630411822593,0.90625,-0.25,-0.359375
1630411822625,0.90625,-0.25,-0.34375
1630411822656,0.90625,-0.25,-0.359375
1630411822687,0.921875,-0.25,-0.359375
1630411822718,0.90625,-0.25,-0.359375
1630411822750,0.90625,-0.25,-0.359375
1630411822781,0.90625,-0.25,-0.359375
1630411822812,0.90625,-0.25,-0.359375
1630411822843,0.90625,-0.25,-0.359375
1630411822875,0.921875,-0.25,-0.359375
1630411822906,0.90625,-0.25,-0.359375
1630411822937,0.90625,-0.25,-0.359375
1630411822968,0.90625,-0.25,-0.34375
1630411823000,0.90625,-0.25,-0.359375
1630411823031,0.90625,-0.25,-0.359375
1630411823062,0.90625,-0.25,-0.359375
1630411823093,0.90625,-0.25,-0.359375
1630411823125,0.90625,-0.25,-0.359375
1630411823156,0.90625,-0.25,-0.359375
1630411823187,0.90625,-0.25,-0.359375
1630411823218,0.90625,-0.25,-0.359375
1630411823250,0.90625,-0.25,-0.359375
1630411823281,0.90625,-0.25,-0.34375
1630411823312,0.90625,-0.25,-0.359375
1630411823343,0.90625,-0.25,-0.34375
1630411823375,0.90625,-0.25,-0.34375
1630411823406,0.921875,-0.25,-0.34375
1630411823437,0.921875,-0.265625,-0.34375
1630411823468,0.921875,-0.25,-0.34375
1630411823500,0.90625,-0.25,-0.34375
1630411823531,0.90625,-0.265625,-0.34375
1630411823562,0.90625,-0.25,-0.34375
1630411823593,0.921875,-0.265625,-0.34375
1630411823625,0.921875,-0.25,-0.34375
1630411823656,0.90625,-0.25,-0.328125
1630411823687,0.921875,-0.25,-0.34375
1630411823718,0.921875,-0.25,-0.328125
1630411823750,0.921875,-0.25,-0.328125
1630411823781,0.921875,-0.25,-0.34375
1630411823812,0.921875,-0.25,-0.328125
1630411823843,0.921875,-0.25,-0.328125
1630411823875,0.921875,-0.25,-0.34375
1630411823906,0.921875,-0.25,-0.328125
1630411823937,0.921875,-0.25,-0.328125
1630411823968,0.921875,-0.265625,-0.34375
1630411824000,0.921875,-0.25,-0.34375
1630411824031,0.921875,-0.25,-0.34375
1630411824062,0.921875,-0.25,-0.34375
1630411824093,0.90625,-0.25,-0.328125
1630411824125,0.890625,-0.25,-0.328125
1630411824156,0.9375,-0.25,-0.359375
1630411824187,0.921875,-0.25,-0.359375
1630411824218,0.90625,-0.25,-0.328125
1630411824250,0.90625,-0.25,-0.34375
1630411824281,0.921875,-0.25,-0.34375
1630411824312,0.90625,-0.25,-0.359375
1630411824343,0.921875,-0.25,-0.375
1630411824375,0.90625,-0.25,-0.359375
1630411824406,0.90625,-0.25,-0.359375
1630411824437,0.90625,-0.25,-0.359375
1630411824468,0.90625,-0.25,-0.359375
1630411824500,0.90625,-0.25,-0.359375
1630411824531,0.90625,-0.25,-0.375
1630411824562,0.90625,-0.25,-0.359375
1630411824593,0.90625,-0.25,-0.359375
1630411824625,0.90625,-0.25,-0.375
1630411824656,0.90625,-0.25,-0.359375
1630411824687,0.90625,-0.25,-0.375
1630411824718,0.90625,-0.25,-0.359375
1630411824750,0.90625,-0.25,-0.375
1630411824781,0.90625,-0.25,-0.375
1630411824812,0.90625,-0.25,-0.359375
1630411824843,0.90625,-0.25,-0.359375
1630411824875,0.90625,-0.25,-0.375
1630411824906,0.90625,-0.25,-0.375
1630411824937,0.90625,-0.25,-0.375
1630411824968,0.90625,-0.25,-0.359375
1630411825000,0.90625,-0.25,-0.359375
1630411825031,0.90625,-0.25,-0.359375
1630411825062,0.90625,-0.25,-0.359375
1630411825093,0.90625,-0.25,-0.375
1630411825125,0.90625,-0.25,-0.359375
1630411825156,0.90625,-0.25,-0.359375
1630411825187,0.90625,-0.25,-0.359375
1630411825218,0.90625,-0.25,-0.359375
1630411825250,0.90625,-0.25,-0.359375
1630411825281,0.90625,-0.25,-0.375
1630411825312,0.90625,-0.25,-0.359375
1630411825343,0.90625,-0.25,-0.359375
1630411825375,0.90625,-0.25,-0.359375
1630411825406,0.90625,-0.25,-0.359375
1630411825437,0.90625,-0.25,-0.375
1630411825468,0.90625,-0.25,-0.359375
1630411825500,0.90625,-0.25,-0.375
1630411825531,0.90625,-0.25,-0.359375
1630411825562,0.90625,-0.25,-0.359375
1630411825593,0.90625,-0.25,-0.375
1630411825625,0.90625,-0.25,-0.375
1630411825656,0.90625,-0.25,-0.359375
1630411825687,0.90625,-0.25,-0.375
1630411825718,0.90625,-0.25,-0.375
1630411825750,0.890625,-0.25,-0.375
1630411825781,0.90625,-0.25,-0.375
1630411825812,0.90625,-0.25,-0.375
1630411825843,0.90625,-0.25,-0.375
1630411825875,0.90625,-0.25,-0.375
1630411825906,0.90625,-0.25,-0.375
1630411825937,0.90625,-0.25,-0.375
1630411825968,0.90625,-0.25,-0.375
1630411826000,0.90625,-0.25,-0.375
1630411826031,0.90625,-0.25,-0.375
1630411826062,0.90625,-0.25,-0.375
1630411826093,0.890625,-0.25,-0.375
1630411826125,0.890625,-0.25,-0.375
1630411826156,0.890625,-0.25,-0.375
1630411826187,0.921875,-0.25,-0.375
1630411826218,0.890625,-0.25,-0.328125
1630411826250,0.90625,-0.25,-0.34375
1630411826281,0.9375,-0.25,-0.359375
1630411826312,0.921875,-0.25,-0.359375
1630411826343,0.90625,-0.25,-0.359375
1630411826375,0.90625,-0.25,-0.34375
1630411826406,0.90625,-0.25,-0.34375
1630411826437,0.90625,-0.25,-0.359375
1630411826468,0.921875,-0.25,-0.359375
1630411826500,0.90625,-0.25,-0.34375
1630411826531,0.90625,-0.25,-0.34375
1630411826562,0.921875,-0.25,-0.359375
1630411826593,0.90625,-0.25,-0.34375
1630411826625,0.921875,-0.25,-0.359375
1630411826656,0.921875,-0.25,-0.359375
1630411826687,0.90625,-0.25,-0.359375
1630411826718,0.90625,-0.25,-0.359375
1630411826750,0.90625,-0.25,-0.359375
1630411826781,0.90625,-0.25,-0.359375
1630411826812,0.90625,-0.25,-0.359375
1630411826843,0.90625,-0.25,-0.375
1630411826875,0.90625,-0.25,-0.359375
1630411826906,0.90625,-0.25,-0.359375
1630411826937,0.90625,-0.25,-0.359375
1630411826968,0.90625,-0.25,-0.375
1630411827000,0.90625,-0.25,-0.359375
1630411827031,0.90625,-0.25,-0.359375
1630411827062,0.90625,-0.25,-0.359375
1630411827093,0.90625,-0.25,-0.359375
1630411827125,0.90625,-0.25,-0.359375
1630411827156,0.90625,-0.25,-0.375
1630411827187,0.90625,-0.25,-0.359375
1630411827218,0.90625,-0.25,-0.359375
1630411827250,0.90625,-0.25,-0.359375
1630411827281,0.90625,-0.25,-0.359375
1630411827312,0.90625,-0.25,-0.359375
1630411827343,0.90625,-0.25,-0.359375
1630411827375,0.90625,-0.25,-0.359375
1630411827406,0.90625,-0.25,-0.359375
1630411827437,0.90625,-0.25,-0.359375
1630411827468,0.90625,-0.25,-0.359375
1630411827500,0.90625,-0.25,-0.359375
1630411827531,0.90625,-0.25,-0.359375
1630411827562,0.90625,-0.25,-0.359375
1630411827593,0.90625,-0.25,-0.359375
1630411827625,0.90625,-0.25,-0.359375
1630411827656,0.90625,-0.25,-0.359375
1630411827687,0.90625,-0.25,-0.359375
1630411827718,0.90625,-0.25,-0.359375
1630411827750,0.90625,-0.25,-0.359375
1630411827781,0.90625,-0.25,-0.359375
1630411827812,0.90625,-0.25,-0.359375
1630411827843,0.90625,-0.25,-0.359375
1630411827875,0.90625,-0.25,-0.359375
1630411827906,0.90625,-0.25,-0.359375
1630411827937,0.90625,-0.25,-0.359375
1630411827968,0.90625,-0.25,-0.359375
1630411828000,0.90625,-0.25,-0.359375
1630411828031,0.90625,-0.25,-0.359375
1630411828062,0.90625,-0.25,-0.359375
1630411828093,0.90625,-0.25,-0.359375
1630411828125,0.90625,-0.25,-0.359375
1630411828156,0.90625,-0.25,-0.359375
1630411828187,0.90625,-0.25,-0.359375
1630411828218,0.90625,-0.25,-0.359375
1630411828250,0.90625,-0.25,-0.359375
1630411828281,0.90625,-0.25,-0.359375
1630411828312,0.90625,-0.25,-0.359375
1630411828343,0.90625,-0.25,-0.359375
1630411828375,0.90625,-0.25,-0.359375
1630411828406,0.90625,-0.25,-0.359375
1630411828437,0.90625,-0.25,-0.359375
1630411828468,0.90625,-0.25,-0.359375
1630411828500,0.90625,-0.25,-0.359375
1630411828531,0.90625,-0.25,-0.359375
1630411828562,0.90625,-0.25,-0.359375
1630411828593,0.90625,-0.25,-0.359375
1630411828625,0.90625,-0.25,-0.359375
1630411828656,0.90625,-0.25,-0.359375
1630411828687,0.90625,-0.25,-0.359375
1630411828718,0.90625,-0.25,-0.359375
1630411828750,0.90625,-0.25,-0.359375
1630411828781,0.90625,-0.25,-0.359375
1630411828812,0.90625,-0.25,-0.359375
1630411828843,0.921875,-0.25,-0.359375
1630411828875,0.90625,-0.25,-0.359375
1630411828906,0.90625,-0.25,-0.359375
1630411828937,0.90625,-0.25,-0.359375
1630411828968,0.90625,-0.25,-0.359375
1630411829000,0.90625,-0.25,-0.359375
1630411829031,0.90625,-0.25,-0.359375
1630411829062,0.90625,-0.25,-0.359375
1630411829093,0.90625,-0.25,-0.359375
1630411829125,0.90625,-0.25,-0.359375
1630411829156,0.90625,-0.25,-0.359375
1630411829187,0.921875,-0.25,-0.359375
1630411829218,0.90625,-0.25,-0.359375
1630411829250,0.90625,-0.25,-0.359375
1630411829281,0.90625,-0.25,-0.359375
1630411829312,0.90625,-0.25,-0.359375
1630411829343,0.90625,-0.25,-0.359375
1630411829375,0.90625,-0.25,-0.359375
1630411829406,0.90625,-0.265625,-0.359375
1630411829437,0.90625,-0.25,-0.359375
1630411829468,0.90625,-0.25,-0.359375
1630411829500,0.90625,-0.25,-0.359375
1630411829531,0.90625,-0.25,-0.359375
1630411829562,0.90625,-0.25,-0.359375
1630411829593,0.90625,-0.25,-0.359375
1630411829625,0.90625,-0.25,-0.359375
1630411829656,0.90625,-0.25,-0.359375
1630411829687,0.90625,-0.25,-0.359375
1630411829718,0.90625,-0.25,-0.359375
1630411829750,0.90625,-0.25,-0.359375
1630411829781,0.90625,-0.265625,-0.359375
1630411829812,0.90625,-0.25,-0.359375
1630411829843,0.90625,-0.25,-0.359375
1630411829875,0.90625,-0.25,-0.359375
1630411829906,0.90625,-0.25,-0.359375
1630411829937,0.90625,-0.25,-0.359375
1630411829968,0.90625,-0.25,-0.359375
1630411830000,0.90625,-0.25,-0.359375
1630411830031,0.90625,-0.25,-0.359375
1630411830062,0.90625,-0.25,-0.359375
1630411830093,0.90625,-0.25,-0.359375
1630411830125,0.90625,-0.25,-0.359375
1630411830156,0.90625,-0.25,-0.359375
1630411830187,0.90625,-0.25,-0.359375
1630411830218,0.90625,-0.25,-0.359375
1630411830250,0.90625,-0.25,-0.359375
1630411830281,0.90625,-0.25,-0.359375
1630411830312,0.90625,-0.25,-0.359375
1630411830343,0.90625,-0.25,-0.359375
1630411830375,0.90625,-0.25,-0.359375
1630411830406,0.90625,-0.25,-0.359375
1630411830437,0.90625,-0.25,-0.359375
1630411830468,0.90625,-0.25,-0.359375
1630411830500,0.90625,-0.25,-0.359375
1630411830531,0.90625,-0.25,-0.359375
1630411830562,0.90625,-0.25,-0.359375
1630411830593,0.90625,-0.25,-0.359375
1630411830625,0.90625,-0.25,-0.359375
1630411830656,0.90625,-0.25,-0.359375
1630411830687,0.921875,-0.25,-0.359375
1630411830718,0.90625,-0.25,-0.359375
1630411830750,0.90625,-0.25,-0.359375
1630411830781,0.90625,-0.25,-0.359375
1630411830812,0.90625,-0.25,-0.359375
1630411830843,0.90625,-0.25,-0.359375
1630411830875,0.90625,-0.25,-0.359375
1630411830906,0.90625,-0.25,-0.359375
1630411830937,0.90625,-0.25,-0.359375
1630411830968,0.90625,-0.25,-0.359375
1630411831000,0.90625,-0.25,-0.359375
1630411831031,0.90625,-0.25,-0.359375
1630411831062,0.90625,-0.25,-0.359375
1630411831093,0.90625,-0.25,-0.359375
1630411831125,0.90625,-0.25,-0.359375
1630411831156,0.90625,-0.25,-0.359375
1630411831187,0.90625,-0.25,-0.359375
1630411831218,0.90625,-0.25,-0.359375
1630411831250,0.90625,-0.25,-0.359375
1630411831281,0.90625,-0.25,-0.359375
1630411831312,0.90625,-0.25,-0.359375
1630411831343,0.90625,-0.25,-0.359375
1630411831375,0.90625,-0.25,-0.359375
1630411831406,0.90625,-0.25,-0.359375
1630411831437,0.90625,-0.25,-0.359375
1630411831468,0.90625,-0.25,-0.359375
1630411831500,0.90625,-0.25,-0.359375
1630411831531,0.90625,-0.25,-0.359375
1630411831562,0.90625,-0.25,-0.359375
1630411831593,0.90625,-0.25,-0.359375
1630411831625,0.90625,-0.25,-0.359375
1630411831656,0.90625,-0.25,-0.359375
1630411831687,0.90625,-0.25,-0.359375
1630411831718,0.90625,-0.25,-0.359375
1630411831750,0.90625,-0.25,-0.359375
1630411831781,0.90625,-0.25,-0.359375
1630411831812,0.90625,-0.25,-0.359375
1630411831843,0.90625,-0.25,-0.359375
1630411831875,0.90625,-0.25,-0.359375
1630411831906,0.90625,-0.25,-0.359375
1630411831937,0.90625,-0.25,-0.359375
1630411831968,0.90625,-0.25,-0.359375
1630411832000,0.90625,-0.25,-0.359375
1630411832031,0.90625,-0.25,-0.359375
1630411832062,0.90625,-0.25,-0.359375
1630411832093,0.90625,-0.25,-0.359375
1630411832125,0.90625,-0.25,-0.359375
1630411832156,0.90625,-0.25,-0.359375
1630411832187,0.90625,-0.25,-0.359375
1630411832218,0.90625,-0.25,-0.359375
1630411832250,0.90625,-0.25,-0.359375
1630411832281,0.90625,-0.25,-0.359375
1630411832312,0.90625,-0.25,-0.359375
1630411832343,0.90625,-0.25,-0.359375
1630411832375,0.90625,-0.25,-0.359375
1630411832406,0.90625,-0.25,-0.359375
1630411832437,0.90625,-0.25,-0.359375
1630411832468,0.90625,-0.265625,-0.359375
1630411832500,0.90625,-0.25,-0.359375
1630411832531,0.90625,-0.25,-0.359375
1630411832562,0.90625,-0.25,-0.359375
1630411832593,0.90625,-0.25,-0.359375
1630411832625,0.90625,-0.25,-0.359375
1630411832656,0.90625,-0.25,-0.359375
1630411832687,0.90625,-0.25,-0.359375
1630411832718,0.90625,-0.25,-0.359375
1630411832750,0.90625,-0.25,-0.359375
1630411832781,0.90625,-0.25,-0.359375
1630411832812,0.90625,-0.25,-0.359375
1630411832843,0.90625,-0.25,-0.359375
1630411832875,0.90625,-0.25,-0.359375
1630411832906,0.90625,-0.25,-0.359375
1630411832937,0.90625,-0.25,-0.359375
1630411832968,0.90625,-0.25,-0.359375
1630411833000,0.90625,-0.25,-0.359375
1630411833031,0.90625,-0.25,-0.359375
1630411833062,0.90625,-0.25,-0.359375
1630411833093,0.90625,-0.25,-0.359375
1630411833125,0.90625,-0.25,-0.359375
1630411833156,0.90625,-0.25,-0.359375
1630411833187,0.90625,-0.25,-0.359375
1630411833218,0.90625,-0.25,-0.359375
1630411833250,0.90625,-0.25,-0.359375
1630411833281,0.90625,-0.25,-0.359375
1630411833312,0.90625,-0.25,-0.359375
1630411833343,0.90625,-0.25,-0.359375
1630411833375,0.90625,-0.25,-0.359375
1630411833406,0.90625,-0.25,-0.359375
1630411833437,0.90625,-0.25,-0.359375
1630411833468,0.90625,-0.25,-0.359375
1630411833500,0.90625,-0.25,-0.359375
1630411833531,0.90625,-0.25,-0.359375
1630411833562,0.90625,-0.25,-0.359375
1630411833593,0.90625,-0.25,-0.359375
1630411833625,0.90625,-0.25,-0.359375
1630411833656,0.90625,-0.25,-0.359375
1630411833687,0.90625,-0.25,-0.359375
1630411833718,0.90625,-0.25,-0.359375
1630411833750,0.90625,-0.25,-0.359375
1630411833781,0.90625,-0.25,-0.359375
1630411833812,0.90625,-0.25,-0.359375
1630411833843,0.90625,-0.25,-0.359375
1630411833875,0.90625,-0.25,-0.359375
1630411833906,0.90625,-0.25,-0.359375
1630411833937,0.90625,-0.25,-0.359375
1630411833968,0.90625,-0.25,-0.359375
1630411834000,0.90625,-0.25,-0.359375
1630411834031,0.90625,-0.25,-0.359375
1630411834062,0.90625,-0.25,-0.359375
1630411834093,0.90625,-0.25,-0.359375
1630411834125,0.90625,-0.25,-0.359375
1630411834156,0.90625,-0.25,-0.359375
1630411834187,0.90625,-0.25,-0.359375
1630411834218,0.90625,-0.25,-0.359375
1630411834250,0.90625,-0.25,-0.359375
1630411834281,0.90625,-0.25,-0.359375
1630411834312,0.90625,-0.25,-0.359375
1630411834343,0.90625,-0.25,-0.359375
1630411834375,0.90625,-0.25,-0.359375
1630411834406,0.90625,-0.25,-0.359375
1630411834437,0.90625,-0.25,-0.359375
1630411834468,0.90625,-0.25,-0.359375
1630411834500,0.90625,-0.25,-0.359375
1630411834531,0.90625,-0.25,-0.359375
1630411834562,0.90625,-0.25,-0.359375
1630411834593,0.90625,-0.25,-0.359375
1630411834625,0.90625,-0.25,-0.359375
1630411834656,0.90625,-0.25,-0.359375
1630411834687,0.90625,-0.25,-0.359375
1630411834718,0.90625,-0.25,-0.359375
1630411834750,0.90625,-0.25,-0.359375
1630411834781,0.90625,-0.25,-0.359375
1630411834812,0.90625,-0.25,-0.359375
1630411834843,0.90625,-0.25,-0.359375
1630411834875,0.90625,-0.25,-0.359375
1630411834906,0.90625,-0.25,-0.359375
1630411834937,0.90625,-0.25,-0.359375
1630411834968,0.90625,-0.25,-0.359375
1630411835000,0.90625,-0.25,-0.359375
1630411835031,0.90625,-0.265625,-0.359375
1630411835062,0.90625,-0.25,-0.359375
1630411835093,0.90625,-0.25,-0.359375
1630411835125,0.90625,-0.25,-0.359375
1630411835156,0.90625,-0.25,-0.359375
1630411835187,0.90625,-0.25,-0.359375
1630411835218,0.90625,-0.25,-0.359375
1630411835250,0.90625,-0.25,-0.359375
1630411835281,0.90625,-0.265625,-0.359375
1630411835312,0.90625,-0.265625,-0.359375
1630411835343,0.90625,-0.25,-0.359375
1630411835375,0.90625,-0.25,-0.359375
1630411835406,0.90625,-0.25,-0.359375
1630411835437,0.90625,-0.265625,-0.375
1630411835468,0.90625,-0.25,-0.359375
1630411835500,0.90625,-0.265625,-0.359375
1630411835531,0.90625,-0.265625,-0.359375
1630411835562,0.90625,-0.265625,-0.375
1630411835593,0.90625,-0.265625,-0.359375
1630411835625,0.90625,-0.265625,-0.359375
1630411835656,0.90625,-0.25,-0.359375
1630411835687,0.90625,-0.25,-0.359375
1630411835718,0.90625,-0.25,-0.359375
1630411835750,0.90625,-0.25,-0.359375
1630411835781,0.90625,-0.25,-0.359375
1630411835812,0.90625,-0.25,-0.359375
1630411835843,0.90625,-0.25,-0.359375
1630411835875,0.90625,-0.25,-0.359375
1630411835906,0.90625,-0.25,-0.359375
1630411835937,0.90625,-0.25,-0.359375
1630411835968,0.90625,-0.25,-0.359375
1630411836000,0.90625,-0.25,-0.359375
1630411836031,0.90625,-0.25,-0.359375
1630411836062,0.90625,-0.25,-0.359375
1630411836093,0.90625,-0.25,-0.359375
1630411836125,0.90625,-0.25,-0.359375
1630411836156,0.90625,-0.25,-0.359375
1630411836187,0.90625,-0.25,-0.359375
1630411836218,0.90625,-0.25,-0.359375
1630411836250,0.90625,-0.25,-0.359375
1630411836281,0.90625,-0.25,-0.359375
1630411836312,0.90625,-0.25,-0.359375
1630411836343,0.90625,-0.25,-0.359375
1630411836375,0.90625,-0.25,-0.359375
1630411836406,0.90625,-0.25,-0.359375
1630411836437,0.90625,-0.25,-0.359375
1630411836468,0.90625,-0.25,-0.359375
1630411836500,0.90625,-0.25,-0.359375
1630411836531,0.90625,-0.25,-0.359375
1630411836562,0.90625,-0.25,-0.359375
1630411836593,0.90625,-0.25,-0.359375
1630411836625,0.90625,-0.25,-0.359375
1630411836656,0.90625,-0.25,-0.359375
1630411836687,0.90625,-0.25,-0.359375
1630411836718,0.90625,-0.25,-0.359375
1630411836750,0.90625,-0.25,-0.359375
1630411836781,0.90625,-0.25,-0.359375
1630411836812,0.90625,-0.25,-0.359375
1630411836843,0.90625,-0.25,-0.359375
1630411836875,0.90625,-0.25,-0.359375
1630411836906,0.90625,-0.25,-0.359375
1630411836937,0.90625,-0.25,-0.359375
1630411836968,0.90625,-0.25,-0.359375
1630411837000,0.90625,-0.25,-0.359375
1630411837031,0.90625,-0.25,-0.359375
1630411837062,0.90625,-0.25,-0.359375
1630411837093,0.90625,-0.25,-0.359375
1630411837125,0.90625,-0.25,-0.359375
1630411837156,0.90625,-0.25,-0.359375
1630411837187,0.90625,-0.25,-0.359375
1630411837218,0.90625,-0.25,-0.359375
1630411837250,0.90625,-0.25,-0.359375
1630411837281,0.90625,-0.25,-0.359375
1630411837312,0.90625,-0.25,-0.359375
1630411837343,0.90625,-0.25,-0.359375
1630411837375,0.90625,-0.25,-0.359375
1630411837406,0.90625,-0.25,-0.359375
1630411837437,0.90625,-0.25,-0.359375
1630411837468,0.90625,-0.25,-0.359375
1630411837500,0.90625,-0.25,-0.359375
1630411837531,0.90625,-0.25,-0.359375
1630411837562,0.90625,-0.25,-0.359375
1630411837593,0.90625,-0.25,-0.359375
1630411837625,0.90625,-0.25,-0.359375
1630411837656,0.90625,-0.25,-0.359375
1630411837687,0.90625,-0.25,-0.375
1630411837718,0.90625,-0.25,-0.359375
1630411837750,0.90625,-0.25,-0.359375
1630411837781,0.90625,-0.25,-0.359375
1630411837812,0.90625,-0.25,-0.359375
1630411837843,0.90625,-0.25,-0.359375
1630411837875,0.90625,-0.25,-0.359375
1630411837906,0.90625,-0.25,-0.359375
1630411837937,0.90625,-0.25,-0.359375
1630411837968,0.90625,-0.25,-0.359375
1630411838000,0.90625,-0.25,-0.359375
1630411838031,0.90625,-0.25,-0.359375
1630411838062,0.90625,-0.25,-0.359375
1630411838093,0.90625,-0.25,-0.359375
1630411838125,0.90625,-0.25,-0.359375
1630411838156,0.90625,-0.25,-0.359375
1630411838187,0.90625,-0.265625,-0.359375
1630411838218,0.90625,-0.265625,-0.359375
1630411838250,0.90625,-0.265625,-0.359375
1630411838281,0.90625,-0.265625,-0.359375
1630411838312,0.90625,-0.265625,-0.359375
1630411838343,0.90625,-0.265625,-0.359375
1630411838375,0.90625,-0.25,-0.359375
1630411838406,0.90625,-0.265625,-0.359375
1630411838437,0.90625,-0.25,-0.359375
1630411838468,0.90625,-0.265625,-0.375
1630411838500,0.90625,-0.25,-0.359375
1630411838531,0.90625,-0.25,-0.359375
1630411838562,0.90625,-0.25,-0.359375
1630411838593,0.90625,-0.25,-0.359375
1630411838625,0.90625,-0.25,-0.359375
1630411838656,0.90625,-0.25,-0.359375
1630411838687,0.90625,-0.25,-0.359375
1630411838718,0.90625,-0.25,-0.359375
1630411838750,0.90625,-0.25,-0.359375
1630411838781,0.90625,-0.25,-0.359375
1630411838812,0.90625,-0.25,-0.359375
1630411838843,0.90625,-0.25,-0.359375
1630411838875,0.90625,-0.25,-0.359375
1630411838906,0.90625,-0.25,-0.359375
1630411838937,0.90625,-0.25,-0.359375
1630411838968,0.90625,-0.25,-0.359375
1630411839000,0.90625,-0.25,-0.359375
1630411839031,0.90625,-0.25,-0.359375
1630411839062,0.90625,-0.25,-0.359375
1630411839093,0.90625,-0.25,-0.359375
1630411839125,0.90625,-0.25,-0.359375
1630411839156,0.90625,-0.25,-0.359375
1630411839187,0.90625,-0.25,-0.359375
1630411839218,0.90625,-0.25,-0.359375
1630411839250,0.90625,-0.25,-0.359375
1630411839281,0.90625,-0.25,-0.359375
1630411839312,0.90625,-0.25,-0.359375
1630411839343,0.90625,-0.25,-0.359375
1630411839375,0.90625,-0.25,-0.359375
1630411839406,0.90625,-0.25,-0.359375
1630411839437,0.90625,-0.25,-0.359375
1630411839468,0.90625,-0.25,-0.359375
1630411839500,0.90625,-0.25,-0.359375
1630411839531,0.90625,-0.25,-0.359375
1630411839562,0.90625,-0.25,-0.359375
1630411839593,0.90625,-0.25,-0.359375
1630411839625,0.90625,-0.25,-0.359375
1630411839656,0.90625,-0.25,-0.359375
1630411839687,0.90625,-0.25,-0.359375
1630411839718,0.90625,-0.25,-0.359375
1630411839750,0.90625,-0.25,-0.359375
1630411839781,0.90625,-0.25,-0.359375
1630411839812,0.90625,-0.25,-0.359375
1630411839843,0.90625,-0.25,-0.359375
1630411839875,0.90625,-0.25,-0.359375
1630411839906,0.90625,-0.25,-0.359375
1630411839937,0.90625,-0.25,-0.359375
1630411839968,0.90625,-0.25,-0.359375
1630411840000,0.90625,-0.25,-0.359375
1630411840031,0.90625,-0.25,-0.359375
1630411840062,0.90625,-0.25,-0.359375
1630411840093,0.90625,-0.25,-0.359375
1630411840125,0.90625,-0.25,-0.359375
1630411840156,0.90625,-0.25,-0.359375
1630411840187,0.90625,-0.25,-0.359375
1630411840218,0.90625,-0.265625,-0.359375
1630411840250,0.90625,-0.25,-0.359375
1630411840281,0.90625,-0.25,-0.359375
1630411840312,0.90625,-0.25,-0.359375
1630411840343,0.90625,-0.265625,-0.359375
1630411840375,0.90625,-0.25,-0.359375
1630411840406,0.90625,-0.25,-0.359375
1630411840437,0.90625,-0.25,-0.359375
1630411840468,0.90625,-0.25,-0.359375
1630411840500,0.90625,-0.265625,-0.359375
1630411840531,0.90625,-0.25,-0.359375
1630411840562,0.90625,-0.25,-0.359375
1630411840593,0.90625,-0.25,-0.359375
1630411840625,0.90625,-0.265625,-0.375
1630411840656,0.90625,-0.265625,-0.359375
1630411840687,0.90625,-0.265625,-0.359375
1630411840718,0.90625,-0.265625,-0.359375
1630411840750,0.90625,-0.265625,-0.359375
1630411840781,0.90625,-0.265625,-0.375
1630411840812,0.90625,-0.265625,-0.375
1630411840843,0.890625,-0.265625,-0.359375
1630411840875,0.90625,-0.25,-0.359375
1630411840906,0.90625,-0.265625,-0.375
1630411840937,0.90625,-0.25,-0.359375
1630411840968,0.90625,-0.25,-0.359375
1630411841000,0.90625,-0.265625,-0.359375
1630411841031,0.90625,-0.25,-0.359375
1630411841062,0.90625,-0.265625,-0.359375
1630411841093,0.90625,-0.25,-0.359375
1630411841125,0.90625,-0.25,-0.375
1630411841156,0.90625,-0.25,-0.359375
1630411841187,0.90625,-0.25,-0.359375
1630411841218,0.90625,-0.25,-0.359375
1630411841250,0.90625,-0.25,-0.359375
1630411841281,0.90625,-0.25,-0.359375
1630411841312,0.90625,-0.25,-0.359375
1630411841343,0.90625,-0.25,-0.359375
1630411841375,0.90625,-0.25,-0.359375
1630411841406,0.90625,-0.25,-0.359375
1630411841437,0.90625,-0.25,-0.359375
1630411841468,0.90625,-0.25,-0.359375
1630411841500,0.90625,-0.25,-0.359375
1630411841531,0.90625,-0.25,-0.359375
1630411841562,0.90625,-0.25,-0.359375
1630411841593,0.90625,-0.25,-0.359375
1630411841625,0.90625,-0.25,-0.359375
1630411841656,0.90625,-0.25,-0.359375
1630411841687,0.90625,-0.25,-0.359375
1630411841718,0.90625,-0.25,-0.359375
1630411841750,0.90625,-0.25,-0.359375
1630411841781,0.90625,-0.25,-0.359375
1630411841812,0.90625,-0.25,-0.359375
1630411841843,0.90625,-0.25,-0.359375
1630411841875,0.90625,-0.25,-0.359375
1630411841906,0.90625,-0.25,-0.359375
1630411841937,0.90625,-0.25,-0.359375
1630411841968,0.90625,-0.25,-0.359375
1630411842000,0.90625,-0.25,-0.359375
1630411842031,0.90625,-0.25,-0.359375
1630411842062,0.90625,-0.25,-0.359375
1630411842093,0.90625,-0.25,-0.359375
1630411842125,0.90625,-0.25,-0.359375
1630411842156,0.90625,-0.25,-0.359375
1630411842187,0.90625,-0.25,-0.359375
1630411842218,0.90625,-0.25,-0.359375
1630411842250,0.90625,-0.25,-0.359375
1630411842281,0.90625,-0.25,-0.359375
1630411842312,0.90625,-0.25,-0.359375
1630411842343,0.90625,-0.25,-0.359375
1630411842375,0.90625,-0.25,-0.359375
1630411842406,0.90625,-0.25,-0.359375
1630411842437,0.90625,-0.25,-0.359375
1630411842468,0.921875,-0.25,-0.359375
1630411842500,0.90625,-0.25,-0.359375
1630411842531,0.90625,-0.25,-0.359375
1630411842562,0.90625,-0.25,-0.359375
1630411842593,0.90625,-0.25,-0.359375
1630411842625,0.90625,-0.25,-0.359375
1630411842656,0.90625,-0.25,-0.359375
1630411842687,0.90625,-0.25,-0.359375
1630411842718,0.90625,-0.25,-0.359375
1630411842750,0.90625,-0.25,-0.359375
1630411842781,0.90625,-0.25,-0.359375
1630411842812,0.90625,-0.25,-0.359375
1630411842843,0.90625,-0.25,-0.359375
1630411842875,0.90625,-0.25,-0.359375
1630411842906,0.90625,-0.25,-0.359375
1630411842937,0.90625,-0.25,-0.359375
1630411842968,0.90625,-0.25,-0.359375
1630411843000,0.90625,-0.25,-0.359375
1630411843031,0.90625,-0.25,-0.359375
1630411843062,0.90625,-0.25,-0.359375
1630411843093,0.90625,-0.25,-0.359375
1630411843125,0.90625,-0.25,-0.359375
1630411843156,0.90625,-0.25,-0.359375
1630411843187,0.90625,-0.25,-0.359375
1630411843218,0.90625,-0.25,-0.359375
1630411843250,0.90625,-0.25,-0.359375
1630411843281,0.90625,-0.25,-0.359375
1630411843312,0.90625,-0.25,-0.375
1630411843343,0.90625,-0.25,-0.359375
1630411843375,0.90625,-0.25,-0.359375
1630411843406,0.90625,-0.265625,-0.359375
1630411843437,0.90625,-0.25,-0.359375
1630411843468,0.90625,-0.25,-0.359375
1630411843500,0.90625,-0.265625,-0.359375
1630411843531,0.90625,-0.265625,-0.359375
1630411843562,0.90625,-0.25,-0.359375
1630411843593,0.90625,-0.25,-0.359375
1630411843625,0.90625,-0.25,-0.359375
1630411843656,0.90625,-0.265625,-0.359375
1630411843687,0.90625,-0.25,-0.359375
1630411843718,0.90625,-0.25,-0.359375
1630411843750,0.90625,-0.25,-0.375
1630411843781,0.90625,-0.25,-0.359375
1630411843812,0.90625,-0.265625,-0.359375
1630411843843,0.90625,-0.25,-0.359375
1630411843875,0.90625,-0.25,-0.359375
1630411843906,0.90625,-0.25,-0.359375
1630411843937,0.90625,-0.25,-0.359375
1630411843968,0.90625,-0.25,-0.359375
1630411844000,0.90625,-0.25,-0.359375
1630411844031,0.90625,-0.25,-0.359375
1630411844062,0.90625,-0.25,-0.359375
1630411844093,0.90625,-0.25,-0.359375
1630411844125,0.90625,-0.25,-0.359375
1630411844156,0.90625,-0.25,-0.359375
1630411844187,0.90625,-0.25,-0.359375
1630411844218,0.90625,-0.25,-0.359375
1630411844250,0.90625,-0.25,-0.359375
1630411844281,0.90625,-0.25,-0.359375
1630411844312,0.90625,-0.25,-0.359375
1630411844343,0.90625,-0.25,-0.359375
1630411844375,0.90625,-0.25,-0.359375
1630411844406,0.90625,-0.25,-0.359375
1630411844437,0.90625,-0.25,-0.359375
1630411844468,0.90625,-0.25,-0.359375
1630411844500,0.90625,-0.25,-0.359375
1630411844531,0.90625,-0.25,-0.375
1630411844562,0.90625,-0.25,-0.359375
1630411844593,0.90625,-0.25,-0.359375
1630411844625,0.90625,-0.25,-0.359375
1630411844656,0.90625,-0.25,-0.359375
1630411844687,0.90625,-0.25,-0.359375
1630411844718,0.90625,-0.25,-0.359375
1630411844750,0.90625,-0.25,-0.359375
1630411844781,0.90625,-0.25,-0.359375
1630411844812,0.90625,-0.25,-0.359375
1630411844843,0.90625,-0.25,-0.359375
1630411844875,0.90625,-0.25,-0.359375
1630411844906,0.90625,-0.25,-0.359375
1630411844937,0.90625,-0.25,-0.359375
1630411844968,0.90625,-0.25,-0.359375
1630411845000,0.90625,-0.25,-0.359375
1630411845031,0.90625,-0.25,-0.359375
1630411845062,0.90625,-0.25,-0.359375
1630411845093,0.90625,-0.25,-0.359375
1630411845125,0.90625,-0.25,-0.359375
1630411845156,0.90625,-0.25,-0.359375
1630411845187,0.90625,-0.25,-0.359375
1630411845218,0.90625,-0.25,-0.359375
1630411845250,0.90625,-0.25,-0.359375
1630411845281,0.90625,-0.25,-0.359375
1630411845312,0.90625,-0.25,-0.359375
1630411845343,0.90625,-0.25,-0.359375
1630411845375,0.90625,-0.25,-0.359375
1630411845406,0.90625,-0.25,-0.359375
1630411845437,0.90625,-0.25,-0.359375
1630411845468,0.90625,-0.25,-0.359375
1630411845500,0.90625,-0.25,-0.359375
1630411845531,0.90625,-0.25,-0.359375
1630411845562,0.90625,-0.25,-0.359375
1630411845593,0.90625,-0.25,-0.359375
1630411845625,0.90625,-0.25,-0.359375
1630411845656,0.90625,-0.25,-0.359375
1630411845687,0.90625,-0.25,-0.359375
1630411845718,0.90625,-0.25,-0.359375
1630411845750,0.90625,-0.25,-0.359375
1630411845781,0.90625,-0.25,-0.359375
1630411845812,0.90625,-0.25,-0.359375
1630411845843,0.90625,-0.25,-0.359375
1630411845875,0.90625,-0.25,-0.359375
1630411845906,0.90625,-0.25,-0.359375
1630411845937,0.90625,-0.25,-0.359375
1630411845968,0.90625,-0.25,-0.359375
1630411846000,0.90625,-0.25,-0.359375
1630411846031,0.90625,-0.25,-0.359375
1630411846062,0.90625,-0.25,-0.359375
1630411846093,0.90625,-0.25,-0.359375
1630411846125,0.90625,-0.25,-0.359375
1630411846156,0.90625,-0.25,-0.359375
1630411846187,0.90625,-0.25,-0.359375
1630411846218,0.90625,-0.25,-0.359375
1630411846250,0.90625,-0.25,-0.359375
1630411846281,0.90625,-0.25,-0.359375
1630411846312,0.90625,-0.25,-0.359375
1630411846343,0.90625,-0.25,-0.359375
1630411846375,0.90625,-0.25,-0.359375
1630411846406,0.90625,-0.25,-0.359375
1630411846437,0.90625,-0.25,-0.359375
1630411846468,0.90625,-0.25,-0.375
1630411846500,0.90625,-0.25,-0.359375
1630411846531,0.90625,-0.25,-0.359375
1630411846562,0.90625,-0.25,-0.359375
1630411846593,0.90625,-0.25,-0.359375
1630411846625,0.90625,-0.25,-0.359375
1630411846656,0.90625,-0.25,-0.359375
1630411846687,0.90625,-0.25,-0.359375
1630411846718,0.90625,-0.25,-0.359375
1630411846750,0.90625,-0.265625,-0.375
1630411846781,0.90625,-0.265625,-0.359375
1630411846812,0.90625,-0.25,-0.359375
1630411846843,0.90625,-0.25,-0.359375
1630411846875,0.90625,-0.265625,-0.359375
1630411846906,0.90625,-0.25,-0.359375
1630411846937,0.90625,-0.265625,-0.359375
1630411846968,0.90625,-0.25,-0.375
1630411847000,0.90625,-0.25,-0.359375
1630411847031,0.90625,-0.25,-0.359375
1630411847062,0.90625,-0.25,-0.359375
1630411847093,0.90625,-0.25,-0.359375
1630411847125,0.90625,-0.25,-0.375
1630411847156,0.90625,-0.25,-0.359375
1630411847187,0.90625,-0.25,-0.359375
1630411847218,0.90625,-0.25,-0.359375
1630411847250,0.90625,-0.25,-0.359375
1630411847281,0.90625,-0.25,-0.359375
1630411847312,0.90625,-0.25,-0.359375
1630411847343,0.90625,-0.25,-0.359375
1630411847375,0.90625,-0.25,-0.359375
1630411847406,0.90625,-0.25,-0.359375
1630411847437,0.90625,-0.25,-0.359375
1630411847468,0.90625,-0.25,-0.359375
1630411847500,0.90625,-0.25,-0.359375
1630411847531,0.90625,-0.25,-0.359375
1630411847562,0.921875,-0.25,-0.359375
1630411847593,0.90625,-0.25,-0.359375
1630411847625,0.90625,-0.25,-0.359375
1630411847656,0.90625,-0.25,-0.359375
1630411847687,0.90625,-0.25,-0.359375
1630411847718,0.90625,-0.25,-0.359375
1630411847750,0.90625,-0.25,-0.359375
1630411847781,0.90625,-0.25,-0.359375
1630411847812,0.90625,-0.25,-0.359375
1630411847843,0.90625,-0.25,-0.359375
1630411847875,0.90625,-0.25,-0.359375
1630411847906,0.90625,-0.25,-0.359375
1630411847937,0.90625,-0.25,-0.359375
1630411847968,0.90625,-0.25,-0.359375
1630411848000,0.90625,-0.25,-0.359375
1630411848031,0.90625,-0.25,-0.359375
1630411848062,0.90625,-0.25,-0.359375
1630411848093,0.90625,-0.25,-0.359375
1630411848125,0.90625,-0.25,-0.359375
1630411848156,0.90625,-0.25,-0.359375
1630411848187,0.90625,-0.25,-0.359375
1630411848218,0.90625,-0.25,-0.359375
1630411848250,0.90625,-0.25,-0.359375
1630411848281,0.90625,-0.25,-0.359375
1630411848312,0.90625,-0.25,-0.359375
1630411848343,0.90625,-0.25,-0.359375
1630411848375,0.90625,-0.25,-0.359375
1630411848406,0.90625,-0.25,-0.359375
1630411848437,0.90625,-0.25,-0.359375
1630411848468,0.90625,-0.25,-0.359375
1630411848500,0.90625,-0.25,-0.359375
1630411848531,0.90625,-0.25,-0.359375
1630411848562,0.90625,-0.25,-0.359375
1630411848593,0.90625,-0.25,-0.359375
1630411848625,0.90625,-0.25,-0.359375
1630411848656,0.90625,-0.25,-0.359375
1630411848687,0.90625,-0.25,-0.359375
1630411848718,0.90625,-0.25,-0.359375
1630411848750,0.90625,-0.25,-0.359375
1630411848781,0.90625,-0.25,-0.359375
1630411848812,0.90625,-0.25,-0.359375
1630411848843,0.90625,-0.25,-0.359375
1630411848875,0.90625,-0.25,-0.359375
1630411848906,0.90625,-0.25,-0.359375
1630411848937,0.90625,-0.25,-0.359375
1630411848968,0.90625,-0.25,-0.359375
1630411849000,0.90625,-0.25,-0.359375
1630411849031,0.90625,-0.25,-0.359375
1630411849062,0.90625,-0.25,-0.359375
1630411849093,0.90625,-0.25,-0.359375
1630411849125,0.90625,-0.25,-0.359375
1630411849156,0.90625,-0.25,-0.359375
1630411849187,0.90625,-0.25,-0.359375
1630411849218,0.90625,-0.25,-0.359375
1630411849250,0.90625,-0.25,-0.359375
1630411849281,0.90625,-0.25,-0.359375
1630411849312,0.90625,-0.25,-0.359375
1630411849343,0.90625,-0.25,-0.359375
1630411849375,0.90625,-0.25,-0.359375
1630411849406,0.90625,-0.25,-0.359375
1630411849437,0.90625,-0.25,-0.359375
1630411849468,0.90625,-0.25,-0.359375
1630411849500,0.90625,-0.25,-0.359375
1630411849531,0.90625,-0.25,-0.375
1630411849562,0.90625,-0.25,-0.359375
1630411849593,0.90625,-0.25,-0.359375
1630411849625,0.90625,-0.265625,-0.359375
1630411849656,0.90625,-0.265625,-0.359375
1630411849687,0.90625,-0.25,-0.359375
1630411849718,0.90625,-0.265625,-0.359375
1630411849750,0.90625,-0.25,-0.359375
1630411849781,0.90625,-0.265625,-0.375
1630411849812,0.90625,-0.265625,-0.359375
1630411849843,0.90625,-0.265625,-0.359375
1630411849875,0.90625,-0.265625,-0.359375
1630411849906,0.90625,-0.265625,-0.359375
1630411849937,0.90625,-0.25,-0.359375
1630411849968,0.90625,-0.25,-0.359375
1630411850000,0.90625,-0.25,-0.359375
1630411850031,0.90625,-0.25,-0.359375
1630411850062,0.90625,-0.265625,-0.375
1630411850093,0.90625,-0.25,-0.359375
1630411850125,0.90625,-0.25,-0.359375
1630411850156,0.90625,-0.25,-0.359375
1630411850187,0.90625,-0.25,-0.359375
1630411850218,0.90625,-0.25,-0.359375
1630411850250,0.90625,-0.25,-0.359375
1630411850281,0.90625,-0.25,-0.359375
1630411850312,0.90625,-0.25,-0.359375
1630411850343,0.90625,-0.25,-0.359375
1630411850375,0.90625,-0.25,-0.359375
1630411850406,0.90625,-0.25,-0.359375
1630411850437,0.90625,-0.25,-0.359375
1630411850468,0.90625,-0.25,-0.359375
1630411850500,0.90625,-0.25,-0.359375
1630411850531,0.90625,-0.25,-0.359375
1630411850562,0.90625,-0.25,-0.359375
1630411850593,0.90625,-0.25,-0.359375
1630411850625,0.90625,-0.25,-0.375
1630411850656,0.90625,-0.25,-0.359375
1630411850687,0.90625,-0.25,-0.359375
1630411850718,0.90625,-0.25,-0.359375
1630411850750,0.90625,-0.25,-0.375
1630411850781,0.90625,-0.25,-0.359375
1630411850812,0.90625,-0.25,-0.359375
1630411850843,0.90625,-0.25,-0.359375
1630411850875,0.90625,-0.25,-0.359375
1630411850906,0.90625,-0.25,-0.359375
1630411850937,0.90625,-0.25,-0.359375
1630411850968,0.90625,-0.25,-0.359375
1630411851000,0.90625,-0.25,-0.359375
1630411851031,0.90625,-0.25,-0.359375
1630411851062,0.90625,-0.25,-0.359375
1630411851093,0.90625,-0.25,-0.359375
1630411851125,0.90625,-0.25,-0.359375
1630411851156,0.90625,-0.25,-0.359375
1630411851187,0.90625,-0.25,-0.359375
1630411851218,0.90625,-0.25,-0.359375
1630411851250,0.90625,-0.25,-0.359375
1630411851281,0.90625,-0.25,-0.359375
1630411851312,0.90625,-0.25,-0.359375
1630411851343,0.90625,-0.25,-0.359375
1630411851375,0.90625,-0.25,-0.359375
1630411851406,0.90625,-0.25,-0.359375
1630411851437,0.90625,-0.25,-0.359375
1630411851468,0.90625,-0.25,-0.359375
1630411851500,0.90625,-0.25,-0.359375
1630411851531,0.90625,-0.25,-0.359375
1630411851562,0.90625,-0.25,-0.359375
1630411851593,0.90625,-0.25,-0.359375
1630411851625,0.90625,-0.25,-0.359375
1630411851656,0.90625,-0.25,-0.359375
1630411851687,0.90625,-0.25,-0.359375
1630411851718,0.90625,-0.25,-0.359375
1630411851750,0.90625,-0.25,-0.359375
1630411851781,0.90625,-0.25,-0.359375
1630411851812,0.90625,-0.25,-0.359375
1630411851843,0.90625,-0.25,-0.359375
1630411851875,0.90625,-0.25,-0.359375
1630411851906,0.90625,-0.25,-0.375
1630411851937,0.90625,-0.25,-0.359375
1630411851968,0.90625,-0.25,-0.359375
1630411852000,0.90625,-0.25,-0.359375
1630411852031,0.90625,-0.25,-0.359375
1630411852062,0.90625,-0.25,-0.359375
1630411852093,0.90625,-0.25,-0.359375
1630411852125,0.90625,-0.25,-0.375
1630411852156,0.90625,-0.25,-0.359375
1630411852187,0.90625,-0.25,-0.359375
1630411852218,0.90625,-0.25,-0.359375
1630411852250,0.90625,-0.25,-0.359375
1630411852281,0.90625,-0.25,-0.359375
1630411852312,0.90625,-0.25,-0.359375
1630411852343,0.90625,-0.25,-0.375
1630411852375,0.90625,-0.25,-0.359375
1630411852406,0.90625,-0.25,-0.359375
1630411852437,0.90625,-0.25,-0.359375
1630411852468,0.90625,-0.25,-0.359375
1630411852500,0.90625,-0.265625,-0.359375
1630411852531,0.90625,-0.25,-0.359375
1630411852562,0.90625,-0.25,-0.359375
1630411852593,0.90625,-0.25,-0.359375
1630411852625,0.90625,-0.265625,-0.359375
1630411852656,0.90625,-0.265625,-0.359375
1630411852687,0.90625,-0.265625,-0.359375
1630411852718,0.90625,-0.265625,-0.359375
1630411852750,0.90625,-0.25,-0.375
1630411852781,0.90625,-0.265625,-0.375
1630411852812,0.90625,-0.25,-0.359375
1630411852843,0.90625,-0.25,-0.375
1630411852875,0.90625,-0.265625,-0.375
1630411852906,0.90625,-0.265625,-0.375
1630411852937,0.90625,-0.25,-0.375
1630411852968,0.90625,-0.265625,-0.375
1630411853000,0.90625,-0.25,-0.359375
1630411853031,0.90625,-0.25,-0.359375
1630411853062,0.90625,-0.25,-0.359375
1630411853093,0.90625,-0.25,-0.359375
1630411853125,0.90625,-0.25,-0.375
1630411853156,0.90625,-0.25,-0.359375
1630411853187,0.90625,-0.25,-0.375
1630411853218,0.90625,-0.25,-0.375
1630411853250,0.90625,-0.25,-0.359375
1630411853281,0.90625,-0.25,-0.359375
1630411853312,0.90625,-0.25,-0.375
1630411853343,0.90625,-0.25,-0.359375
1630411853375,0.90625,-0.25,-0.375
1630411853406,0.90625,-0.25,-0.359375
1630411853437,0.90625,-0.25,-0.359375
1630411853468,0.90625,-0.25,-0.359375
1630411853500,0.90625,-0.25,-0.359375
1630411853531,0.90625,-0.265625,-0.359375
1630411853562,0.90625,-0.25,-0.359375
1630411853593,0.90625,-0.25,-0.359375
1630411853625,0.90625,-0.25,-0.375
1630411853656,0.90625,-0.25,-0.359375
1630411853687,0.90625,-0.25,-0.359375
1630411853718,0.90625,-0.25,-0.359375
1630411853750,0.90625,-0.25,-0.359375
1630411853781,0.90625,-0.25,-0.359375
1630411853812,0.90625,-0.25,-0.359375
1630411853843,0.90625,-0.25,-0.359375
1630411853875,0.90625,-0.25,-0.359375
1630411853906,0.90625,-0.25,-0.359375
1630411853937,0.90625,-0.25,-0.359375
1630411853968,0.90625,-0.25,-0.359375
1630411854000,0.90625,-0.25,-0.359375
1630411854031,0.90625,-0.25,-0.359375
1630411854062,0.90625,-0.25,-0.359375
1630411854093,0.90625,-0.25,-0.359375
1630411854125,0.90625,-0.25,-0.359375
1630411854156,0.90625,-0.25,-0.359375
1630411854187,0.90625,-0.25,-0.359375
1630411854218,0.90625,-0.25,-0.359375
1630411854250,0.90625,-0.25,-0.359375
1630411854281,0.90625,-0.25,-0.359375
1630411854312,0.90625,-0.25,-0.359375
1630411854343,0.90625,-0.25,-0.359375
1630411854375,0.90625,-0.25,-0.359375
1630411854406,0.90625,-0.25,-0.359375
1630411854437,0.90625,-0.25,-0.359375
1630411854468,0.90625,-0.25,-0.359375
1630411854500,0.90625,-0.25,-0.359375
1630411854531,0.90625,-0.25,-0.359375
1630411854562,0.90625,-0.25,-0.359375
1630411854593,0.90625,-0.25,-0.359375
1630411854625,0.90625,-0.25,-0.359375
1630411854656,0.90625,-0.25,-0.359375
1630411854687,0.90625,-0.25,-0.359375
1630411854718,0.90625,-0.25,-0.359375
1630411854750,0.90625,-0.25,-0.359375
1630411854781,0.90625,-0.25,-0.359375
1630411854812,0.90625,-0.25,-0.359375
1630411854843,0.90625,-0.25,-0.359375
1630411854875,0.90625,-0.25,-0.359375
1630411854906,0.90625,-0.25,-0.359375
1630411854937,0.90625,-0.25,-0.359375
1630411854968,0.90625,-0.25,-0.359375
1630411855000,0.90625,-0.25,-0.359375
1630411855031,0.90625,-0.25,-0.359375
1630411855062,0.90625,-0.25,-0.359375
1630411855093,0.90625,-0.25,-0.375
1630411855125,0.90625,-0.25,-0.359375
1630411855156,0.90625,-0.25,-0.359375
1630411855187,0.90625,-0.25,-0.359375
1630411855218,0.90625,-0.25,-0.359375
1630411855250,0.90625,-0.25,-0.359375
1630411855281,0.90625,-0.265625,-0.359375
1630411855312,0.90625,-0.25,-0.359375
1630411855343,0.90625,-0.25,-0.375
1630411855375,0.90625,-0.265625,-0.375
1630411855406,0.90625,-0.265625,-0.359375
1630411855437,0.90625,-0.25,-0.359375
1630411855468,0.90625,-0.25,-0.375
1630411855500,0.890625,-0.265625,-0.359375
1630411855531,0.90625,-0.265625,-0.375
1630411855562,0.90625,-0.265625,-0.375
1630411855593,0.90625,-0.25,-0.359375
1630411855625,0.90625,-0.25,-0.359375
1630411855656,0.890625,-0.25,-0.359375
1630411855687,0.90625,-0.265625,-0.375
1630411855718,0.90625,-0.265625,-0.359375
1630411855750,0.90625,-0.265625,-0.359375
1630411855781,0.90625,-0.265625,-0.359375
1630411855812,0.90625,-0.265625,-0.375
1630411855843,0.90625,-0.265625,-0.359375
1630411855875,0.90625,-0.265625,-0.359375
1630411855906,0.90625,-0.25,-0.375
1630411855937,0.90625,-0.25,-0.359375
1630411855968,0.90625,-0.265625,-0.375
1630411856000,0.90625,-0.25,-0.359375
1630411856031,0.90625,-0.25,-0.375
1630411856062,0.90625,-0.25,-0.359375
1630411856093,0.90625,-0.25,-0.359375
1630411856125,0.90625,-0.25,-0.359375
1630411856156,0.90625,-0.25,-0.375
1630411856187,0.90625,-0.25,-0.359375
1630411856218,0.90625,-0.25,-0.375
1630411856250,0.90625,-0.25,-0.375
1630411856281,0.90625,-0.25,-0.375
1630411856312,0.90625,-0.25,-0.359375
1630411856343,0.90625,-0.25,-0.359375
1630411856375,0.90625,-0.25,-0.359375
1630411856406,0.90625,-0.25,-0.375
1630411856437,0.90625,-0.25,-0.359375
1630411856468,0.90625,-0.25,-0.359375
1630411856500,0.90625,-0.25,-0.375
1630411856531,0.90625,-0.25,-0.359375
1630411856562,0.90625,-0.25,-0.375
1630411856593,0.90625,-0.25,-0.375
1630411856625,0.90625,-0.25,-0.359375
1630411856656,0.90625,-0.25,-0.375
1630411856687,0.90625,-0.25,-0.359375
1630411856718,0.90625,-0.25,-0.359375
1630411856750,0.90625,-0.25,-0.359375
1630411856781,0.90625,-0.25,-0.375
1630411856812,0.90625,-0.25,-0.359375
1630411856843,0.90625,-0.25,-0.359375
1630411856875,0.90625,-0.25,-0.375
1630411856906,0.90625,-0.25,-0.359375
1630411856937,0.90625,-0.25,-0.359375
1630411856968,0.90625,-0.25,-0.359375
1630411857000,0.90625,-0.25,-0.359375
1630411857031,0.90625,-0.25,-0.359375
1630411857062,0.90625,-0.25,-0.359375
1630411857093,0.90625,-0.25,-0.359375
1630411857125,0.90625,-0.25,-0.359375
1630411857156,0.90625,-0.25,-0.359375
1630411857187,0.90625,-0.25,-0.359375
1630411857218,0.90625,-0.25,-0.359375
1630411857250,0.90625,-0.25,-0.359375
1630411857281,0.90625,-0.25,-0.359375
1630411857312,0.90625,-0.25,-0.359375
1630411857343,0.90625,-0.25,-0.359375
1630411857375,0.90625,-0.25,-0.359375
1630411857406,0.90625,-0.25,-0.359375
1630411857437,0.90625,-0.25,-0.359375
1630411857468,0.90625,-0.25,-0.359375
1630411857500,0.90625,-0.25,-0.359375
1630411857531,0.90625,-0.25,-0.359375
1630411857562,0.90625,-0.25,-0.359375
1630411857593,0.90625,-0.25,-0.359375
1630411857625,0.90625,-0.25,-0.359375
1630411857656,0.90625,-0.25,-0.359375
1630411857687,0.90625,-0.25,-0.359375
1630411857718,0.90625,-0.25,-0.375
1630411857750,0.90625,-0.25,-0.359375
1630411857781,0.90625,-0.25,-0.359375
1630411857812,0.90625,-0.25,-0.359375
1630411857843,0.90625,-0.25,-0.359375
1630411857875,0.90625,-0.25,-0.359375
1630411857906,0.90625,-0.25,-0.359375
1630411857937,0.90625,-0.25,-0.359375
1630411857968,0.90625,-0.265625,-0.359375
1630411858000,0.90625,-0.25,-0.359375
1630411858031,0.90625,-0.25,-0.359375
1630411858062,0.90625,-0.265625,-0.359375
1630411858093,0.90625,-0.25,-0.359375
1630411858125,0.90625,-0.265625,-0.359375
1630411858156,0.90625,-0.25,-0.359375
1630411858187,0.90625,-0.25,-0.359375
1630411858218,0.90625,-0.265625,-0.359375
1630411858250,0.90625,-0.25,-0.359375
1630411858281,0.90625,-0.25,-0.359375
1630411858312,0.90625,-0.25,-0.359375
1630411858343,0.90625,-0.265625,-0.359375
1630411858375,0.90625,-0.265625,-0.359375
1630411858406,0.90625,-0.265625,-0.359375
1630411858437,0.90625,-0.265625,-0.359375
1630411858468,0.90625,-0.265625,-0.359375
1630411858500,0.90625,-0.265625,-0.375
1630411858531,0.90625,-0.265625,-0.359375
1630411858562,0.90625,-0.265625,-0.359375
1630411858593,0.90625,-0.265625,-0.375
1630411858625,0.90625,-0.265625,-0.359375
1630411858656,0.90625,-0.265625,-0.359375
1630411858687,0.890625,-0.265625,-0.359375
1630411858718,0.90625,-0.265625,-0.375
1630411858750,0.90625,-0.265625,-0.375
1630411858781,0.90625,-0.265625,-0.375
1630411858812,0.90625,-0.265625,-0.359375
1630411858843,0.90625,-0.265625,-0.359375
1630411858875,0.90625,-0.265625,-0.359375
1630411858906,0.90625,-0.265625,-0.359375
1630411858937,0.90625,-0.265625,-0.359375
1630411858968,0.90625,-0.265625,-0.359375
1630411859000,0.90625,-0.265625,-0.359375
1630411859031,0.90625,-0.265625,-0.359375
1630411859062,0.90625,-0.265625,-0.359375
1630411859093,0.90625,-0.265625,-0.359375
1630411859125,0.90625,-0.265625,-0.359375
1630411859156,0.90625,-0.265625,-0.359375
1630411859187,0.90625,-0.265625,-0.359375
1630411859218,0.90625,-0.265625,-0.375
1630411859250,0.90625,-0.265625,-0.359375
1630411859281,0.90625,-0.265625,-0.375
1630411859312,0.90625,-0.265625,-0.359375
1630411859343,0.90625,-0.265625,-0.359375
1630411859375,0.90625,-0.265625,-0.359375
1630411859406,0.90625,-0.265625,-0.359375
1630411859437,0.90625,-0.265625,-0.359375
1630411859468,0.90625,-0.265625,-0.359375
1630411859500,0.90625,-0.265625,-0.359375
1630411859531,0.90625,-0.265625,-0.375
1630411859562,0.90625,-0.25,-0.359375
1630411859593,0.90625,-0.265625,-0.375
1630411859625,0.90625,-0.25,-0.359375
1630411859656,0.90625,-0.265625,-0.359375
1630411859687,0.90625,-0.265625,-0.359375
1630411859718,0.90625,-0.25,-0.359375
1630411859750,0.90625,-0.265625,-0.359375
1630411859781,0.90625,-0.265625,-0.359375
1630411859812,0.90625,-0.25,-0.359375
1630411859843,0.90625,-0.25,-0.359375
1630411859875,0.90625,-0.265625,-0.359375
1630411859906,0.90625,-0.265625,-0.375
1630411859937,0.90625,-0.265625,-0.359375
1630411859968,0.90625,-0.25,-0.359375
1630411860000,0.90625,-0.25,-0.375
1630411860031,0.90625,-0.265625,-0.359375
1630411860062,0.90625,-0.25,-0.359375
1630411860093,0.90625,-0.25,-0.359375
1630411860125,0.90625,-0.25,-0.375
1630411860156,0.90625,-0.25,-0.359375
1630411860187,0.90625,-0.25,-0.359375
1630411860218,0.90625,-0.25,-0.359375
1630411860250,0.90625,-0.265625,-0.359375
1630411860281,0.90625,-0.25,-0.359375
1630411860312,0.90625,-0.25,-0.359375
1630411860343,0.90625,-0.25,-0.359375
1630411860375,0.90625,-0.25,-0.359375
1630411860406,0.90625,-0.25,-0.359375
1630411860437,0.90625,-0.25,-0.359375
1630411860468,0.90625,-0.25,-0.359375
1630411860500,0.90625,-0.25,-0.359375
1630411860531,0.90625,-0.25,-0.359375
1630411860562,0.90625,-0.25,-0.359375
1630411860593,0.90625,-0.25,-0.359375
1630411860625,0.90625,-0.25,-0.359375
1630411860656,0.90625,-0.25,-0.359375
1630411860687,0.90625,-0.25,-0.359375
1630411860718,0.90625,-0.25,-0.359375
1630411860750,0.90625,-0.25,-0.359375
1630411860781,0.90625,-0.25,-0.359375
1630411860812,0.90625,-0.25,-0.359375
1630411860843,0.90625,-0.25,-0.359375
1630411860875,0.90625,-0.25,-0.359375
1630411860906,0.90625,-0.25,-0.359375
1630411860937,0.90625,-0.25,-0.359375
1630411860968,0.90625,-0.25,-0.359375
1630411861000,0.90625,-0.25,-0.359375
1630411861031,0.90625,-0.25,-0.359375
1630411861062,0.90625,-0.25,-0.359375
1630411861093,0.90625,-0.25,-0.359375
1630411861125,0.90625,-0.25,-0.359375
1630411861156,0.90625,-0.25,-0.359375
1630411861187,0.90625,-0.25,-0.359375
1630411861218,0.90625,-0.25,-0.359375
1630411861250,0.90625,-0.25,-0.359375
1630411861281,0.90625,-0.25,-0.359375
1630411861312,0.90625,-0.25,-0.359375
1630411861343,0.90625,-0.25,-0.359375
1630411861375,0.90625,-0.25,-0.359375
1630411861406,0.90625,-0.25,-0.359375
1630411861437,0.90625,-0.25,-0.359375
1630411861468,0.90625,-0.25,-0.359375
1630411861500,0.90625,-0.25,-0.359375
1630411861531,0.90625,-0.25,-0.359375
1630411861562,0.90625,-0.25,-0.359375
1630411861593,0.90625,-0.25,-0.359375
1630411861625,0.90625,-0.25,-0.359375
1630411861656,0.90625,-0.25,-0.359375
1630411861687,0.90625,-0.25,-0.359375
1630411861718,0.90625,-0.25,-0.359375
1630411861750,0.90625,-0.25,-0.359375
1630411861781,0.90625,-0.25,-0.359375
1630411861812,0.90625,-0.25,-0.359375
1630411861843,0.90625,-0.25,-0.359375
1630411861875,0.90625,-0.25,-0.359375
1630411861906,0.90625,-0.25,-0.359375
1630411861937,0.90625,-0.25,-0.359375
1630411861968,0.90625,-0.25,-0.359375
1630411862000,0.90625,-0.25,-0.359375
1630411862031,0.90625,-0.25,-0.359375
1630411862062,0.90625,-0.25,-0.359375
1630411862093,0.90625,-0.25,-0.359375
1630411862125,0.90625,-0.25,-0.359375
1630411862156,0.90625,-0.25,-0.359375
1630411862187,0.90625,-0.25,-0.359375
1630411862218,0.90625,-0.265625,-0.359375
1630411862250,0.90625,-0.25,-0.359375
1630411862281,0.90625,-0.25,-0.359375
1630411862312,0.90625,-0.25,-0.359375
1630411862343,0.90625,-0.25,-0.359375
1630411862375,0.90625,-0.25,-0.359375
1630411862406,0.90625,-0.25,-0.359375
1630411862437,0.90625,-0.25,-0.359375
1630411862468,0.90625,-0.25,-0.359375
1630411862500,0.90625,-0.25,-0.359375
1630411862531,0.90625,-0.25,-0.359375
1630411862562,0.90625,-0.265625,-0.359375
1630411862593,0.90625,-0.265625,-0.359375
1630411862625,0.90625,-0.265625,-0.359375
1630411862656,0.90625,-0.265625,-0.359375
1630411862687,0.90625,-0.265625,-0.359375
1630411862718,0.90625,-0.25,-0.359375
1630411862750,0.90625,-0.265625,-0.375
1630411862781,0.90625,-0.265625,-0.359375
1630411862812,0.90625,-0.25,-0.359375
1630411862843,0.890625,-0.265625,-0.359375
1630411862875,0.90625,-0.265625,-0.359375
1630411862906,0.90625,-0.265625,-0.359375
1630411862937,0.90625,-0.265625,-0.359375
1630411862968,0.90625,-0.265625,-0.359375
1630411863000,0.90625,-0.265625,-0.359375
1630411863031,0.90625,-0.25,-0.359375
1630411863062,0.90625,-0.265625,-0.375
1630411863093,0.90625,-0.265625,-0.375
1630411863125,0.90625,-0.265625,-0.375
1630411863156,0.90625,-0.265625,-0.359375
1630411863187,0.90625,-0.265625,-0.359375
1630411863218,0.90625,-0.265625,-0.375
1630411863250,0.90625,-0.265625,-0.359375
1630411863281,0.90625,-0.265625,-0.359375
1630411863312,0.90625,-0.265625,-0.359375
1630411863343,0.90625,-0.265625,-0.375
1630411863375,0.90625,-0.265625,-0.359375
1630411863406,0.90625,-0.265625,-0.375
1630411863437,0.90625,-0.265625,-0.359375
1630411863468,0.90625,-0.265625,-0.375
1630411863500,0.90625,-0.265625,-0.359375
1630411863531,0.90625,-0.265625,-0.359375
1630411863562,0.90625,-0.265625,-0.359375
1630411863593,0.90625,-0.265625,-0.359375
1630411863625,0.90625,-0.265625,-0.359375
1630411863656,0.90625,-0.25,-0.359375
1630411863687,0.90625,-0.265625,-0.359375
1630411863718,0.90625,-0.265625,-0.359375
1630411863750,0.90625,-0.25,-0.375
1630411863781,0.90625,-0.265625,-0.359375
1630411863812,0.90625,-0.25,-0.359375
1630411863843,0.90625,-0.25,-0.359375
1630411863875,0.90625,-0.25,-0.359375
1630411863906,0.90625,-0.265625,-0.359375
1630411863937,0.90625,-0.265625,-0.359375
1630411863968,0.90625,-0.265625,-0.359375
1630411864000,0.90625,-0.25,-0.359375
1630411864031,0.90625,-0.265625,-0.359375
1630411864062,0.90625,-0.265625,-0.359375
1630411864093,0.90625,-0.265625,-0.359375
1630411864125,0.90625,-0.265625,-0.359375
1630411864156,0.90625,-0.265625,-0.359375
1630411864187,0.90625,-0.265625,-0.359375
1630411864218,0.90625,-0.25,-0.359375
1630411864250,0.90625,-0.265625,-0.359375
1630411864281,0.90625,-0.25,-0.359375
1630411864312,0.90625,-0.25,-0.359375
1630411864343,0.90625,-0.25,-0.375
1630411864375,0.90625,-0.25,-0.359375
1630411864406,0.90625,-0.25,-0.359375
1630411864437,0.90625,-0.25,-0.359375
1630411864468,0.90625,-0.25,-0.359375
1630411864500,0.90625,-0.25,-0.359375
1630411864531,0.90625,-0.265625,-0.359375
1630411864562,0.90625,-0.25,-0.359375
1630411864593,0.90625,-0.25,-0.359375
1630411864625,0.90625,-0.25,-0.359375
1630411864656,0.90625,-0.25,-0.359375
1630411864687,0.90625,-0.25,-0.359375
1630411864718,0.90625,-0.25,-0.359375
1630411864750,0.90625,-0.25,-0.359375
1630411864781,0.90625,-0.25,-0.359375
1630411864812,0.90625,-0.25,-0.359375
1630411864843,0.90625,-0.25,-0.359375
1630411864875,0.90625,-0.25,-0.359375
1630411864906,0.90625,-0.25,-0.359375
1630411864937,0.90625,-0.25,-0.359375
1630411864968,0.90625,-0.25,-0.359375
1630411865000,0.90625,-0.25,-0.359375
1630411865031,0.90625,-0.25,-0.359375
1630411865062,0.90625,-0.25,-0.359375
1630411865093,0.90625,-0.25,-0.359375
1630411865125,0.90625,-0.25,-0.359375
1630411865156,0.90625,-0.25,-0.359375
1630411865187,0.90625,-0.25,-0.359375
1630411865218,0.90625,-0.25,-0.359375
1630411865250,0.90625,-0.25,-0.359375
1630411865281,0.90625,-0.25,-0.359375
1630411865312,0.90625,-0.25,-0.359375
1630411865343,0.90625,-0.25,-0.359375
1630411865375,0.90625,-0.25,-0.359375
1630411865406,0.90625,-0.25,-0.359375
1630411865437,0.90625,-0.25,-0.359375
1630411865468,0.90625,-0.25,-0.359375
1630411865500,0.90625,-0.25,-0.359375
1630411865531,0.90625,-0.25,-0.359375
1630411865562,0.90625,-0.25,-0.359375
1630411865593,0.90625,-0.25,-0.359375
1630411865625,0.90625,-0.25,-0.359375
1630411865656,0.90625,-0.25,-0.359375
1630411865687,0.90625,-0.25,-0.359375
1630411865718,0.90625,-0.25,-0.359375
1630411865750,0.90625,-0.25,-0.359375
1630411865781,0.90625,-0.25,-0.359375
1630411865812,0.90625,-0.25,-0.359375
1630411865843,0.90625,-0.25,-0.359375
1630411865875,0.90625,-0.25,-0.359375
1630411865906,0.90625,-0.25,-0.359375
1630411865937,0.90625,-0.25,-0.359375
1630411865968,0.90625,-0.25,-0.359375
1630411866000,0.90625,-0.25,-0.359375
1630411866031,0.90625,-0.25,-0.359375
1630411866062,0.90625,-0.25,-0.359375
1630411866093,0.90625,-0.25,-0.359375
1630411866125,0.90625,-0.25,-0.375
1630411866156,0.90625,-0.25,-0.359375
1630411866187,0.90625,-0.25,-0.359375
1630411866218,0.90625,-0.25,-0.359375
1630411866250,0.90625,-0.25,-0.359375
1630411866281,0.90625,-0.25,-0.359375
1630411866312,0.90625,-0.25,-0.359375
1630411866343,0.90625,-0.25,-0.359375
1630411866375,0.90625,-0.25,-0.359375
1630411866406,0.90625,-0.25,-0.359375
1630411866437,0.90625,-0.25,-0.359375
1630411866468,0.90625,-0.25,-0.359375
1630411866500,0.90625,-0.25,-0.359375
1630411866531,0.90625,-0.25,-0.375
1630411866562,0.90625,-0.25,-0.359375
1630411866593,0.90625,-0.25,-0.359375
1630411866625,0.90625,-0.25,-0.359375
1630411866656,0.90625,-0.25,-0.359375
1630411866687,0.90625,-0.25,-0.359375
1630411866718,0.90625,-0.265625,-0.359375
1630411866750,0.90625,-0.25,-0.359375
1630411866781,0.90625,-0.265625,-0.359375
1630411866812,0.90625,-0.25,-0.359375
1630411866843,0.90625,-0.265625,-0.359375
1630411866875,0.90625,-0.25,-0.359375
1630411866906,0.90625,-0.265625,-0.359375
1630411866937,0.90625,-0.265625,-0.375
1630411866968,0.90625,-0.265625,-0.359375
1630411867000,0.90625,-0.265625,-0.359375
1630411867031,0.90625,-0.265625,-0.375
1630411867062,0.90625,-0.265625,-0.359375
1630411867093,0.90625,-0.265625,-0.359375
1630411867125,0.90625,-0.265625,-0.359375
1630411867156,0.90625,-0.265625,-0.359375
1630411867187,0.90625,-0.265625,-0.359375
1630411867218,0.90625,-0.265625,-0.359375
1630411867250,0.90625,-0.265625,-0.359375
1630411867281,0.90625,-0.265625,-0.359375
1630411867312,0.90625,-0.265625,-0.359375
1630411867343,0.90625,-0.265625,-0.359375
1630411867375,0.90625,-0.265625,-0.359375
1630411867406,0.90625,-0.265625,-0.359375
1630411867437,0.90625,-0.265625,-0.359375
1630411867468,0.90625,-0.265625,-0.359375
1630411867500,0.90625,-0.265625,-0.359375
1630411867531,0.90625,-0.265625,-0.359375
1630411867562,0.90625,-0.265625,-0.359375
1630411867593,0.90625,-0.265625,-0.375
1630411867625,0.90625,-0.265625,-0.359375
1630411867656,0.90625,-0.265625,-0.375
1630411867687,0.90625,-0.265625,-0.359375
1630411867718,0.90625,-0.265625,-0.359375
1630411867750,0.90625,-0.265625,-0.359375
1630411867781,0.890625,-0.265625,-0.359375
1630411867812,0.90625,-0.265625,-0.375
1630411867843,0.90625,-0.265625,-0.375
1630411867875,0.90625,-0.265625,-0.359375
1630411867906,0.90625,-0.265625,-0.375
1630411867937,0.90625,-0.265625,-0.359375
1630411867968,0.90625,-0.265625,-0.359375
1630411868000,0.90625,-0.265625,-0.375
1630411868031,0.90625,-0.265625,-0.359375
1630411868062,0.90625,-0.265625,-0.359375
1630411868093,0.90625,-0.265625,-0.359375
1630411868125,0.90625,-0.265625,-0.359375
1630411868156,0.90625,-0.265625,-0.359375
1630411868187,0.90625,-0.265625,-0.359375
1630411868218,0.90625,-0.25,-0.359375
1630411868250,0.90625,-0.265625,-0.359375
1630411868281,0.90625,-0.25,-0.359375
1630411868312,0.90625,-0.265625,-0.359375
1630411868343,0.90625,-0.265625,-0.359375
1630411868375,0.90625,-0.25,-0.359375
1630411868406,0.90625,-0.265625,-0.359375
1630411868437,0.90625,-0.265625,-0.359375
1630411868468,0.90625,-0.25,-0.359375
1630411868500,0.90625,-0.265625,-0.359375
1630411868531,0.90625,-0.265625,-0.359375
1630411868562,0.90625,-0.265625,-0.359375
1630411868593,0.90625,-0.265625,-0.359375
1630411868625,0.90625,-0.265625,-0.359375
1630411868656,0.90625,-0.265625,-0.359375
1630411868687,0.90625,-0.265625,-0.359375
1630411868718,0.90625,-0.265625,-0.375
1630411868750,0.90625,-0.25,-0.359375
1630411868781,0.90625,-0.25,-0.359375
1630411868812,0.90625,-0.25,-0.359375
1630411868843,0.90625,-0.25,-0.359375
1630411868875,0.90625,-0.25,-0.359375
1630411868906,0.90625,-0.25,-0.359375
1630411868937,0.90625,-0.25,-0.359375
1630411868968,0.90625,-0.25,-0.359375
1630411869000,0.90625,-0.25,-0.359375
1630411869031,0.90625,-0.25,-0.359375
1630411869062,0.90625,-0.25,-0.359375
1630411869093,0.90625,-0.25,-0.359375
1630411869125,0.90625,-0.25,-0.359375
1630411869156,0.90625,-0.25,-0.359375
1630411869187,0.90625,-0.25,-0.359375
1630411869218,0.90625,-0.25,-0.359375
1630411869250,0.90625,-0.25,-0.359375
1630411869281,0.90625,-0.25,-0.359375
1630411869312,0.90625,-0.25,-0.359375
1630411869343,0.90625,-0.25,-0.359375
1630411869375,0.90625,-0.25,-0.359375
1630411869406,0.90625,-0.25,-0.359375
1630411869437,0.90625,-0.25,-0.359375
1630411869468,0.90625,-0.25,-0.359375
1630411869500,0.90625,-0.25,-0.359375
1630411869531,0.90625,-0.25,-0.359375
1630411869562,0.90625,-0.25,-0.359375
1630411869593,0.90625,-0.25,-0.359375
1630411869625,0.90625,-0.25,-0.359375
1630411869656,0.90625,-0.25,-0.359375
1630411869687,0.90625,-0.25,-0.359375
1630411869718,0.90625,-0.25,-0.359375
1630411869750,0.90625,-0.25,-0.359375
1630411869781,0.90625,-0.25,-0.359375
1630411869812,0.90625,-0.25,-0.359375
1630411869843,0.90625,-0.25,-0.359375
1630411869875,0.90625,-0.25,-0.359375
1630411869906,0.90625,-0.25,-0.359375
1630411869937,0.90625,-0.25,-0.359375
1630411869968,0.90625,-0.25,-0.359375
1630411870000,0.90625,-0.25,-0.359375
1630411870031,0.90625,-0.25,-0.359375
1630411870062,0.90625,-0.25,-0.359375
1630411870093,0.90625,-0.25,-0.359375
1630411870125,0.90625,-0.25,-0.359375
1630411870156,0.90625,-0.25,-0.359375
1630411870187,0.90625,-0.25,-0.359375
1630411870218,0.90625,-0.25,-0.359375
1630411870250,0.90625,-0.25,-0.359375
1630411870281,0.90625,-0.25,-0.359375
1630411870312,0.90625,-0.25,-0.359375
1630411870343,0.90625,-0.25,-0.359375
1630411870375,0.90625,-0.25,-0.359375
1630411870406,0.90625,-0.25,-0.359375
1630411870437,0.90625,-0.25,-0.359375
1630411870468,0.90625,-0.25,-0.359375
1630411870500,0.90625,-0.25,-0.359375
1630411870531,0.90625,-0.25,-0.359375
1630411870562,0.90625,-0.25,-0.359375
1630411870593,0.90625,-0.25,-0.359375
1630411870625,0.90625,-0.25,-0.359375
1630411870656,0.90625,-0.25,-0.359375
1630411870687,0.90625,-0.25,-0.359375
1630411870718,0.90625,-0.25,-0.359375
1630411870750,0.90625,-0.25,-0.359375
1630411870781,0.90625,-0.25,-0.359375
1630411870812,0.90625,-0.25,-0.359375
1630411870843,0.90625,-0.25,-0.359375
1630411870875,0.90625,-0.25,-0.359375
1630411870906,0.90625,-0.25,-0.359375
1630411870937,0.90625,-0.25,-0.359375
1630411870968,0.90625,-0.25,-0.375
1630411871000,0.90625,-0.25,-0.359375
1630411871031,0.90625,-0.25,-0.359375
1630411871062,0.90625,-0.25,-0.359375
1630411871093,0.90625,-0.25,-0.359375
1630411871125,0.90625,-0.25,-0.359375
1630411871156,0.90625,-0.25,-0.359375
1630411871187,0.90625,-0.265625,-0.359375
1630411871218,0.90625,-0.25,-0.359375
1630411871250,0.90625,-0.25,-0.359375
1630411871281,0.90625,-0.25,-0.359375
1630411871312,0.90625,-0.25,-0.359375
1630411871343,0.90625,-0.25,-0.359375
1630411871375,0.90625,-0.25,-0.359375
1630411871406,0.90625,-0.25,-0.359375
1630411871437,0.90625,-0.25,-0.359375
1630411871468,0.90625,-0.25,-0.359375
1630411871500,0.90625,-0.25,-0.359375
1630411871531,0.90625,-0.25,-0.359375
1630411871562,0.90625,-0.25,-0.359375
1630411871593,0.90625,-0.265625,-0.359375
1630411871625,0.90625,-0.265625,-0.359375
1630411871656,0.90625,-0.265625,-0.359375
1630411871687,0.90625,-0.265625,-0.359375
1630411871718,0.90625,-0.25,-0.359375
1630411871750,0.90625,-0.265625,-0.359375
1630411871781,0.90625,-0.265625,-0.359375
1630411871812,0.90625,-0.265625,-0.375
1630411871843,0.90625,-0.265625,-0.375
1630411871875,0.90625,-0.265625,-0.359375
1630411871906,0.90625,-0.265625,-0.359375
1630411871937,0.90625,-0.265625,-0.375
1630411871968,0.90625,-0.265625,-0.359375
1630411872000,0.90625,-0.265625,-0.359375
1630411872031,0.90625,-0.265625,-0.359375
1630411872062,0.90625,-0.265625,-0.359375
1630411872093,0.90625,-0.265625,-0.359375
1630411872125,0.90625,-0.265625,-0.359375
1630411872156,0.90625,-0.265625,-0.359375
1630411872187,0.90625,-0.265625,-0.359375
1630411872218,0.90625,-0.265625,-0.375
1630411872250,0.90625,-0.265625,-0.359375
1630411872281,0.90625,-0.265625,-0.359375
1630411872312,0.90625,-0.265625,-0.375
1630411872343,0.90625,-0.265625,-0.359375
1630411872375,0.90625,-0.265625,-0.359375
1630411872406,0.90625,-0.265625,-0.359375
1630411872437,0.90625,-0.265625,-0.359375
1630411872468,0.90625,-0.265625,-0.359375
1630411872500,0.90625,-0.265625,-0.359375
1630411872531,0.90625,-0.265625,-0.359375
1630411872562,0.90625,-0.265625,-0.359375
1630411872593,0.90625,-0.265625,-0.359375
1630411872625,0.90625,-0.265625,-0.359375
1630411872656,0.90625,-0.265625,-0.359375
1630411872687,0.90625,-0.265625,-0.375
1630411872718,0.90625,-0.265625,-0.375
1630411872750,0.90625,-0.265625,-0.375
1630411872781,0.90625,-0.265625,-0.359375
1630411872812,0.90625,-0.265625,-0.359375
1630411872843,0.90625,-0.265625,-0.359375
1630411872875,0.90625,-0.265625,-0.359375
1630411872906,0.90625,-0.265625,-0.375
1630411872937,0.90625,-0.265625,-0.359375
1630411872968,0.90625,-0.265625,-0.375
1630411873000,0.90625,-0.265625,-0.359375
1630411873031,0.90625,-0.265625,-0.359375
1630411873062,0.90625,-0.265625,-0.375
1630411873093,0.90625,-0.265625,-0.359375
1630411873125,0.90625,-0.265625,-0.359375
1630411873156,0.90625,-0.265625,-0.359375
1630411873187,0.90625,-0.25,-0.359375
1630411873218,0.90625,-0.265625,-0.359375
1630411873250,0.90625,-0.265625,-0.359375
1630411873281,0.90625,-0.265625,-0.359375
1630411873312,0.90625,-0.265625,-0.359375
1630411873343,0.90625,-0.265625,-0.359375
1630411873375,0.90625,-0.265625,-0.359375
1630411873406,0.90625,-0.265625,-0.359375
1630411873437,0.90625,-0.25,-0.359375
1630411873468,0.90625,-0.265625,-0.359375
1630411873500,0.90625,-0.25,-0.359375
1630411873531,0.90625,-0.25,-0.359375
1630411873562,0.90625,-0.25,-0.359375
1630411873593,0.90625,-0.25,-0.359375
1630411873625,0.90625,-0.265625,-0.359375
1630411873656,0.90625,-0.265625,-0.359375
1630411873687,0.90625,-0.25,-0.359375
1630411873718,0.90625,-0.25,-0.359375
1630411873750,0.90625,-0.25,-0.359375
1630411873781,0.90625,-0.25,-0.359375
1630411873812,0.90625,-0.25,-0.359375
1630411873843,0.90625,-0.25,-0.359375
1630411873875,0.90625,-0.25,-0.359375
1630411873906,0.90625,-0.25,-0.359375
1630411873937,0.90625,-0.25,-0.359375
1630411873968,0.90625,-0.25,-0.359375
1630411874000,0.90625,-0.25,-0.359375
1630411874031,0.90625,-0.25,-0.359375
1630411874062,0.90625,-0.25,-0.359375
1630411874093,0.90625,-0.25,-0.359375
1630411874125,0.90625,-0.25,-0.359375
1630411874156,0.90625,-0.25,-0.359375
1630411874187,0.90625,-0.25,-0.359375
1630411874218,0.90625,-0.25,-0.359375
1630411874250,0.90625,-0.25,-0.359375
1630411874281,0.90625,-0.25,-0.359375
1630411874312,0.90625,-0.25,-0.359375
1630411874343,0.90625,-0.25,-0.359375
1630411874375,0.90625,-0.25,-0.359375
1630411874406,0.90625,-0.25,-0.359375
1630411874437,0.90625,-0.25,-0.359375
1630411874468,0.90625,-0.25,-0.359375
1630411874500,0.90625,-0.25,-0.359375
1630411874531,0.90625,-0.25,-0.359375
1630411874562,0.90625,-0.25,-0.359375
1630411874593,0.90625,-0.25,-0.359375
1630411874625,0.90625,-0.25,-0.359375
1630411874656,0.90625,-0.25,-0.359375
1630411874687,0.90625,-0.25,-0.359375
1630411874718,0.90625,-0.25,-0.359375
1630411874750,0.90625,-0.25,-0.359375
1630411874781,0.90625,-0.25,-0.359375
1630411874812,0.90625,-0.25,-0.359375
1630411874843,0.90625,-0.25,-0.359375
1630411874875,0.90625,-0.25,-0.359375
1630411874906,0.90625,-0.25,-0.359375
1630411874937,0.90625,-0.25,-0.359375
1630411874968,0.90625,-0.25,-0.359375
1630411875000,0.90625,-0.25,-0.359375
1630411875031,0.90625,-0.25,-0.359375
1630411875062,0.90625,-0.25,-0.359375
1630411875093,0.90625,-0.25,-0.359375
1630411875125,0.90625,-0.25,-0.359375
1630411875156,0.90625,-0.25,-0.359375
1630411875187,0.90625,-0.25,-0.359375
1630411875218,0.90625,-0.25,-0.359375
1630411875250,0.90625,-0.25,-0.359375
1630411875281,0.90625,-0.25,-0.359375
1630411875312,0.90625,-0.25,-0.359375
1630411875343,0.90625,-0.25,-0.359375
1630411875375,0.90625,-0.25,-0.359375
1630411875406,0.90625,-0.25,-0.359375
1630411875437,0.90625,-0.25,-0.359375
1630411875468,0.90625,-0.25,-0.359375
1630411875500,0.90625,-0.25,-0.359375
1630411875531,0.90625,-0.25,-0.359375
1630411875562,0.90625,-0.25,-0.359375
1630411875593,0.90625,-0.25,-0.359375
1630411875625,0.90625,-0.25,-0.359375
1630411875656,0.90625,-0.25,-0.359375
1630411875687,0.90625,-0.25,-0.359375
1630411875718,0.90625,-0.25,-0.359375
1630411875750,0.90625,-0.25,-0.359375
1630411875781,0.90625,-0.25,-0.359375
1630411875812,0.90625,-0.25,-0.359375
1630411875843,0.90625,-0.25,-0.359375
1630411875875,0.90625,-0.25,-0.359375
1630411875906,0.90625,-0.25,-0.359375
1630411875937,0.90625,-0.25,-0.359375
1630411875968,0.90625,-0.25,-0.359375
1630411876000,0.90625,-0.25,-0.359375
1630411876031,0.90625,-0.25,-0.359375
1630411876062,0.90625,-0.25,-0.359375
1630411876093,0.90625,-0.25,-0.359375
1630411876125,0.90625,-0.25,-0.359375
1630411876156,0.90625,-0.25,-0.359375
1630411876187,0.90625,-0.25,-0.359375
1630411876218,0.90625,-0.25,-0.359375
1630411876250,0.90625,-0.25,-0.359375
1630411876281,0.90625,-0.25,-0.359375
1630411876312,0.90625,-0.25,-0.359375
1630411876343,0.90625,-0.25,-0.359375
1630411876375,0.90625,-0.25,-0.359375
1630411876406,0.90625,-0.25,-0.359375
1630411876437,0.90625,-0.25,-0.359375
1630411876468,0.90625,-0.25,-0.359375
1630411876500,0.90625,-0.25,-0.359375
1630411876531,0.90625,-0.25,-0.359375
1630411876562,0.90625,-0.25,-0.359375
1630411876593,0.90625,-0.25,-0.359375
1630411876625,0.90625,-0.25,-0.359375
1630411876656,0.90625,-0.25,-0.359375
1630411876687,0.90625,-0.25,-0.359375
1630411876718,0.90625,-0.25,-0.359375
1630411876750,0.90625,-0.25,-0.359375
1630411876781,0.90625,-0.265625,-0.359375
1630411876812,0.90625,-0.25,-0.359375
1630411876843,0.90625,-0.265625,-0.359375
1630411876875,0.90625,-0.25,-0.359375
1630411876906,0.90625,-0.25,-0.359375
1630411876937,0.90625,-0.265625,-0.359375
1630411876968,0.90625,-0.25,-0.359375
1630411877000,0.90625,-0.265625,-0.359375
1630411877031,0.90625,-0.25,-0.359375
1630411877062,0.90625,-0.265625,-0.359375
1630411877093,0.90625,-0.25,-0.359375
1630411877125,0.90625,-0.265625,-0.359375
1630411877156,0.90625,-0.265625,-0.359375
1630411877187,0.90625,-0.265625,-0.375
1630411877218,0.90625,-0.265625,-0.359375
1630411877250,0.90625,-0.265625,-0.359375
1630411877281,0.90625,-0.265625,-0.359375
1630411877312,0.90625,-0.265625,-0.359375
1630411877343,0.90625,-0.265625,-0.359375
1630411877375,0.90625,-0.265625,-0.359375
1630411877406,0.90625,-0.265625,-0.359375
1630411877437,0.90625,-0.265625,-0.359375
1630411877468,0.90625,-0.265625,-0.375
1630411877500,0.90625,-0.265625,-0.359375
1630411877531,0.90625,-0.265625,-0.359375
1630411877562,0.90625,-0.265625,-0.375
1630411877593,0.890625,-0.265625,-0.359375
1630411877625,0.90625,-0.265625,-0.359375
1630411877656,0.90625,-0.265625,-0.359375
1630411877687,0.90625,-0.265625,-0.359375
1630411877718,0.90625,-0.265625,-0.359375
1630411877750,0.90625,-0.265625,-0.359375
1630411877781,0.90625,-0.265625,-0.359375
1630411877812,0.90625,-0.265625,-0.359375
1630411877843,0.90625,-0.265625,-0.359375
1630411877875,0.90625,-0.265625,-0.359375
1630411877906,0.890625,-0.265625,-0.359375
1630411877937,0.90625,-0.265625,-0.359375
1630411877968,0.90625,-0.265625,-0.359375
1630411878000,0.90625,-0.265625,-0.359375
1630411878031,0.90625,-0.265625,-0.359375
1630411878062,0.90625,-0.265625,-0.359375
1630411878093,0.90625,-0.265625,-0.375
1630411878125,0.90625,-0.265625,-0.359375
1630411878156,0.90625,-0.265625,-0.375
1630411878187,0.90625,-0.265625,-0.359375
1630411878218,0.90625,-0.265625,-0.375
1630411878250,0.90625,-0.265625,-0.359375
1630411878281,0.90625,-0.265625,-0.359375
1630411878312,0.90625,-0.265625,-0.359375
1630411878343,0.90625,-0.265625,-0.359375
1630411878375,0.90625,-0.265625,-0.359375
1630411878406,0.90625,-0.265625,-0.359375
1630411878437,0.90625,-0.265625,-0.359375
1630411878468,0.90625,-0.265625,-0.375
1630411878500,0.90625,-0.265625,-0.359375
1630411878531,0.90625,-0.265625,-0.359375
1630411878562,0.90625,-0.265625,-0.359375
1630411878593,0.90625,-0.265625,-0.359375
1630411878625,0.90625,-0.265625,-0.359375
1630411878656,0.90625,-0.265625,-0.359375
1630411878687,0.90625,-0.265625,-0.359375
1630411878718,0.90625,-0.265625,-0.359375
1630411878750,0.90625,-0.265625,-0.375
1630411878781,0.90625,-0.265625,-0.375
1630411878812,0.90625,-0.265625,-0.359375
1630411878843,0.90625,-0.265625,-0.359375
1630411878875,0.90625,-0.265625,-0.359375
1630411878906,0.90625,-0.265625,-0.359375
1630411878937,0.90625,-0.265625,-0.375
1630411878968,0.90625,-0.265625,-0.359375
1630411879000,0.90625,-0.265625,-0.359375
1630411879031,0.90625,-0.265625,-0.359375
1630411879062,0.90625,-0.265625,-0.359375
1630411879093,0.90625,-0.265625,-0.359375
1630411879125,0.90625,-0.265625,-0.359375
1630411879156,0.90625,-0.265625,-0.359375
1630411879187,0.90625,-0.265625,-0.359375
1630411879218,0.90625,-0.265625,-0.359375
1630411879250,0.90625,-0.265625,-0.359375
1630411879281,0.90625,-0.265625,-0.359375
1630411879312,0.90625,-0.265625,-0.359375
1630411879343,0.90625,-0.265625,-0.359375
1630411879375,0.90625,-0.265625,-0.359375
1630411879406,0.90625,-0.265625,-0.359375
1630411879437,0.90625,-0.25,-0.359375
1630411879468,0.90625,-0.265625,-0.359375
1630411879500,0.90625,-0.265625,-0.359375
1630411879531,0.90625,-0.265625,-0.359375
1630411879562,0.90625,-0.265625,-0.359375
1630411879593,0.90625,-0.25,-0.359375
1630411879625,0.90625,-0.265625,-0.359375
1630411879656,0.90625,-0.25,-0.359375
1630411879687,0.90625,-0.265625,-0.359375
1630411879718,0.90625,-0.265625,-0.359375
1630411879750,0.90625,-0.25,-0.359375
1630411879781,0.90625,-0.25,-0.359375
1630411879812,0.90625,-0.265625,-0.359375
1630411879843,0.90625,-0.25,-0.359375
1630411879875,0.90625,-0.265625,-0.359375
1630411879906,0.90625,-0.265625,-0.359375
1630411879937,0.90625,-0.265625,-0.359375
1630411879968,0.90625,-0.25,-0.375
1630411880000,0.90625,-0.265625,-0.359375
1630411880031,0.90625,-0.25,-0.359375
1630411880062,0.90625,-0.25,-0.359375
1630411880093,0.90625,-0.25,-0.359375
1630411880125,0.90625,-0.25,-0.359375
1630411880156,0.90625,-0.25,-0.359375
1630411880187,0.90625,-0.25,-0.359375
1630411880218,0.90625,-0.25,-0.359375
1630411880250,0.90625,-0.265625,-0.359375
1630411880281,0.90625,-0.25,-0.359375
1630411880312,0.90625,-0.25,-0.359375
1630411880343,0.90625,-0.25,-0.359375
1630411880375,0.90625,-0.25,-0.359375
1630411880406,0.90625,-0.25,-0.359375
1630411880437,0.90625,-0.25,-0.359375
1630411880468,0.90625,-0.25,-0.359375
1630411880500,0.90625,-0.25,-0.359375
1630411880531,0.90625,-0.25,-0.359375
1630411880562,0.90625,-0.25,-0.359375
1630411880593,0.90625,-0.25,-0.359375
1630411880625,0.90625,-0.265625,-0.359375
1630411880656,0.90625,-0.25,-0.359375
1630411880687,0.90625,-0.25,-0.359375
1630411880718,0.90625,-0.25,-0.359375
1630411880750,0.90625,-0.25,-0.359375
1630411880781,0.90625,-0.25,-0.359375
1630411880812,0.90625,-0.25,-0.359375
1630411880843,0.90625,-0.25,-0.359375
1630411880875,0.90625,-0.25,-0.359375
1630411880906,0.90625,-0.25,-0.359375
1630411880937,0.90625,-0.25,-0.359375
1630411880968,0.90625,-0.25,-0.359375
1630411881000,0.90625,-0.25,-0.359375
1630411881031,0.90625,-0.25,-0.359375
1630411881062,0.90625,-0.25,-0.359375
1630411881093,0.90625,-0.25,-0.359375
1630411881125,0.90625,-0.25,-0.359375
1630411881156,0.90625,-0.25,-0.359375
1630411881187,0.90625,-0.25,-0.359375
1630411881218,0.90625,-0.25,-0.359375
1630411881250,0.90625,-0.25,-0.359375
1630411881281,0.90625,-0.25,-0.359375
1630411881312,0.90625,-0.25,-0.359375
1630411881343,0.90625,-0.25,-0.359375
1630411881375,0.90625,-0.25,-0.359375
1630411881406,0.90625,-0.25,-0.359375
1630411881437,0.90625,-0.25,-0.359375
1630411881468,0.90625,-0.25,-0.359375
1630411881500,0.90625,-0.25,-0.359375
1630411881531,0.90625,-0.25,-0.359375
1630411881562,0.90625,-0.25,-0.359375
1630411881593,0.90625,-0.25,-0.359375
1630411881625,0.90625,-0.25,-0.359375
1630411881656,0.90625,-0.25,-0.359375
1630411881687,0.90625,-0.25,-0.359375
1630411881718,0.90625,-0.25,-0.359375
1630411881750,0.90625,-0.25,-0.359375
1630411881781,0.90625,-0.25,-0.359375
1630411881812,0.90625,-0.25,-0.359375
1630411881843,0.90625,-0.25,-0.359375
1630411881875,0.90625,-0.25,-0.359375
1630411881906,0.90625,-0.25,-0.359375
1630411881937,0.90625,-0.25,-0.359375
1630411881968,0.90625,-0.25,-0.359375
1630411882000,0.90625,-0.25,-0.359375
1630411882031,0.90625,-0.25,-0.359375
1630411882062,0.90625,-0.25,-0.359375
1630411882093,0.90625,-0.25,-0.359375
1630411882125,0.90625,-0.25,-0.359375
1630411882156,0.90625,-0.25,-0.359375
1630411882187,0.90625,-0.25,-0.359375
1630411882218,0.90625,-0.25,-0.359375
1630411882250,0.90625,-0.25,-0.359375
1630411882281,0.90625,-0.25,-0.359375
1630411882312,0.90625,-0.25,-0.359375
1630411882343,0.90625,-0.25,-0.359375
1630411882375,0.90625,-0.25,-0.359375
1630411882406,0.90625,-0.25,-0.359375
1630411882437,0.90625,-0.25,-0.359375
1630411882468,0.90625,-0.25,-0.359375
1630411882500,0.90625,-0.25,-0.359375
1630411882531,0.90625,-0.25,-0.359375
1630411882562,0.90625,-0.25,-0.359375
1630411882593,0.90625,-0.25,-0.359375
1630411882625,0.90625,-0.25,-0.359375
1630411882656,0.90625,-0.25,-0.359375
1630411882687,0.90625,-0.265625,-0.359375
1630411882718,0.90625,-0.25,-0.359375
1630411882750,0.90625,-0.265625,-0.359375
1630411882781,0.90625,-0.25,-0.359375
1630411882812,0.90625,-0.25,-0.359375
1630411882843,0.90625,-0.265625,-0.375
1630411882875,0.90625,-0.265625,-0.359375
1630411882906,0.90625,-0.265625,-0.359375
1630411882937,0.90625,-0.265625,-0.359375
1630411882968,0.90625,-0.265625,-0.359375
1630411883000,0.90625,-0.25,-0.359375
1630411883031,0.90625,-0.265625,-0.359375
1630411883062,0.90625,-0.265625,-0.359375
1630411883093,0.90625,-0.265625,-0.359375
1630411883125,0.90625,-0.265625,-0.359375
1630411883156,0.90625,-0.265625,-0.359375
1630411883187,0.90625,-0.265625,-0.359375
1630411883218,0.90625,-0.265625,-0.359375
1630411883250,0.90625,-0.265625,-0.359375
1630411883281,0.90625,-0.265625,-0.359375
1630411883312,0.90625,-0.265625,-0.359375
1630411883343,0.90625,-0.265625,-0.359375
1630411883375,0.90625,-0.265625,-0.359375
1630411883406,0.90625,-0.265625,-0.359375
1630411883437,0.90625,-0.265625,-0.359375
1630411883468,0.90625,-0.265625,-0.375
1630411883500,0.90625,-0.265625,-0.359375
1630411883531,0.90625,-0.265625,-0.359375
1630411883562,0.90625,-0.265625,-0.375
1630411883593,0.90625,-0.25,-0.375
1630411883625,0.90625,-0.265625,-0.359375
1630411883656,0.90625,-0.265625,-0.375
1630411883687,0.90625,-0.265625,-0.359375
1630411883718,0.90625,-0.265625,-0.359375
1630411883750,0.90625,-0.265625,-0.359375
1630411883781,0.90625,-0.265625,-0.359375
1630411883812,0.90625,-0.265625,-0.359375
1630411883843,0.90625,-0.265625,-0.359375
1630411883875,0.90625,-0.25,-0.359375
1630411883906,0.90625,-0.25,-0.359375
1630411883937,0.90625,-0.25,-0.359375
1630411883968,0.90625,-0.25,-0.359375
1630411884000,0.90625,-0.25,-0.359375
1630411884031,0.90625,-0.265625,-0.359375
1630411884062,0.90625,-0.265625,-0.359375
1630411884093,0.90625,-0.265625,-0.359375
1630411884125,0.90625,-0.265625,-0.359375
1630411884156,0.90625,-0.265625,-0.359375
1630411884187,0.90625,-0.265625,-0.359375
1630411884218,0.90625,-0.25,-0.359375
1630411884250,0.90625,-0.25,-0.359375
1630411884281,0.90625,-0.25,-0.359375
1630411884312,0.90625,-0.25,-0.359375
1630411884343,0.90625,-0.265625,-0.359375
1630411884375,0.90625,-0.25,-0.359375
1630411884406,0.90625,-0.265625,-0.359375
1630411884437,0.90625,-0.25,-0.359375
1630411884468,0.90625,-0.25,-0.359375
1630411884500,0.90625,-0.25,-0.359375
1630411884531,0.90625,-0.25,-0.359375
1630411884562,0.90625,-0.25,-0.359375
1630411884593,0.90625,-0.25,-0.359375
1630411884625,0.90625,-0.25,-0.359375
1630411884656,0.90625,-0.25,-0.359375
1630411884687,0.90625,-0.25,-0.359375
1630411884718,0.90625,-0.25,-0.359375
1630411884750,0.90625,-0.25,-0.359375
1630411884781,0.90625,-0.25,-0.359375
1630411884812,0.90625,-0.25,-0.359375
1630411884843,0.90625,-0.25,-0.359375
1630411884875,0.90625,-0.25,-0.359375
1630411884906,0.90625,-0.25,-0.359375
1630411884937,0.90625,-0.25,-0.359375
1630411884968,0.90625,-0.25,-0.359375
1630411885000,0.90625,-0.25,-0.359375
1630411885031,0.90625,-0.25,-0.359375
1630411885062,0.90625,-0.25,-0.359375
1630411885093,0.90625,-0.25,-0.359375
1630411885125,0.90625,-0.25,-0.359375
1630411885156,0.90625,-0.25,-0.359375
1630411885187,0.90625,-0.25,-0.359375
1630411885218,0.90625,-0.25,-0.359375
1630411885250,0.90625,-0.25,-0.359375
1630411885281,0.90625,-0.25,-0.359375
1630411885312,0.90625,-0.25,-0.359375
1630411885343,0.90625,-0.25,-0.359375
1630411885375,0.90625,-0.25,-0.359375
1630411885406,0.90625,-0.25,-0.359375
1630411885437,0.90625,-0.25,-0.359375
1630411885468,0.90625,-0.25,-0.359375
1630411885500,0.90625,-0.25,-0.359375
1630411885531,0.90625,-0.25,-0.359375
1630411885562,0.90625,-0.25,-0.359375
1630411885593,0.90625,-0.25,-0.359375
1630411885625,0.90625,-0.25,-0.359375
1630411885656,0.90625,-0.25,-0.359375
1630411885687,0.90625,-0.25,-0.359375
1630411885718,0.90625,-0.25,-0.359375
1630411885750,0.90625,-0.25,-0.359375
1630411885781,0.90625,-0.25,-0.359375
1630411885812,0.90625,-0.25,-0.359375
1630411885843,0.90625,-0.25,-0.359375
1630411885875,0.90625,-0.25,-0.359375
1630411885906,0.90625,-0.25,-0.359375
1630411885937,0.90625,-0.25,-0.359375
1630411885968,0.90625,-0.25,-0.359375
1630411886000,0.90625,-0.25,-0.359375
1630411886031,0.90625,-0.25,-0.359375
1630411886062,0.90625,-0.25,-0.359375
1630411886093,0.90625,-0.25,-0.359375
1630411886125,0.90625,-0.25,-0.359375
1630411886156,0.90625,-0.25,-0.359375
1630411886187,0.90625,-0.25,-0.359375
1630411886218,0.90625,-0.25,-0.375
1630411886250,0.90625,-0.25,-0.359375
1630411886281,0.90625,-0.25,-0.359375
1630411886312,0.90625,-0.25,-0.359375
1630411886343,0.90625,-0.25,-0.359375
1630411886375,0.90625,-0.25,-0.359375
1630411886406,0.90625,-0.25,-0.359375
1630411886437,0.90625,-0.25,-0.359375
1630411886468,0.90625,-0.25,-0.359375
1630411886500,0.90625,-0.25,-0.359375
1630411886531,0.90625,-0.25,-0.359375
1630411886562,0.90625,-0.25,-0.359375
1630411886593,0.90625,-0.25,-0.359375
1630411886625,0.90625,-0.25,-0.359375
1630411886656,0.90625,-0.25,-0.359375
1630411886687,0.90625,-0.25,-0.359375
1630411886718,0.90625,-0.25,-0.359375
1630411886750,0.90625,-0.25,-0.359375
1630411886781,0.90625,-0.25,-0.359375
1630411886812,0.90625,-0.25,-0.359375
1630411886843,0.90625,-0.25,-0.359375
1630411886875,0.90625,-0.25,-0.359375
1630411886906,0.90625,-0.25,-0.359375
1630411886937,0.90625,-0.25,-0.359375
1630411886968,0.90625,-0.25,-0.359375
1630411887000,0.90625,-0.25,-0.359375
1630411887031,0.90625,-0.25,-0.359375
1630411887062,0.90625,-0.25,-0.359375
1630411887093,0.90625,-0.25,-0.359375
1630411887125,0.90625,-0.25,-0.359375
1630411887156,0.90625,-0.25,-0.359375
1630411887187,0.90625,-0.25,-0.359375
1630411887218,0.90625,-0.25,-0.359375
1630411887250,0.90625,-0.25,-0.359375
1630411887281,0.90625,-0.25,-0.359375
1630411887312,0.90625,-0.25,-0.359375
1630411887343,0.90625,-0.25,-0.359375
1630411887375,0.90625,-0.25,-0.359375
1630411887406,0.90625,-0.25,-0.359375
1630411887437,0.90625,-0.25,-0.359375
1630411887468,0.90625,-0.25,-0.359375
1630411887500,0.90625,-0.25,-0.359375
1630411887531,0.90625,-0.25,-0.359375
1630411887562,0.90625,-0.25,-0.359375
1630411887593,0.90625,-0.25,-0.359375
1630411887625,0.90625,-0.25,-0.359375
1630411887656,0.90625,-0.25,-0.359375
1630411887687,0.90625,-0.25,-0.359375
1630411887718,0.90625,-0.25,-0.359375
1630411887750,0.90625,-0.25,-0.359375
1630411887781,0.90625,-0.25,-0.359375
1630411887812,0.90625,-0.25,-0.359375
1630411887843,0.90625,-0.25,-0.359375
1630411887875,0.90625,-0.25,-0.359375
1630411887906,0.90625,-0.25,-0.375
1630411887937,0.90625,-0.265625,-0.359375
1630411887968,0.90625,-0.265625,-0.359375
1630411888000,0.90625,-0.265625,-0.359375
1630411888031,0.90625,-0.265625,-0.359375
1630411888062,0.90625,-0.265625,-0.359375
1630411888093,0.90625,-0.265625,-0.359375
1630411888125,0.90625,-0.265625,-0.359375
1630411888156,0.90625,-0.265625,-0.359375
1630411888187,0.90625,-0.265625,-0.359375
1630411888218,0.90625,-0.265625,-0.359375
1630411888250,0.90625,-0.265625,-0.359375
1630411888281,0.90625,-0.265625,-0.359375
1630411888312,0.90625,-0.265625,-0.359375
1630411888343,0.90625,-0.265625,-0.359375
1630411888375,0.90625,-0.265625,-0.359375
1630411888406,0.90625,-0.25,-0.359375
1630411888437,0.90625,-0.265625,-0.359375
1630411888468,0.90625,-0.265625,-0.359375
1630411888500,0.90625,-0.265625,-0.359375
1630411888531,0.90625,-0.265625,-0.359375
1630411888562,0.90625,-0.265625,-0.359375
1630411888593,0.90625,-0.265625,-0.359375
1630411888625,0.90625,-0.265625,-0.359375
1630411888656,0.90625,-0.265625,-0.359375
1630411888687,0.90625,-0.25,-0.359375
1630411888718,0.90625,-0.265625,-0.359375
1630411888750,0.90625,-0.265625,-0.359375
1630411888781,0.90625,-0.265625,-0.359375
1630411888812,0.90625,-0.265625,-0.359375
1630411888843,0.90625,-0.25,-0.359375
1630411888875,0.90625,-0.265625,-0.375
1630411888906,0.90625,-0.265625,-0.359375
1630411888937,0.90625,-0.25,-0.359375
1630411888968,0.90625,-0.25,-0.359375
1630411889000,0.90625,-0.265625,-0.375
1630411889031,0.90625,-0.265625,-0.359375
1630411889062,0.90625,-0.265625,-0.359375
1630411889093,0.90625,-0.265625,-0.359375
1630411889125,0.90625,-0.265625,-0.359375
1630411889156,0.90625,-0.265625,-0.359375
1630411889187,0.90625,-0.25,-0.359375
1630411889218,0.90625,-0.25,-0.359375
1630411889250,0.90625,-0.25,-0.359375
1630411889281,0.90625,-0.25,-0.359375
1630411889312,0.90625,-0.265625,-0.359375
1630411889343,0.90625,-0.265625,-0.359375
1630411889375,0.90625,-0.265625,-0.359375
1630411889406,0.90625,-0.25,-0.359375
1630411889437,0.90625,-0.265625,-0.359375
1630411889468,0.90625,-0.265625,-0.359375
1630411889500,0.90625,-0.265625,-0.359375
1630411889531,0.90625,-0.25,-0.359375
1630411889562,0.90625,-0.25,-0.375
1630411889593,0.90625,-0.25,-0.359375
1630411889625,0.90625,-0.265625,-0.359375
1630411889656,0.90625,-0.25,-0.359375
1630411889687,0.90625,-0.25,-0.359375
1630411889718,0.90625,-0.265625,-0.359375
1630411889750,0.90625,-0.25,-0.359375
1630411889781,0.90625,-0.25,-0.359375
1630411889812,0.90625,-0.25,-0.359375
1630411889843,0.90625,-0.25,-0.359375
1630411889875,0.90625,-0.25,-0.359375
1630411889906,0.90625,-0.25,-0.359375
1630411889937,0.90625,-0.25,-0.359375
1630411889968,0.90625,-0.25,-0.359375
1630411890000,0.90625,-0.25,-0.359375
1630411890031,0.90625,-0.25,-0.359375
1630411890062,0.90625,-0.25,-0.359375
1630411890093,0.90625,-0.25,-0.359375
1630411890125,0.90625,-0.25,-0.359375
1630411890156,0.90625,-0.25,-0.359375
1630411890187,0.90625,-0.25,-0.359375
1630411890218,0.90625,-0.25,-0.359375
1630411890250,0.90625,-0.25,-0.375
1630411890281,0.90625,-0.25,-0.359375
