timestamp,ax,ay,az
1629456577000,1.34375,0.921875,-0.03125
1629456577031,1.40625,0.921875,0.0
1629456577062,1.140625,0.609375,0.0625
1629456577093,0.890625,0.546875,0.0625
1629456577125,0.75,0.234375,-0.0625
1629456577156,0.921875,0.203125,0.09375
1629456577187,0.734375,0.03125,0.125
1629456577218,0.84375,-0.03125,0.015625
1629456577250,0.984375,-0.046875,-0.015625
1629456577281,0.953125,-0.078125,-0.015625
1629456577312,0.71875,-0.203125,0.078125
1629456577343,0.734375,-0.234375,0.078125
1629456577375,0.828125,-0.34375,0.21875
1629456577406,0.828125,-0.390625,0.296875
1629456577437,0.84375,-0.4375,0.359375
1629456577468,0.796875,-0.546875,0.4375
1629456577500,0.671875,-0.546875,0.421875
1629456577531,0.875,-0.625,0.421875
1629456577562,0.875,-0.640625,0.4375
1629456577593,0.734375,-0.5,0.46875
1629456577625,0.34375,-0.40625,0.765625
1629456577656,0.1875,-0.453125,0.796875
1629456577687,0.390625,-0.484375,0.78125
1629456577718,0.4375,-0.640625,0.546875
1629456577750,0.34375,-0.625,0.40625
1629456577781,0.34375,-0.671875,0.28125
1629456577812,0.421875,-0.65625,0.3125
1629456577843,0.515625,-0.65625,0.421875
1629456577875,0.65625,-0.734375,0.328125
1629456577906,0.703125,-0.71875,0.296875
1629456577937,0.890625,-0.65625,0.4375
1629456577968,0.875,-0.65625,0.5
1629456578000,0.65625,-0.625,0.515625
1629456578031,0.609375,-0.59375,0.46875
1629456578062,0.609375,-0.59375,0.484375
1629456578093,0.53125,-0.640625,0.484375
1629456578125,0.546875,-0.640625,0.5
1629456578156,0.609375,-0.671875,0.5
1629456578187,0.625,-0.65625,0.5
1629456578218,0.609375,-0.65625,0.515625
1629456578250,0.59375,-0.640625,0.5625
1629456578281,0.59375,-0.65625,0.546875
1629456578312,0.640625,-0.671875,0.453125
1629456578343,0.609375,-0.640625,0.40625
1629456578375,0.625,-0.625,0.40625
1629456578406,0.59375,-0.609375,0.5
1629456578437,0.5625,-0.625,0.484375
1629456578468,0.578125,-0.625,0.453125
1629456578500,0.59375,-0.625,0.46875
1629456578531,0.578125,-0.65625,0.515625
1629456578562,0.625,-0.671875,0.53125
1629456578593,0.640625,-0.671875,0.484375
1629456578625,0.625,-0.65625,0.46875
1629456578656,0.625,-0.640625,0.453125
1629456578687,0.59375,-0.59375,0.4375
1629456578718,0.625,-0.59375,0.421875
1629456578750,0.640625,-0.625,0.421875
1629456578781,0.65625,-0.640625,0.4375
1629456578812,0.71875,-0.671875,0.453125
1629456578843,0.703125,-0.6875,0.453125
1629456578875,0.6875,-0.6875,0.4375
1629456578906,0.640625,-0.703125,0.46875
1629456578937,0.640625,-0.671875,0.53125
1629456578968,0.625,-0.78125,0.546875
1629456579000,0.65625,-0.84375,0.546875
1629456579031,0.65625,-0.765625,0.578125
1629456579062,0.484375,-0.65625,0.53125
1629456579093,0.40625,-0.625,0.5
1629456579125,0.4375,-0.6875,0.484375
1629456579156,0.46875,-0.625,0.515625
1629456579187,0.4375,-0.578125,0.5
1629456579218,0.328125,-0.421875,0.4375
1629456579250,0.234375,-0.40625,0.375
1629456579281,0.4375,-0.546875,0.546875
1629456579312,0.5625,-1.390625,0.796875
1629456579343,0.5,-1.015625,0.78125
1629456579375,0.34375,-0.640625,0.484375
1629456579406,0.328125,-0.65625,0.4375
1629456579437,0.40625,-0.828125,0.609375
1629456579468,0.421875,-0.765625,0.4375
1629456579500,0.421875,-0.734375,0.4375
1629456579531,0.46875,-0.734375,0.609375
1629456579562,0.484375,-0.75,0.578125
1629456579593,0.40625,-0.703125,0.515625
1629456579625,0.40625,-0.75,0.546875
1629456579656,0.40625,-0.765625,0.5625
1629456579687,0.421875,-0.765625,0.46875
1629456579718,0.453125,-0.75,0.46875
1629456579750,0.4375,-0.734375,0.5
1629456579781,0.421875,-0.734375,0.578125
1629456579812,0.40625,-0.734375,0.578125
1629456579843,0.4375,-0.71875,0.546875
1629456579875,0.46875,-0.75,0.546875
1629456579906,0.46875,-0.75,0.546875
1629456579937,0.453125,-0.734375,0.515625
1629456579968,0.453125,-0.734375,0.515625
1629456580000,0.46875,-0.75,0.53125
1629456580031,0.4375,-0.71875,0.515625
1629456580062,0.4375,-0.734375,0.515625
1629456580093,0.4375,-0.734375,0.515625
1629456580125,0.453125,-0.734375,0.5
1629456580156,0.453125,-0.734375,0.5
1629456580187,0.46875,-0.75,0.5
1629456580218,0.453125,-0.734375,0.484375
1629456580250,0.46875,-0.734375,0.5
1629456580281,0.46875,-0.75,0.515625
1629456580312,0.453125,-0.734375,0.5
1629456580343,0.484375,-0.734375,0.5
1629456580375,0.5,-0.734375,0.5
1629456580406,0.484375,-0.734375,0.484375
1629456580437,0.484375,-0.734375,0.484375
1629456580468,0.5,-0.734375,0.484375
1629456580500,0.5,-0.734375,0.484375
1629456580531,0.5,-0.734375,0.484375
1629456580562,0.5,-0.734375,0.5
1629456580593,0.5,-0.71875,0.5
1629456580625,0.484375,-0.71875,0.5
1629456580656,0.484375,-0.734375,0.484375
1629456580687,0.5,-0.71875,0.484375
1629456580718,0.515625,-0.734375,0.46875
1629456580750,0.515625,-0.734375,0.484375
1629456580781,0.515625,-0.734375,0.46875
1629456580812,0.515625,-0.734375,0.46875
1629456580843,0.53125,-0.734375,0.484375
1629456580875,0.515625,-0.734375,0.484375
1629456580906,0.5,-0.734375,0.484375
1629456580937,0.5,-0.734375,0.46875
1629456580968,0.5,-0.734375,0.484375
1629456581000,0.5,-0.734375,0.484375
1629456581031,0.5,-0.734375,0.484375
1629456581062,0.515625,-0.734375,0.484375
1629456581093,0.5,-0.734375,0.46875
1629456581125,0.515625,-0.734375,0.46875
1629456581156,0.5,-0.734375,0.46875
1629456581187,0.5,-0.734375,0.484375
1629456581218,0.515625,-0.734375,0.46875
1629456581250,0.515625,-0.734375,0.46875
1629456581281,0.515625,-0.734375,0.46875
1629456581312,0.5,-0.734375,0.46875
1629456581343,0.5,-0.734375,0.46875
1629456581375,0.515625,-0.734375,0.46875
1629456581406,0.515625,-0.734375,0.46875
1629456581437,0.515625,-0.734375,0.46875
1629456581468,0.515625,-0.734375,0.484375
1629456581500,0.5,-0.734375,0.484375
1629456581531,0.515625,-0.734375,0.46875
1629456581562,0.515625,-0.734375,0.484375
1629456581593,0.515625,-0.734375,0.46875
1629456581625,0.5,-0.734375,0.46875
1629456581656,0.515625,-0.734375,0.46875
1629456581687,0.515625,-0.734375,0.484375
1629456581718,0.5,-0.734375,0.484375
1629456581750,0.515625,-0.734375,0.484375
1629456581781,0.515625,-0.734375,0.484375
1629456581812,0.515625,-0.734375,0.484375
1629456581843,0.5,-0.734375,0.484375
1629456581875,0.515625,-0.734375,0.484375
1629456581906,0.515625,-0.734375,0.484375
1629456581937,0.515625,-0.734375,0.46875
1629456581968,0.5,-0.734375,0.484375
1629456582000,0.5,-0.734375,0.484375
1629456582031,0.5,-0.734375,0.484375
1629456582062,0.484375,-0.734375,0.484375
1629456582093,0.484375,-0.734375,0.484375
1629456582125,0.484375,-0.734375,0.484375
1629456582156,0.5,-0.734375,0.484375
1629456582187,0.5,-0.734375,0.484375
1629456582218,0.5,-0.734375,0.484375
1629456582250,0.5,-0.734375,0.484375
1629456582281,0.5,-0.734375,0.484375
1629456582312,0.515625,-0.734375,0.484375
1629456582343,0.484375,-0.734375,0.46875
1629456582375,0.484375,-0.734375,0.484375
1629456582406,0.5,-0.734375,0.484375
1629456582437,0.5,-0.734375,0.46875
1629456582468,0.5,-0.734375,0.46875
1629456582500,0.5,-0.734375,0.484375
1629456582531,0.5,-0.734375,0.484375
1629456582562,0.484375,-0.734375,0.484375
1629456582593,0.5,-0.734375,0.484375
1629456582625,0.5,-0.734375,0.484375
1629456582656,0.5,-0.734375,0.484375
1629456582687,0.5,-0.734375,0.484375
1629456582718,0.5,-0.734375,0.484375
1629456582750,0.5,-0.734375,0.46875
1629456582781,0.5,-0.734375,0.484375
1629456582812,0.5,-0.734375,0.484375
1629456582843,0.5,-0.734375,0.484375
1629456582875,0.484375,-0.734375,0.46875
1629456582906,0.484375,-0.734375,0.484375
1629456582937,0.484375,-0.734375,0.484375
1629456582968,0.5,-0.734375,0.484375
1629456583000,0.5,-0.734375,0.484375
1629456583031,0.5,-0.734375,0.484375
1629456583062,0.5,-0.734375,0.484375
1629456583093,0.5,-0.734375,0.484375
1629456583125,0.484375,-0.734375,0.46875
1629456583156,0.484375,-0.734375,0.484375
1629456583187,0.484375,-0.734375,0.484375
1629456583218,0.5,-0.734375,0.46875
1629456583250,0.5,-0.734375,0.484375
1629456583281,0.5,-0.734375,0.484375
1629456583312,0.5,-0.734375,0.46875
1629456583343,0.5,-0.734375,0.484375
1629456583375,0.5,-0.734375,0.484375
1629456583406,0.5,-0.734375,0.484375
1629456583437,0.484375,-0.734375,0.484375
1629456583468,0.484375,-0.734375,0.484375
1629456583500,0.484375,-0.734375,0.484375
1629456583531,0.5,-0.734375,0.484375
1629456583562,0.5,-0.734375,0.484375
1629456583593,0.5,-0.734375,0.484375
1629456583625,0.46875,-0.734375,0.484375
1629456583656,0.484375,-0.75,0.484375
1629456583687,0.484375,-0.734375,0.484375
1629456583718,0.484375,-0.734375,0.5
1629456583750,0.5,-0.734375,0.5
1629456583781,0.484375,-0.734375,0.46875
1629456583812,0.484375,-0.75,0.46875
1629456583843,0.46875,-0.734375,0.46875
1629456583875,0.484375,-0.734375,0.484375
1629456583906,0.484375,-0.75,0.484375
1629456583937,0.484375,-0.734375,0.46875
1629456583968,0.484375,-0.75,0.484375
1629456584000,0.484375,-0.734375,0.484375
1629456584031,0.484375,-0.734375,0.484375
1629456584062,0.484375,-0.75,0.484375
1629456584093,0.484375,-0.75,0.484375
1629456584125,0.46875,-0.734375,0.484375
1629456584156,0.46875,-0.75,0.484375
1629456584187,0.484375,-0.75,0.484375
1629456584218,0.484375,-0.75,0.484375
1629456584250,0.484375,-0.75,0.484375
1629456584281,0.484375,-0.75,0.484375
1629456584312,0.484375,-0.75,0.484375
1629456584343,0.46875,-0.75,0.484375
1629456584375,0.46875,-0.75,0.46875
1629456584406,0.484375,-0.75,0.46875
1629456584437,0.484375,-0.75,0.484375
1629456584468,0.484375,-0.75,0.46875
1629456584500,0.484375,-0.75,0.484375
1629456584531,0.46875,-0.734375,0.484375
1629456584562,0.484375,-0.75,0.484375
1629456584593,0.484375,-0.75,0.484375
1629456584625,0.484375,-0.75,0.484375
1629456584656,0.46875,-0.75,0.484375
1629456584687,0.484375,-0.75,0.484375
1629456584718,0.46875,-0.734375,0.484375
1629456584750,0.484375,-0.75,0.484375
1629456584781,0.484375,-0.75,0.484375
1629456584812,0.484375,-0.75,0.484375
1629456584843,0.46875,-0.75,0.484375
1629456584875,0.484375,-0.75,0.484375
1629456584906,0.46875,-0.75,0.484375
1629456584937,0.484375,-0.75,0.46875
1629456584968,0.484375,-0.75,0.46875
1629456585000,0.484375,-0.75,0.484375
1629456585031,0.46875,-0.75,0.484375
1629456585062,0.46875,-0.75,0.46875
1629456585093,0.46875,-0.75,0.484375
1629456585125,0.484375,-0.75,0.484375
1629456585156,0.484375,-0.75,0.484375
1629456585187,0.484375,-0.75,0.484375
1629456585218,0.484375,-0.75,0.484375
1629456585250,0.484375,-0.75,0.484375
1629456585281,0.46875,-0.75,0.484375
1629456585312,0.46875,-0.75,0.484375
1629456585343,0.484375,-0.75,0.484375
1629456585375,0.46875,-0.75,0.484375
1629456585406,0.46875,-0.75,0.484375
1629456585437,0.484375,-0.75,0.484375
1629456585468,0.484375,-0.75,0.484375
1629456585500,0.484375,-0.75,0.484375
1629456585531,0.484375,-0.75,0.484375
1629456585562,0.484375,-0.75,0.484375
1629456585593,0.46875,-0.75,0.46875
1629456585625,0.484375,-0.75,0.46875
1629456585656,0.484375,-0.75,0.484375
1629456585687,0.484375,-0.75,0.484375
1629456585718,0.484375,-0.75,0.484375
1629456585750,0.484375,-0.75,0.484375
1629456585781,0.46875,-0.75,0.484375
1629456585812,0.46875,-0.75,0.484375
1629456585843,0.46875,-0.75,0.484375
1629456585875,0.484375,-0.75,0.484375
1629456585906,0.484375,-0.75,0.484375
1629456585937,0.484375,-0.75,0.484375
1629456585968,0.46875,-0.75,0.484375
1629456586000,0.484375,-0.75,0.484375
1629456586031,0.46875,-0.75,0.484375
1629456586062,0.484375,-0.75,0.46875
1629456586093,0.46875,-0.75,0.484375
1629456586125,0.46875,-0.75,0.484375
1629456586156,0.46875,-0.75,0.484375
1629456586187,0.484375,-0.75,0.46875
1629456586218,0.484375,-0.75,0.46875
1629456586250,0.46875,-0.75,0.484375
1629456586281,0.484375,-0.75,0.484375
1629456586312,0.46875,-0.75,0.46875
1629456586343,0.484375,-0.75,0.46875
1629456586375,0.46875,-0.75,0.484375
1629456586406,0.46875,-0.75,0.484375
1629456586437,0.46875,-0.75,0.484375
1629456586468,0.484375,-0.75,0.484375
1629456586500,0.46875,-0.75,0.46875
1629456586531,0.46875,-0.75,0.484375
1629456586562,0.46875,-0.75,0.484375
1629456586593,0.484375,-0.75,0.484375
1629456586625,0.46875,-0.75,0.484375
1629456586656,0.46875,-0.75,0.484375
1629456586687,0.484375,-0.75,0.484375
1629456586718,0.46875,-0.75,0.484375
1629456586750,0.46875,-0.75,0.484375
1629456586781,0.484375,-0.75,0.484375
1629456586812,0.46875,-0.75,0.484375
1629456586843,0.46875,-0.75,0.484375
1629456586875,0.484375,-0.75,0.484375
1629456586906,0.46875,-0.75,0.46875
1629456586937,0.484375,-0.75,0.484375
1629456586968,0.46875,-0.75,0.484375
1629456587000,0.484375,-0.75,0.484375
1629456587031,0.484375,-0.765625,0.484375
1629456587062,0.46875,-0.75,0.46875
1629456587093,0.46875,-0.75,0.484375
1629456587125,0.484375,-0.75,0.484375
1629456587156,0.46875,-0.75,0.484375
1629456587187,0.46875,-0.75,0.46875
1629456587218,0.46875,-0.75,0.484375
1629456587250,0.46875,-0.75,0.484375
1629456587281,0.484375,-0.75,0.484375
1629456587312,0.46875,-0.75,0.484375
1629456587343,0.46875,-0.75,0.46875
1629456587375,0.46875,-0.75,0.46875
1629456587406,0.46875,-0.75,0.46875
1629456587437,0.484375,-0.75,0.484375
1629456587468,0.46875,-0.75,0.46875
1629456587500,0.46875,-0.75,0.484375
1629456587531,0.484375,-0.75,0.46875
1629456587562,0.484375,-0.75,0.46875
1629456587593,0.46875,-0.75,0.46875
1629456587625,0.484375,-0.75,0.484375
1629456587656,0.46875,-0.75,0.484375
1629456587687,0.484375,-0.75,0.484375
1629456587718,0.46875,-0.75,0.484375
1629456587750,0.484375,-0.75,0.484375
1629456587781,0.46875,-0.75,0.484375
1629456587812,0.484375,-0.75,0.46875
1629456587843,0.46875,-0.75,0.46875
1629456587875,0.46875,-0.75,0.46875
1629456587906,0.46875,-0.75,0.46875
1629456587937,0.46875,-0.75,0.46875
1629456587968,0.46875,-0.75,0.484375
1629456588000,0.484375,-0.75,0.46875
1629456588031,0.46875,-0.75,0.46875
1629456588062,0.46875,-0.75,0.46875
1629456588093,0.46875,-0.75,0.46875
1629456588125,0.484375,-0.75,0.46875
1629456588156,0.46875,-0.75,0.46875
1629456588187,0.46875,-0.75,0.46875
1629456588218,0.46875,-0.75,0.484375
1629456588250,0.484375,-0.75,0.484375
1629456588281,0.46875,-0.75,0.46875
1629456588312,0.46875,-0.75,0.484375
1629456588343,0.46875,-0.75,0.46875
1629456588375,0.46875,-0.75,0.46875
1629456588406,0.46875,-0.75,0.46875
1629456588437,0.46875,-0.75,0.46875
1629456588468,0.46875,-0.75,0.484375
1629456588500,0.46875,-0.75,0.46875
1629456588531,0.46875,-0.75,0.46875
1629456588562,0.484375,-0.75,0.484375
1629456588593,0.484375,-0.75,0.46875
1629456588625,0.46875,-0.75,0.46875
1629456588656,0.46875,-0.75,0.484375
1629456588687,0.46875,-0.75,0.484375
1629456588718,0.46875,-0.75,0.484375
1629456588750,0.46875,-0.75,0.46875
1629456588781,0.46875,-0.75,0.46875
1629456588812,0.46875,-0.75,0.484375
1629456588843,0.46875,-0.75,0.46875
1629456588875,0.484375,-0.75,0.484375
1629456588906,0.484375,-0.75,0.46875
1629456588937,0.46875,-0.75,0.46875
1629456588968,0.46875,-0.75,0.46875
1629456589000,0.46875,-0.75,0.46875
1629456589031,0.46875,-0.75,0.46875
1629456589062,0.46875,-0.75,0.46875
1629456589093,0.46875,-0.75,0.46875
1629456589125,0.484375,-0.75,0.484375
1629456589156,0.484375,-0.765625,0.46875
1629456589187,0.46875,-0.75,0.484375
1629456589218,0.46875,-0.75,0.46875
1629456589250,0.46875,-0.75,0.484375
1629456589281,0.484375,-0.75,0.484375
1629456589312,0.484375,-0.75,0.46875
1629456589343,0.46875,-0.75,0.46875
1629456589375,0.46875,-0.75,0.484375
1629456589406,0.46875,-0.75,0.46875
1629456589437,0.46875,-0.75,0.46875
1629456589468,0.46875,-0.75,0.484375
1629456589500,0.46875,-0.75,0.484375
1629456589531,0.46875,-0.75,0.484375
1629456589562,0.46875,-0.75,0.46875
1629456589593,0.46875,-0.75,0.46875
1629456589625,0.484375,-0.75,0.484375
1629456589656,0.46875,-0.75,0.46875
1629456589687,0.46875,-0.75,0.484375
1629456589718,0.46875,-0.75,0.484375
1629456589750,0.484375,-0.75,0.46875
1629456589781,0.46875,-0.75,0.484375
1629456589812,0.46875,-0.75,0.484375
1629456589843,0.46875,-0.75,0.484375
1629456589875,0.46875,-0.75,0.484375
1629456589906,0.46875,-0.75,0.46875
1629456589937,0.484375,-0.75,0.46875
1629456589968,0.46875,-0.75,0.46875
1629456590000,0.484375,-0.75,0.484375
1629456590031,0.484375,-0.75,0.46875
1629456590062,0.46875,-0.75,0.46875
1629456590093,0.484375,-0.75,0.46875
1629456590125,0.484375,-0.765625,0.46875
1629456590156,0.46875,-0.75,0.46875
1629456590187,0.46875,-0.75,0.46875
1629456590218,0.46875,-0.75,0.46875
1629456590250,0.46875,-0.75,0.46875
1629456590281,0.46875,-0.75,0.46875
1629456590312,0.484375,-0.75,0.46875
1629456590343,0.484375,-0.75,0.484375
1629456590375,0.484375,-0.75,0.46875
1629456590406,0.46875,-0.75,0.484375
1629456590437,0.484375,-0.75,0.484375
1629456590468,0.484375,-0.75,0.46875
1629456590500,0.46875,-0.75,0.46875
1629456590531,0.484375,-0.75,0.46875
1629456590562,0.46875,-0.75,0.46875
1629456590593,0.484375,-0.75,0.46875
1629456590625,0.484375,-0.75,0.46875
1629456590656,0.46875,-0.75,0.46875
1629456590687,0.46875,-0.75,0.46875
1629456590718,0.453125,-0.765625,0.46875
1629456590750,0.484375,-0.75,0.484375
1629456590781,0.484375,-0.75,0.484375
1629456590812,0.5,-0.75,0.484375
1629456590843,0.5,-0.75,0.46875
1629456590875,0.46875,-0.75,0.453125
1629456590906,0.484375,-0.75,0.46875
1629456590937,0.484375,-0.75,0.46875
1629456590968,0.484375,-0.75,0.46875
1629456591000,0.484375,-0.75,0.46875
1629456591031,0.484375,-0.75,0.46875
1629456591062,0.484375,-0.75,0.46875
1629456591093,0.484375,-0.765625,0.46875
1629456591125,0.46875,-0.75,0.46875
1629456591156,0.484375,-0.75,0.46875
1629456591187,0.46875,-0.75,0.46875
1629456591218,0.484375,-0.75,0.46875
1629456591250,0.484375,-0.75,0.46875
1629456591281,0.484375,-0.75,0.46875
1629456591312,0.484375,-0.765625,0.46875
1629456591343,0.46875,-0.75,0.46875
1629456591375,0.484375,-0.75,0.46875
1629456591406,0.46875,-0.75,0.46875
1629456591437,0.46875,-0.75,0.46875
1629456591468,0.46875,-0.75,0.46875
1629456591500,0.46875,-0.75,0.46875
1629456591531,0.484375,-0.765625,0.46875
1629456591562,0.484375,-0.75,0.46875
1629456591593,0.46875,-0.75,0.46875
1629456591625,0.46875,-0.75,0.46875
1629456591656,0.46875,-0.75,0.46875
1629456591687,0.46875,-0.75,0.46875
1629456591718,0.46875,-0.75,0.484375
1629456591750,0.46875,-0.75,0.46875
1629456591781,0.46875,-0.75,0.46875
1629456591812,0.46875,-0.75,0.46875
1629456591843,0.46875,-0.75,0.484375
1629456591875,0.46875,-0.75,0.46875
1629456591906,0.484375,-0.75,0.46875
1629456591937,0.46875,-0.75,0.46875
1629456591968,0.46875,-0.75,0.46875
1629456592000,0.46875,-0.765625,0.46875
1629456592031,0.46875,-0.75,0.46875
1629456592062,0.46875,-0.75,0.46875
1629456592093,0.46875,-0.75,0.46875
1629456592125,0.46875,-0.75,0.484375
1629456592156,0.46875,-0.75,0.46875
1629456592187,0.46875,-0.75,0.484375
1629456592218,0.46875,-0.75,0.46875
1629456592250,0.46875,-0.75,0.484375
1629456592281,0.46875,-0.75,0.484375
1629456592312,0.46875,-0.75,0.484375
1629456592343,0.46875,-0.75,0.46875
1629456592375,0.46875,-0.75,0.46875
1629456592406,0.46875,-0.75,0.46875
1629456592437,0.46875,-0.765625,0.484375
1629456592468,0.46875,-0.75,0.484375
1629456592500,0.46875,-0.75,0.484375
1629456592531,0.46875,-0.75,0.46875
1629456592562,0.46875,-0.75,0.484375
1629456592593,0.46875,-0.75,0.46875
1629456592625,0.46875,-0.765625,0.46875
1629456592656,0.46875,-0.75,0.484375
1629456592687,0.46875,-0.75,0.484375
1629456592718,0.46875,-0.765625,0.46875
1629456592750,0.46875,-0.75,0.484375
1629456592781,0.46875,-0.75,0.484375
1629456592812,0.46875,-0.75,0.484375
1629456592843,0.46875,-0.75,0.484375
1629456592875,0.46875,-0.75,0.46875
1629456592906,0.46875,-0.765625,0.46875
1629456592937,0.46875,-0.75,0.46875
1629456592968,0.46875,-0.75,0.46875
1629456593000,0.46875,-0.75,0.46875
1629456593031,0.46875,-0.75,0.484375
1629456593062,0.46875,-0.75,0.46875
1629456593093,0.46875,-0.75,0.46875
1629456593125,0.46875,-0.75,0.46875
1629456593156,0.46875,-0.75,0.46875
1629456593187,0.46875,-0.75,0.46875
1629456593218,0.46875,-0.75,0.46875
1629456593250,0.46875,-0.75,0.484375
1629456593281,0.46875,-0.75,0.484375
1629456593312,0.46875,-0.75,0.484375
1629456593343,0.46875,-0.75,0.46875
1629456593375,0.46875,-0.75,0.484375
1629456593406,0.46875,-0.765625,0.484375
1629456593437,0.46875,-0.75,0.46875
1629456593468,0.46875,-0.75,0.484375
1629456593500,0.46875,-0.75,0.46875
1629456593531,0.46875,-0.75,0.46875
1629456593562,0.484375,-0.765625,0.46875
1629456593593,0.46875,-0.75,0.484375
1629456593625,0.46875,-0.75,0.484375
1629456593656,0.46875,-0.75,0.484375
1629456593687,0.484375,-0.75,0.484375
1629456593718,0.484375,-0.75,0.484375
1629456593750,0.484375,-0.75,0.46875
1629456593781,0.5,-0.75,0.46875
1629456593812,0.5,-0.765625,0.46875
1629456593843,0.5,-0.75,0.453125
1629456593875,0.515625,-0.765625,0.46875
1629456593906,0.515625,-0.75,0.453125
1629456593937,0.484375,-0.75,0.4375
1629456593968,0.484375,-0.75,0.4375
1629456594000,0.453125,-0.75,0.46875
1629456594031,0.46875,-0.75,0.484375
1629456594062,0.46875,-0.75,0.46875
1629456594093,0.46875,-0.765625,0.46875
1629456594125,0.46875,-0.765625,0.46875
1629456594156,0.46875,-0.75,0.484375
1629456594187,0.453125,-0.75,0.484375
1629456594218,0.46875,-0.75,0.484375
1629456594250,0.484375,-0.75,0.484375
1629456594281,0.46875,-0.75,0.484375
1629456594312,0.46875,-0.75,0.46875
1629456594343,0.484375,-0.75,0.453125
1629456594375,0.484375,-0.75,0.453125
1629456594406,0.484375,-0.75,0.46875
1629456594437,0.484375,-0.75,0.46875
1629456594468,0.484375,-0.75,0.46875
1629456594500,0.484375,-0.765625,0.484375
1629456594531,0.46875,-0.765625,0.484375
1629456594562,0.484375,-0.765625,0.46875
1629456594593,0.5,-0.75,0.453125
1629456594625,0.484375,-0.75,0.453125
1629456594656,0.46875,-0.75,0.46875
1629456594687,0.46875,-0.75,0.46875
1629456594718,0.46875,-0.75,0.453125
1629456594750,0.5,-0.765625,0.453125
1629456594781,0.5,-0.75,0.453125
1629456594812,0.5,-0.75,0.46875
1629456594843,0.5,-0.765625,0.46875
1629456594875,0.484375,-0.765625,0.484375
1629456594906,0.46875,-0.765625,0.46875
1629456594937,0.46875,-0.75,0.453125
1629456594968,0.46875,-0.75,0.46875
1629456595000,0.46875,-0.75,0.46875
1629456595031,0.453125,-0.75,0.46875
1629456595062,0.46875,-0.765625,0.46875
1629456595093,0.484375,-0.75,0.484375
1629456595125,0.484375,-0.75,0.484375
1629456595156,0.46875,-0.765625,0.484375
1629456595187,0.484375,-0.75,0.5
1629456595218,0.484375,-0.75,0.484375
1629456595250,0.484375,-0.765625,0.484375
1629456595281,0.453125,-0.75,0.46875
1629456595312,0.421875,-0.765625,0.453125
1629456595343,0.390625,-0.75,0.453125
1629456595375,0.46875,-0.765625,0.484375
1629456595406,0.484375,-0.75,0.5
1629456595437,0.4375,-0.75,0.484375
1629456595468,0.46875,-0.75,0.484375
1629456595500,0.484375,-0.75,0.5
1629456595531,0.453125,-0.75,0.484375
1629456595562,0.453125,-0.75,0.484375
1629456595593,0.46875,-0.75,0.484375
1629456595625,0.4375,-0.75,0.5
1629456595656,0.453125,-0.75,0.484375
1629456595687,0.453125,-0.765625,0.484375
1629456595718,0.453125,-0.765625,0.5
1629456595750,0.4375,-0.75,0.484375
1629456595781,0.453125,-0.765625,0.5
1629456595812,0.453125,-0.765625,0.515625
1629456595843,0.4375,-0.75,0.5
1629456595875,0.453125,-0.765625,0.484375
1629456595906,0.453125,-0.75,0.484375
1629456595937,0.453125,-0.765625,0.484375
1629456595968,0.453125,-0.765625,0.484375
1629456596000,0.453125,-0.75,0.484375
1629456596031,0.46875,-0.765625,0.484375
1629456596062,0.453125,-0.75,0.484375
1629456596093,0.453125,-0.75,0.484375
1629456596125,0.453125,-0.765625,0.484375
1629456596156,0.46875,-0.75,0.484375
1629456596187,0.453125,-0.75,0.484375
1629456596218,0.453125,-0.765625,0.484375
1629456596250,0.453125,-0.75,0.484375
1629456596281,0.46875,-0.75,0.484375
1629456596312,0.453125,-0.765625,0.484375
1629456596343,0.4375,-0.765625,0.484375
1629456596375,0.453125,-0.765625,0.484375
1629456596406,0.46875,-0.765625,0.484375
1629456596437,0.453125,-0.765625,0.484375
1629456596468,0.453125,-0.765625,0.484375
1629456596500,0.453125,-0.765625,0.484375
1629456596531,0.453125,-0.75,0.484375
1629456596562,0.453125,-0.765625,0.484375
1629456596593,0.453125,-0.765625,0.484375
1629456596625,0.453125,-0.765625,0.484375
1629456596656,0.46875,-0.765625,0.484375
1629456596687,0.46875,-0.765625,0.484375
1629456596718,0.453125,-0.765625,0.484375
1629456596750,0.453125,-0.765625,0.484375
1629456596781,0.453125,-0.765625,0.484375
1629456596812,0.453125,-0.765625,0.484375
1629456596843,0.453125,-0.765625,0.484375
1629456596875,0.453125,-0.765625,0.484375
1629456596906,0.453125,-0.75,0.484375
1629456596937,0.453125,-0.75,0.484375
1629456596968,0.46875,-0.765625,0.484375
1629456597000,0.453125,-0.765625,0.484375
1629456597031,0.453125,-0.765625,0.5
1629456597062,0.453125,-0.765625,0.484375
1629456597093,0.453125,-0.765625,0.484375
1629456597125,0.453125,-0.75,0.484375
1629456597156,0.453125,-0.765625,0.484375
1629456597187,0.46875,-0.765625,0.484375
1629456597218,0.453125,-0.75,0.484375
1629456597250,0.453125,-0.75,0.484375
1629456597281,0.46875,-0.765625,0.484375
1629456597312,0.46875,-0.765625,0.484375
1629456597343,0.453125,-0.765625,0.484375
1629456597375,0.453125,-0.765625,0.484375
1629456597406,0.453125,-0.765625,0.484375
1629456597437,0.453125,-0.765625,0.484375
1629456597468,0.453125,-0.765625,0.484375
1629456597500,0.453125,-0.765625,0.484375
1629456597531,0.4375,-0.765625,0.484375
1629456597562,0.453125,-0.765625,0.484375
1629456597593,0.46875,-0.765625,0.484375
1629456597625,0.46875,-0.765625,0.484375
1629456597656,0.453125,-0.75,0.484375
1629456597687,0.453125,-0.765625,0.484375
1629456597718,0.453125,-0.765625,0.484375
1629456597750,0.453125,-0.765625,0.46875
1629456597781,0.453125,-0.765625,0.484375
1629456597812,0.453125,-0.765625,0.484375
1629456597843,0.453125,-0.765625,0.484375
1629456597875,0.453125,-0.765625,0.46875
1629456597906,0.453125,-0.765625,0.484375
1629456597937,0.4375,-0.765625,0.484375
1629456597968,0.453125,-0.75,0.484375
1629456598000,0.453125,-0.765625,0.484375
1629456598031,0.453125,-0.765625,0.484375
1629456598062,0.453125,-0.765625,0.484375
1629456598093,0.453125,-0.765625,0.484375
1629456598125,0.453125,-0.765625,0.484375
1629456598156,0.453125,-0.765625,0.484375
1629456598187,0.453125,-0.765625,0.484375
1629456598218,0.453125,-0.765625,0.484375
1629456598250,0.46875,-0.765625,0.484375
1629456598281,0.46875,-0.765625,0.484375
1629456598312,0.453125,-0.765625,0.484375
1629456598343,0.453125,-0.75,0.484375
1629456598375,0.453125,-0.765625,0.484375
1629456598406,0.46875,-0.765625,0.484375
1629456598437,0.46875,-0.765625,0.46875
1629456598468,0.46875,-0.75,0.46875
1629456598500,0.484375,-0.75,0.484375
1629456598531,0.453125,-0.75,0.484375
1629456598562,0.46875,-0.75,0.46875
1629456598593,0.453125,-0.765625,0.46875
1629456598625,0.46875,-0.765625,0.46875
1629456598656,0.53125,-0.765625,0.453125
1629456598687,0.515625,-0.765625,0.46875
1629456598718,0.484375,-0.75,0.453125
1629456598750,0.515625,-0.734375,0.453125
1629456598781,0.515625,-0.75,0.453125
1629456598812,0.5,-0.75,0.453125
1629456598843,0.484375,-0.75,0.453125
1629456598875,0.515625,-0.75,0.453125
1629456598906,0.46875,-0.75,0.453125
1629456598937,0.46875,-0.75,0.453125
1629456598968,0.484375,-0.75,0.484375
1629456599000,0.484375,-0.75,0.484375
1629456599031,0.5,-0.75,0.484375
1629456599062,0.5,-0.75,0.484375
1629456599093,0.5,-0.75,0.46875
1629456599125,0.46875,-0.75,0.46875
1629456599156,0.46875,-0.75,0.46875
1629456599187,0.46875,-0.75,0.46875
1629456599218,0.484375,-0.75,0.453125
1629456599250,0.484375,-0.75,0.46875
1629456599281,0.46875,-0.75,0.46875
1629456599312,0.46875,-0.75,0.46875
1629456599343,0.46875,-0.765625,0.46875
1629456599375,0.46875,-0.765625,0.46875
1629456599406,0.46875,-0.75,0.46875
1629456599437,0.46875,-0.75,0.46875
1629456599468,0.484375,-0.765625,0.46875
1629456599500,0.484375,-0.75,0.46875
1629456599531,0.484375,-0.75,0.46875
1629456599562,0.484375,-0.75,0.484375
1629456599593,0.484375,-0.765625,0.46875
1629456599625,0.484375,-0.75,0.46875
1629456599656,0.484375,-0.765625,0.46875
1629456599687,0.46875,-0.765625,0.46875
1629456599718,0.46875,-0.765625,0.46875
1629456599750,0.484375,-0.765625,0.46875
1629456599781,0.46875,-0.765625,0.46875
1629456599812,0.46875,-0.765625,0.46875
1629456599843,0.484375,-0.765625,0.46875
1629456599875,0.484375,-0.75,0.46875
1629456599906,0.46875,-0.765625,0.46875
1629456599937,0.4375,-0.75,0.46875
1629456599968,0.453125,-0.75,0.46875
1629456600000,0.484375,-0.765625,0.46875
1629456600031,0.453125,-0.765625,0.453125
1629456600062,0.46875,-0.765625,0.46875
1629456600093,0.5,-0.765625,0.484375
1629456600125,0.484375,-0.75,0.484375
1629456600156,0.453125,-0.75,0.46875
1629456600187,0.453125,-0.765625,0.46875
1629456600218,0.46875,-0.765625,0.46875
1629456600250,0.5,-0.765625,0.46875
1629456600281,0.484375,-0.765625,0.46875
1629456600312,0.453125,-0.765625,0.453125
1629456600343,0.484375,-0.75,0.484375
1629456600375,0.484375,-0.765625,0.5
1629456600406,0.484375,-0.75,0.46875
1629456600437,0.46875,-0.765625,0.453125
1629456600468,0.46875,-0.765625,0.46875
1629456600500,0.484375,-0.765625,0.46875
1629456600531,0.484375,-0.765625,0.46875
1629456600562,0.46875,-0.765625,0.453125
1629456600593,0.46875,-0.765625,0.46875
1629456600625,0.46875,-0.765625,0.453125
1629456600656,0.46875,-0.765625,0.46875
1629456600687,0.46875,-0.765625,0.46875
1629456600718,0.46875,-0.765625,0.46875
1629456600750,0.46875,-0.765625,0.46875
1629456600781,0.484375,-0.765625,0.46875
1629456600812,0.453125,-0.75,0.484375
1629456600843,0.453125,-0.75,0.484375
1629456600875,0.515625,-0.765625,0.484375
1629456600906,0.46875,-0.765625,0.453125
1629456600937,0.46875,-0.765625,0.4375
1629456600968,0.46875,-0.75,0.453125
1629456601000,0.484375,-0.765625,0.46875
1629456601031,0.5,-0.765625,0.46875
1629456601062,0.5,-0.75,0.4375
1629456601093,0.484375,-0.765625,0.453125
1629456601125,0.46875,-0.75,0.453125
1629456601156,0.484375,-0.765625,0.453125
1629456601187,0.515625,-0.765625,0.453125
1629456601218,0.484375,-0.75,0.453125
1629456601250,0.484375,-0.75,0.453125
1629456601281,0.5,-0.75,0.46875
1629456601312,0.484375,-0.75,0.46875
1629456601343,0.46875,-0.75,0.46875
1629456601375,0.484375,-0.765625,0.46875
1629456601406,0.46875,-0.765625,0.453125
1629456601437,0.46875,-0.765625,0.46875
1629456601468,0.484375,-0.75,0.46875
1629456601500,0.484375,-0.765625,0.46875
1629456601531,0.5,-0.75,0.46875
1629456601562,0.484375,-0.765625,0.46875
1629456601593,0.484375,-0.765625,0.453125
1629456601625,0.46875,-0.75,0.46875
1629456601656,0.46875,-0.75,0.46875
1629456601687,0.484375,-0.75,0.453125
1629456601718,0.5,-0.765625,0.453125
1629456601750,0.484375,-0.765625,0.46875
1629456601781,0.453125,-0.75,0.46875
1629456601812,0.453125,-0.75,0.46875
1629456601843,0.5,-0.765625,0.46875
1629456601875,0.46875,-0.75,0.453125
1629456601906,0.46875,-0.75,0.453125
1629456601937,0.515625,-0.765625,0.453125
1629456601968,0.53125,-0.765625,0.453125
1629456602000,0.5,-0.765625,0.453125
1629456602031,0.484375,-0.765625,0.453125
1629456602062,0.5,-0.765625,0.453125
1629456602093,0.5,-0.765625,0.453125
1629456602125,0.484375,-0.765625,0.453125
1629456602156,0.5,-0.765625,0.453125
1629456602187,0.484375,-0.765625,0.453125
1629456602218,0.484375,-0.765625,0.453125
1629456602250,0.5,-0.765625,0.453125
1629456602281,0.5,-0.765625,0.453125
1629456602312,0.484375,-0.765625,0.453125
1629456602343,0.515625,-0.765625,0.453125
1629456602375,0.5,-0.765625,0.453125
1629456602406,0.484375,-0.765625,0.4375
1629456602437,0.46875,-0.765625,0.453125
1629456602468,0.46875,-0.765625,0.453125
1629456602500,0.5,-0.765625,0.453125
1629456602531,0.5,-0.765625,0.453125
1629456602562,0.5,-0.765625,0.453125
1629456602593,0.5,-0.75,0.46875
1629456602625,0.515625,-0.765625,0.46875
1629456602656,0.5,-0.75,0.453125
1629456602687,0.46875,-0.765625,0.453125
1629456602718,0.46875,-0.765625,0.453125
1629456602750,0.484375,-0.765625,0.453125
1629456602781,0.484375,-0.765625,0.453125
1629456602812,0.484375,-0.75,0.453125
1629456602843,0.5,-0.765625,0.453125
1629456602875,0.5,-0.765625,0.453125
1629456602906,0.484375,-0.75,0.453125
1629456602937,0.484375,-0.765625,0.453125
1629456602968,0.5,-0.765625,0.46875
1629456603000,0.5,-0.765625,0.453125
1629456603031,0.484375,-0.765625,0.453125
1629456603062,0.484375,-0.765625,0.453125
1629456603093,0.484375,-0.765625,0.453125
1629456603125,0.484375,-0.765625,0.46875
1629456603156,0.484375,-0.765625,0.453125
1629456603187,0.484375,-0.765625,0.453125
1629456603218,0.5,-0.765625,0.453125
1629456603250,0.484375,-0.765625,0.46875
1629456603281,0.484375,-0.765625,0.453125
1629456603312,0.5,-0.765625,0.453125
1629456603343,0.484375,-0.765625,0.453125
1629456603375,0.484375,-0.765625,0.453125
1629456603406,0.453125,-0.75,0.453125
1629456603437,0.484375,-0.765625,0.453125
1629456603468,0.5,-0.765625,0.453125
1629456603500,0.5,-0.765625,0.453125
1629456603531,0.484375,-0.765625,0.46875
1629456603562,0.46875,-0.75,0.46875
1629456603593,0.46875,-0.765625,0.46875
1629456603625,0.484375,-0.765625,0.453125
1629456603656,0.484375,-0.765625,0.453125
1629456603687,0.484375,-0.75,0.453125
1629456603718,0.484375,-0.765625,0.46875
1629456603750,0.484375,-0.765625,0.453125
1629456603781,0.484375,-0.765625,0.453125
1629456603812,0.484375,-0.765625,0.453125
1629456603843,0.46875,-0.765625,0.453125
1629456603875,0.46875,-0.765625,0.453125
1629456603906,0.484375,-0.765625,0.453125
1629456603937,0.484375,-0.765625,0.453125
1629456603968,0.46875,-0.765625,0.46875
1629456604000,0.484375,-0.765625,0.453125
1629456604031,0.484375,-0.765625,0.453125
1629456604062,0.484375,-0.765625,0.453125
1629456604093,0.484375,-0.765625,0.453125
1629456604125,0.484375,-0.765625,0.453125
1629456604156,0.5,-0.765625,0.46875
1629456604187,0.484375,-0.75,0.453125
1629456604218,0.5,-0.75,0.46875
1629456604250,0.453125,-0.75,0.453125
1629456604281,0.453125,-0.78125,0.453125
1629456604312,0.453125,-0.765625,0.4375
1629456604343,0.46875,-0.765625,0.4375
1629456604375,0.46875,-0.765625,0.453125
1629456604406,0.484375,-0.765625,0.453125
1629456604437,0.484375,-0.765625,0.453125
1629456604468,0.484375,-0.765625,0.46875
1629456604500,0.5,-0.765625,0.46875
1629456604531,0.5,-0.75,0.46875
1629456604562,0.5,-0.765625,0.46875
1629456604593,0.46875,-0.765625,0.46875
1629456604625,0.4375,-0.765625,0.453125
1629456604656,0.46875,-0.765625,0.453125
1629456604687,0.484375,-0.765625,0.453125
1629456604718,0.484375,-0.765625,0.4375
1629456604750,0.5,-0.765625,0.453125
1629456604781,0.484375,-0.765625,0.46875
1629456604812,0.453125,-0.75,0.453125
1629456604843,0.46875,-0.765625,0.453125
1629456604875,0.46875,-0.765625,0.46875
1629456604906,0.484375,-0.765625,0.46875
1629456604937,0.484375,-0.765625,0.46875
1629456604968,0.484375,-0.765625,0.46875
1629456605000,0.46875,-0.765625,0.453125
1629456605031,0.46875,-0.765625,0.453125
1629456605062,0.484375,-0.765625,0.46875
1629456605093,0.484375,-0.765625,0.453125
1629456605125,0.484375,-0.765625,0.453125
1629456605156,0.46875,-0.765625,0.453125
1629456605187,0.484375,-0.765625,0.453125
1629456605218,0.484375,-0.765625,0.453125
1629456605250,0.484375,-0.765625,0.453125
1629456605281,0.46875,-0.765625,0.453125
1629456605312,0.484375,-0.765625,0.46875
1629456605343,0.484375,-0.765625,0.46875
1629456605375,0.46875,-0.765625,0.453125
1629456605406,0.46875,-0.765625,0.453125
1629456605437,0.484375,-0.765625,0.453125
1629456605468,0.484375,-0.765625,0.453125
1629456605500,0.484375,-0.765625,0.453125
1629456605531,0.484375,-0.765625,0.453125
1629456605562,0.484375,-0.765625,0.453125
1629456605593,0.484375,-0.765625,0.453125
1629456605625,0.484375,-0.765625,0.46875
1629456605656,0.46875,-0.765625,0.453125
1629456605687,0.453125,-0.765625,0.453125
1629456605718,0.484375,-0.765625,0.453125
1629456605750,0.5,-0.765625,0.46875
1629456605781,0.53125,-0.765625,0.453125
1629456605812,0.515625,-0.765625,0.4375
1629456605843,0.515625,-0.75,0.4375
1629456605875,0.484375,-0.75,0.453125
1629456605906,0.484375,-0.75,0.453125
1629456605937,0.453125,-0.765625,0.46875
1629456605968,0.453125,-0.765625,0.46875
1629456606000,0.453125,-0.765625,0.46875
1629456606031,0.453125,-0.765625,0.46875
1629456606062,0.46875,-0.765625,0.46875
1629456606093,0.453125,-0.765625,0.46875
1629456606125,0.453125,-0.75,0.46875
1629456606156,0.46875,-0.765625,0.453125
1629456606187,0.5,-0.765625,0.4375
1629456606218,0.5,-0.765625,0.4375
1629456606250,0.5,-0.765625,0.4375
1629456606281,0.515625,-0.765625,0.4375
1629456606312,0.515625,-0.765625,0.453125
1629456606343,0.515625,-0.765625,0.453125
1629456606375,0.515625,-0.765625,0.453125
1629456606406,0.46875,-0.765625,0.453125
1629456606437,0.453125,-0.765625,0.453125
1629456606468,0.453125,-0.765625,0.46875
1629456606500,0.46875,-0.765625,0.46875
1629456606531,0.453125,-0.765625,0.46875
1629456606562,0.453125,-0.765625,0.46875
1629456606593,0.46875,-0.765625,0.453125
1629456606625,0.46875,-0.765625,0.453125
1629456606656,0.484375,-0.765625,0.453125
1629456606687,0.484375,-0.765625,0.453125
1629456606718,0.5,-0.765625,0.4375
1629456606750,0.484375,-0.765625,0.453125
1629456606781,0.484375,-0.765625,0.453125
1629456606812,0.484375,-0.765625,0.4375
1629456606843,0.484375,-0.765625,0.4375
1629456606875,0.484375,-0.765625,0.453125
1629456606906,0.484375,-0.765625,0.453125
1629456606937,0.46875,-0.765625,0.46875
1629456606968,0.453125,-0.765625,0.46875
1629456607000,0.46875,-0.765625,0.46875
1629456607031,0.46875,-0.765625,0.453125
1629456607062,0.46875,-0.765625,0.453125
1629456607093,0.46875,-0.765625,0.453125
1629456607125,0.484375,-0.765625,0.453125
1629456607156,0.484375,-0.765625,0.453125
1629456607187,0.484375,-0.765625,0.453125
1629456607218,0.484375,-0.765625,0.453125
1629456607250,0.484375,-0.765625,0.453125
1629456607281,0.484375,-0.765625,0.453125
1629456607312,0.484375,-0.765625,0.453125
1629456607343,0.484375,-0.765625,0.46875
1629456607375,0.46875,-0.765625,0.453125
1629456607406,0.46875,-0.765625,0.453125
1629456607437,0.46875,-0.765625,0.453125
1629456607468,0.46875,-0.765625,0.453125
1629456607500,0.46875,-0.765625,0.453125
1629456607531,0.46875,-0.765625,0.453125
1629456607562,0.484375,-0.765625,0.453125
1629456607593,0.484375,-0.765625,0.453125
1629456607625,0.46875,-0.765625,0.453125
1629456607656,0.46875,-0.765625,0.453125
1629456607687,0.484375,-0.765625,0.453125
1629456607718,0.46875,-0.765625,0.453125
1629456607750,0.46875,-0.765625,0.453125
1629456607781,0.46875,-0.765625,0.453125
1629456607812,0.46875,-0.765625,0.453125
1629456607843,0.484375,-0.765625,0.46875
1629456607875,0.484375,-0.765625,0.46875
1629456607906,0.46875,-0.765625,0.46875
1629456607937,0.46875,-0.765625,0.453125
1629456607968,0.484375,-0.765625,0.453125
1629456608000,0.484375,-0.765625,0.453125
1629456608031,0.46875,-0.765625,0.453125
1629456608062,0.46875,-0.765625,0.453125
1629456608093,0.484375,-0.765625,0.46875
1629456608125,0.484375,-0.765625,0.453125
1629456608156,0.484375,-0.765625,0.453125
1629456608187,0.484375,-0.765625,0.453125
1629456608218,0.46875,-0.765625,0.453125
1629456608250,0.46875,-0.765625,0.453125
1629456608281,0.5,-0.765625,0.453125
1629456608312,0.484375,-0.765625,0.453125
1629456608343,0.46875,-0.765625,0.453125
1629456608375,0.46875,-0.765625,0.453125
1629456608406,0.484375,-0.765625,0.453125
1629456608437,0.484375,-0.765625,0.453125
1629456608468,0.46875,-0.765625,0.453125
1629456608500,0.46875,-0.765625,0.453125
1629456608531,0.46875,-0.765625,0.453125
1629456608562,0.484375,-0.765625,0.453125
1629456608593,0.484375,-0.765625,0.453125
1629456608625,0.484375,-0.765625,0.453125
1629456608656,0.484375,-0.765625,0.453125
1629456608687,0.46875,-0.765625,0.453125
1629456608718,0.484375,-0.765625,0.453125
1629456608750,0.484375,-0.765625,0.453125
1629456608781,0.484375,-0.765625,0.453125
1629456608812,0.46875,-0.765625,0.453125
1629456608843,0.46875,-0.765625,0.453125
1629456608875,0.46875,-0.765625,0.453125
1629456608906,0.484375,-0.765625,0.453125
1629456608937,0.484375,-0.765625,0.453125
1629456608968,0.46875,-0.765625,0.453125
1629456609000,0.46875,-0.765625,0.453125
1629456609031,0.484375,-0.765625,0.453125
1629456609062,0.484375,-0.765625,0.453125
1629456609093,0.46875,-0.765625,0.453125
1629456609125,0.46875,-0.765625,0.453125
1629456609156,0.46875,-0.765625,0.453125
1629456609187,0.484375,-0.765625,0.453125
1629456609218,0.46875,-0.765625,0.453125
1629456609250,0.46875,-0.765625,0.453125
1629456609281,0.46875,-0.765625,0.453125
1629456609312,0.484375,-0.765625,0.453125
1629456609343,0.484375,-0.765625,0.453125
1629456609375,0.46875,-0.765625,0.453125
1629456609406,0.484375,-0.765625,0.453125
1629456609437,0.46875,-0.765625,0.453125
1629456609468,0.484375,-0.765625,0.453125
1629456609500,0.484375,-0.765625,0.453125
1629456609531,0.46875,-0.765625,0.453125
1629456609562,0.46875,-0.765625,0.453125
1629456609593,0.46875,-0.765625,0.453125
1629456609625,0.484375,-0.765625,0.453125
1629456609656,0.484375,-0.765625,0.453125
1629456609687,0.484375,-0.765625,0.453125
1629456609718,0.46875,-0.765625,0.453125
1629456609750,0.46875,-0.765625,0.46875
1629456609781,0.484375,-0.765625,0.453125
1629456609812,0.484375,-0.765625,0.453125
1629456609843,0.484375,-0.765625,0.453125
1629456609875,0.46875,-0.765625,0.453125
1629456609906,0.46875,-0.765625,0.453125
1629456609937,0.484375,-0.765625,0.453125
1629456609968,0.484375,-0.765625,0.453125
1629456610000,0.484375,-0.765625,0.453125
1629456610031,0.484375,-0.765625,0.46875
1629456610062,0.484375,-0.765625,0.453125
1629456610093,0.46875,-0.765625,0.453125
1629456610125,0.46875,-0.765625,0.453125
1629456610156,0.453125,-0.765625,0.453125
1629456610187,0.46875,-0.765625,0.453125
1629456610218,0.484375,-0.765625,0.453125
1629456610250,0.484375,-0.765625,0.453125
1629456610281,0.5,-0.765625,0.453125
1629456610312,0.515625,-0.765625,0.4375
1629456610343,0.515625,-0.765625,0.4375
1629456610375,0.53125,-0.765625,0.4375
1629456610406,0.5,-0.75,0.453125
1629456610437,0.46875,-0.765625,0.4375
1629456610468,0.453125,-0.765625,0.453125
1629456610500,0.453125,-0.765625,0.46875
1629456610531,0.453125,-0.765625,0.46875
1629456610562,0.453125,-0.765625,0.46875
1629456610593,0.46875,-0.765625,0.46875
1629456610625,0.46875,-0.765625,0.46875
1629456610656,0.453125,-0.765625,0.46875
1629456610687,0.4375,-0.765625,0.453125
1629456610718,0.453125,-0.765625,0.4375
1629456610750,0.546875,-0.765625,0.4375
1629456610781,0.5625,-0.765625,0.4375
1629456610812,0.53125,-0.765625,0.4375
1629456610843,0.5,-0.765625,0.4375
1629456610875,0.484375,-0.765625,0.453125
1629456610906,0.453125,-0.765625,0.453125
1629456610937,0.453125,-0.78125,0.453125
1629456610968,0.4375,-0.765625,0.453125
1629456611000,0.453125,-0.78125,0.484375
1629456611031,0.453125,-0.765625,0.484375
1629456611062,0.4375,-0.765625,0.484375
1629456611093,0.453125,-0.765625,0.46875
1629456611125,0.484375,-0.765625,0.46875
1629456611156,0.484375,-0.765625,0.4375
1629456611187,0.484375,-0.765625,0.4375
1629456611218,0.484375,-0.765625,0.453125
1629456611250,0.484375,-0.765625,0.4375
1629456611281,0.46875,-0.765625,0.453125
1629456611312,0.46875,-0.78125,0.4375
1629456611343,0.46875,-0.765625,0.453125
1629456611375,0.46875,-0.765625,0.46875
1629456611406,0.46875,-0.765625,0.46875
1629456611437,0.453125,-0.765625,0.46875
1629456611468,0.46875,-0.765625,0.46875
1629456611500,0.46875,-0.765625,0.453125
1629456611531,0.453125,-0.765625,0.453125
1629456611562,0.453125,-0.765625,0.453125
1629456611593,0.453125,-0.765625,0.46875
1629456611625,0.46875,-0.765625,0.453125
1629456611656,0.484375,-0.765625,0.453125
1629456611687,0.484375,-0.765625,0.453125
1629456611718,0.46875,-0.765625,0.453125
1629456611750,0.46875,-0.765625,0.453125
1629456611781,0.46875,-0.765625,0.453125
1629456611812,0.484375,-0.765625,0.453125
1629456611843,0.46875,-0.765625,0.46875
1629456611875,0.484375,-0.765625,0.46875
1629456611906,0.46875,-0.765625,0.46875
1629456611937,0.46875,-0.765625,0.453125
1629456611968,0.453125,-0.765625,0.453125
1629456612000,0.46875,-0.765625,0.453125
1629456612031,0.46875,-0.765625,0.453125
1629456612062,0.46875,-0.765625,0.453125
1629456612093,0.46875,-0.765625,0.453125
1629456612125,0.484375,-0.765625,0.453125
1629456612156,0.484375,-0.765625,0.453125
1629456612187,0.46875,-0.765625,0.453125
1629456612218,0.484375,-0.765625,0.453125
1629456612250,0.46875,-0.765625,0.46875
1629456612281,0.46875,-0.765625,0.453125
1629456612312,0.46875,-0.765625,0.453125
1629456612343,0.46875,-0.765625,0.453125
1629456612375,0.46875,-0.765625,0.46875
1629456612406,0.46875,-0.765625,0.453125
1629456612437,0.46875,-0.765625,0.46875
1629456612468,0.46875,-0.765625,0.453125
1629456612500,0.46875,-0.765625,0.453125
1629456612531,0.46875,-0.765625,0.453125
1629456612562,0.484375,-0.765625,0.453125
1629456612593,0.46875,-0.765625,0.453125
1629456612625,0.46875,-0.765625,0.453125
1629456612656,0.46875,-0.765625,0.453125
1629456612687,0.46875,-0.765625,0.453125
1629456612718,0.46875,-0.765625,0.453125
1629456612750,0.46875,-0.765625,0.46875
1629456612781,0.46875,-0.765625,0.46875
1629456612812,0.46875,-0.765625,0.453125
1629456612843,0.46875,-0.765625,0.453125
1629456612875,0.46875,-0.765625,0.46875
1629456612906,0.46875,-0.765625,0.453125
1629456612937,0.46875,-0.765625,0.453125
1629456612968,0.46875,-0.765625,0.46875
1629456613000,0.46875,-0.765625,0.453125
1629456613031,0.46875,-0.765625,0.453125
1629456613062,0.46875,-0.765625,0.453125
1629456613093,0.46875,-0.765625,0.453125
1629456613125,0.46875,-0.765625,0.453125
1629456613156,0.46875,-0.765625,0.453125
1629456613187,0.46875,-0.765625,0.46875
1629456613218,0.46875,-0.765625,0.46875
1629456613250,0.46875,-0.765625,0.453125
1629456613281,0.46875,-0.765625,0.453125
1629456613312,0.46875,-0.765625,0.453125
1629456613343,0.46875,-0.765625,0.453125
1629456613375,0.46875,-0.765625,0.453125
1629456613406,0.46875,-0.765625,0.453125
1629456613437,0.46875,-0.765625,0.453125
1629456613468,0.46875,-0.765625,0.453125
1629456613500,0.46875,-0.765625,0.46875
1629456613531,0.46875,-0.765625,0.453125
1629456613562,0.46875,-0.765625,0.453125
1629456613593,0.46875,-0.765625,0.453125
1629456613625,0.46875,-0.765625,0.46875
1629456613656,0.46875,-0.765625,0.453125
1629456613687,0.46875,-0.765625,0.46875
1629456613718,0.46875,-0.765625,0.453125
1629456613750,0.46875,-0.765625,0.453125
1629456613781,0.453125,-0.765625,0.453125
1629456613812,0.46875,-0.765625,0.46875
1629456613843,0.46875,-0.765625,0.453125
1629456613875,0.46875,-0.765625,0.46875
1629456613906,0.46875,-0.765625,0.46875
1629456613937,0.453125,-0.765625,0.46875
1629456613968,0.46875,-0.765625,0.453125
1629456614000,0.46875,-0.765625,0.453125
1629456614031,0.46875,-0.765625,0.453125
1629456614062,0.46875,-0.765625,0.453125
1629456614093,0.46875,-0.765625,0.46875
1629456614125,0.46875,-0.765625,0.46875
1629456614156,0.46875,-0.765625,0.453125
1629456614187,0.46875,-0.765625,0.453125
1629456614218,0.46875,-0.765625,0.453125
1629456614250,0.46875,-0.765625,0.453125
1629456614281,0.453125,-0.765625,0.46875
1629456614312,0.46875,-0.765625,0.46875
1629456614343,0.46875,-0.765625,0.46875
1629456614375,0.46875,-0.765625,0.46875
1629456614406,0.46875,-0.765625,0.46875
1629456614437,0.46875,-0.765625,0.46875
1629456614468,0.46875,-0.765625,0.46875
1629456614500,0.46875,-0.78125,0.453125
1629456614531,0.46875,-0.765625,0.453125
1629456614562,0.453125,-0.765625,0.46875
1629456614593,0.46875,-0.765625,0.46875
1629456614625,0.46875,-0.765625,0.46875
1629456614656,0.46875,-0.765625,0.453125
1629456614687,0.453125,-0.765625,0.453125
1629456614718,0.46875,-0.765625,0.46875
1629456614750,0.46875,-0.765625,0.46875
1629456614781,0.453125,-0.765625,0.46875
1629456614812,0.453125,-0.765625,0.453125
1629456614843,0.453125,-0.765625,0.453125
1629456614875,0.46875,-0.765625,0.453125
1629456614906,0.46875,-0.765625,0.453125
1629456614937,0.46875,-0.765625,0.453125
1629456614968,0.453125,-0.765625,0.46875
1629456615000,0.453125,-0.765625,0.46875
1629456615031,0.46875,-0.765625,0.453125
1629456615062,0.46875,-0.765625,0.453125
1629456615093,0.46875,-0.765625,0.453125
1629456615125,0.453125,-0.765625,0.46875
1629456615156,0.46875,-0.765625,0.453125
1629456615187,0.46875,-0.765625,0.453125
1629456615218,0.46875,-0.765625,0.46875
1629456615250,0.46875,-0.765625,0.453125
1629456615281,0.453125,-0.765625,0.46875
1629456615312,0.46875,-0.765625,0.453125
1629456615343,0.46875,-0.765625,0.453125
1629456615375,0.453125,-0.765625,0.453125
1629456615406,0.46875,-0.765625,0.46875
1629456615437,0.46875,-0.765625,0.46875
1629456615468,0.453125,-0.765625,0.453125
1629456615500,0.453125,-0.765625,0.453125
1629456615531,0.46875,-0.78125,0.453125
1629456615562,0.46875,-0.765625,0.453125
1629456615593,0.453125,-0.765625,0.46875
1629456615625,0.46875,-0.765625,0.453125
1629456615656,0.46875,-0.765625,0.453125
1629456615687,0.453125,-0.765625,0.46875
1629456615718,0.46875,-0.765625,0.46875
1629456615750,0.46875,-0.765625,0.453125
1629456615781,0.46875,-0.765625,0.453125
1629456615812,0.46875,-0.765625,0.453125
1629456615843,0.453125,-0.765625,0.453125
1629456615875,0.46875,-0.765625,0.453125
1629456615906,0.46875,-0.765625,0.453125
1629456615937,0.46875,-0.765625,0.453125
1629456615968,0.453125,-0.765625,0.453125
1629456616000,0.46875,-0.765625,0.453125
1629456616031,0.46875,-0.765625,0.453125
1629456616062,0.46875,-0.765625,0.453125
1629456616093,0.46875,-0.765625,0.453125
1629456616125,0.453125,-0.765625,0.453125
1629456616156,0.46875,-0.765625,0.453125
1629456616187,0.46875,-0.765625,0.46875
1629456616218,0.453125,-0.765625,0.453125
1629456616250,0.46875,-0.765625,0.46875
1629456616281,0.46875,-0.765625,0.46875
1629456616312,0.453125,-0.765625,0.46875
1629456616343,0.453125,-0.765625,0.453125
1629456616375,0.46875,-0.765625,0.453125
1629456616406,0.453125,-0.765625,0.453125
1629456616437,0.46875,-0.765625,0.453125
1629456616468,0.453125,-0.765625,0.46875
1629456616500,0.46875,-0.765625,0.46875
1629456616531,0.46875,-0.765625,0.46875
1629456616562,0.46875,-0.765625,0.46875
1629456616593,0.46875,-0.765625,0.453125
1629456616625,0.46875,-0.765625,0.453125
1629456616656,0.453125,-0.765625,0.453125
1629456616687,0.453125,-0.765625,0.453125
1629456616718,0.453125,-0.765625,0.453125
1629456616750,0.46875,-0.78125,0.46875
1629456616781,0.46875,-0.765625,0.46875
1629456616812,0.453125,-0.765625,0.453125
1629456616843,0.46875,-0.765625,0.46875
1629456616875,0.46875,-0.78125,0.453125
1629456616906,0.46875,-0.78125,0.453125
1629456616937,0.46875,-0.765625,0.453125
1629456616968,0.453125,-0.765625,0.453125
1629456617000,0.46875,-0.765625,0.453125
1629456617031,0.46875,-0.765625,0.453125
1629456617062,0.46875,-0.765625,0.453125
1629456617093,0.46875,-0.765625,0.453125
1629456617125,0.453125,-0.765625,0.453125
1629456617156,0.46875,-0.765625,0.46875
1629456617187,0.46875,-0.765625,0.453125
1629456617218,0.46875,-0.765625,0.46875
1629456617250,0.46875,-0.765625,0.46875
1629456617281,0.453125,-0.765625,0.453125
1629456617312,0.453125,-0.78125,0.453125
1629456617343,0.46875,-0.78125,0.46875
1629456617375,0.453125,-0.765625,0.453125
1629456617406,0.453125,-0.765625,0.46875
1629456617437,0.453125,-0.765625,0.453125
1629456617468,0.46875,-0.765625,0.453125
1629456617500,0.46875,-0.765625,0.46875
1629456617531,0.453125,-0.765625,0.453125
1629456617562,0.46875,-0.765625,0.453125
1629456617593,0.453125,-0.765625,0.453125
1629456617625,0.46875,-0.765625,0.453125
1629456617656,0.453125,-0.765625,0.453125
1629456617687,0.453125,-0.765625,0.46875
1629456617718,0.453125,-0.765625,0.453125
1629456617750,0.46875,-0.765625,0.453125
1629456617781,0.453125,-0.765625,0.46875
1629456617812,0.453125,-0.765625,0.453125
1629456617843,0.453125,-0.765625,0.46875
1629456617875,0.453125,-0.765625,0.453125
1629456617906,0.453125,-0.765625,0.453125
1629456617937,0.453125,-0.765625,0.46875
1629456617968,0.453125,-0.765625,0.46875
1629456618000,0.453125,-0.765625,0.453125
1629456618031,0.46875,-0.78125,0.453125
1629456618062,0.46875,-0.765625,0.46875
1629456618093,0.453125,-0.765625,0.46875
1629456618125,0.46875,-0.765625,0.46875
1629456618156,0.46875,-0.765625,0.46875
1629456618187,0.453125,-0.765625,0.453125
1629456618218,0.453125,-0.765625,0.453125
1629456618250,0.453125,-0.765625,0.453125
1629456618281,0.453125,-0.765625,0.453125
1629456618312,0.453125,-0.765625,0.453125
1629456618343,0.484375,-0.765625,0.46875
1629456618375,0.484375,-0.78125,0.46875
1629456618406,0.46875,-0.765625,0.453125
1629456618437,0.46875,-0.765625,0.453125
1629456618468,0.46875,-0.765625,0.453125
1629456618500,0.46875,-0.765625,0.453125
1629456618531,0.46875,-0.78125,0.453125
1629456618562,0.46875,-0.765625,0.453125
1629456618593,0.46875,-0.765625,0.453125
1629456618625,0.46875,-0.765625,0.453125
1629456618656,0.46875,-0.765625,0.453125
1629456618687,0.46875,-0.765625,0.453125
1629456618718,0.46875,-0.765625,0.453125
1629456618750,0.46875,-0.765625,0.453125
1629456618781,0.46875,-0.765625,0.453125
1629456618812,0.46875,-0.765625,0.453125
1629456618843,0.46875,-0.765625,0.453125
1629456618875,0.46875,-0.765625,0.453125
1629456618906,0.46875,-0.765625,0.453125
1629456618937,0.46875,-0.765625,0.453125
1629456618968,0.46875,-0.765625,0.453125
1629456619000,0.453125,-0.765625,0.453125
1629456619031,0.46875,-0.765625,0.453125
1629456619062,0.46875,-0.765625,0.453125
1629456619093,0.46875,-0.78125,0.453125
1629456619125,0.46875,-0.765625,0.453125
1629456619156,0.46875,-0.765625,0.453125
1629456619187,0.46875,-0.765625,0.453125
1629456619218,0.46875,-0.765625,0.453125
1629456619250,0.46875,-0.765625,0.453125
1629456619281,0.46875,-0.765625,0.453125
1629456619312,0.453125,-0.765625,0.453125
1629456619343,0.46875,-0.765625,0.453125
1629456619375,0.46875,-0.765625,0.453125
1629456619406,0.46875,-0.765625,0.453125
1629456619437,0.453125,-0.765625,0.453125
1629456619468,0.453125,-0.765625,0.453125
1629456619500,0.453125,-0.765625,0.453125
1629456619531,0.46875,-0.765625,0.453125
1629456619562,0.46875,-0.765625,0.453125
1629456619593,0.46875,-0.765625,0.453125
1629456619625,0.453125,-0.765625,0.453125
1629456619656,0.46875,-0.765625,0.453125
1629456619687,0.453125,-0.765625,0.453125
1629456619718,0.46875,-0.765625,0.453125
1629456619750,0.453125,-0.765625,0.453125
1629456619781,0.46875,-0.765625,0.453125
1629456619812,0.46875,-0.765625,0.453125
1629456619843,0.46875,-0.765625,0.453125
1629456619875,0.46875,-0.765625,0.453125
1629456619906,0.46875,-0.765625,0.46875
1629456619937,0.46875,-0.78125,0.46875
1629456619968,0.453125,-0.765625,0.453125
1629456620000,0.453125,-0.765625,0.453125
1629456620031,0.46875,-0.765625,0.453125
1629456620062,0.453125,-0.765625,0.453125
1629456620093,0.453125,-0.765625,0.46875
1629456620125,0.46875,-0.78125,0.46875
1629456620156,0.453125,-0.765625,0.453125
1629456620187,0.46875,-0.765625,0.453125
1629456620218,0.46875,-0.78125,0.453125
1629456620250,0.453125,-0.765625,0.453125
1629456620281,0.453125,-0.765625,0.453125
1629456620312,0.453125,-0.765625,0.453125
1629456620343,0.46875,-0.78125,0.453125
1629456620375,0.46875,-0.765625,0.453125
1629456620406,0.46875,-0.78125,0.453125
1629456620437,0.453125,-0.78125,0.453125
1629456620468,0.453125,-0.765625,0.453125
1629456620500,0.46875,-0.78125,0.46875
1629456620531,0.46875,-0.765625,0.453125
1629456620562,0.453125,-0.78125,0.453125
1629456620593,0.453125,-0.78125,0.453125
1629456620625,0.453125,-0.765625,0.453125
1629456620656,0.46875,-0.78125,0.453125
1629456620687,0.46875,-0.78125,0.453125
1629456620718,0.453125,-0.765625,0.453125
1629456620750,0.453125,-0.765625,0.453125
1629456620781,0.46875,-0.765625,0.453125
1629456620812,0.46875,-0.78125,0.453125
1629456620843,0.46875,-0.765625,0.453125
1629456620875,0.453125,-0.765625,0.453125
1629456620906,0.453125,-0.765625,0.453125
1629456620937,0.46875,-0.78125,0.453125
1629456620968,0.46875,-0.765625,0.453125
1629456621000,0.453125,-0.78125,0.453125
1629456621031,0.46875,-0.78125,0.453125
1629456621062,0.46875,-0.78125,0.453125
1629456621093,0.453125,-0.765625,0.46875
1629456621125,0.46875,-0.78125,0.453125
1629456621156,0.46875,-0.78125,0.453125
1629456621187,0.46875,-0.765625,0.453125
1629456621218,0.46875,-0.765625,0.453125
1629456621250,0.453125,-0.765625,0.453125
1629456621281,0.453125,-0.78125,0.453125
1629456621312,0.453125,-0.78125,0.453125
1629456621343,0.453125,-0.78125,0.453125
1629456621375,0.453125,-0.78125,0.453125
1629456621406,0.46875,-0.78125,0.46875
1629456621437,0.453125,-0.765625,0.453125
1629456621468,0.453125,-0.765625,0.453125
1629456621500,0.453125,-0.765625,0.46875
1629456621531,0.46875,-0.765625,0.453125
1629456621562,0.453125,-0.78125,0.453125
1629456621593,0.453125,-0.765625,0.453125
1629456621625,0.46875,-0.78125,0.453125
1629456621656,0.46875,-0.78125,0.453125
1629456621687,0.453125,-0.78125,0.46875
1629456621718,0.46875,-0.765625,0.453125
1629456621750,0.46875,-0.765625,0.453125
1629456621781,0.46875,-0.765625,0.453125
1629456621812,0.453125,-0.78125,0.453125
1629456621843,0.453125,-0.78125,0.453125
1629456621875,0.46875,-0.78125,0.453125
1629456621906,0.46875,-0.78125,0.453125
1629456621937,0.46875,-0.78125,0.453125
1629456621968,0.46875,-0.765625,0.453125
1629456622000,0.46875,-0.765625,0.46875
1629456622031,0.453125,-0.765625,0.453125
1629456622062,0.453125,-0.765625,0.453125
1629456622093,0.46875,-0.78125,0.46875
1629456622125,0.46875,-0.78125,0.46875
1629456622156,0.46875,-0.78125,0.453125
1629456622187,0.453125,-0.765625,0.453125
1629456622218,0.46875,-0.765625,0.453125
1629456622250,0.453125,-0.765625,0.453125
1629456622281,0.46875,-0.78125,0.453125
1629456622312,0.46875,-0.78125,0.453125
1629456622343,0.46875,-0.78125,0.453125
1629456622375,0.46875,-0.765625,0.453125
1629456622406,0.453125,-0.765625,0.453125
1629456622437,0.46875,-0.78125,0.46875
1629456622468,0.46875,-0.78125,0.453125
1629456622500,0.453125,-0.765625,0.453125
1629456622531,0.46875,-0.765625,0.46875
1629456622562,0.453125,-0.765625,0.453125
1629456622593,0.46875,-0.765625,0.453125
1629456622625,0.46875,-0.78125,0.453125
1629456622656,0.453125,-0.765625,0.453125
1629456622687,0.453125,-0.765625,0.453125
1629456622718,0.453125,-0.765625,0.453125
1629456622750,0.46875,-0.78125,0.453125
1629456622781,0.46875,-0.78125,0.453125
1629456622812,0.46875,-0.78125,0.453125
1629456622843,0.453125,-0.765625,0.453125
1629456622875,0.453125,-0.78125,0.453125
1629456622906,0.46875,-0.765625,0.453125
1629456622937,0.46875,-0.765625,0.453125
1629456622968,0.46875,-0.78125,0.453125
1629456623000,0.46875,-0.78125,0.453125
1629456623031,0.46875,-0.78125,0.453125
1629456623062,0.453125,-0.78125,0.453125
1629456623093,0.46875,-0.765625,0.453125
1629456623125,0.453125,-0.765625,0.453125
1629456623156,0.453125,-0.765625,0.453125
1629456623187,0.453125,-0.765625,0.453125
1629456623218,0.46875,-0.765625,0.453125
1629456623250,0.46875,-0.78125,0.453125
1629456623281,0.453125,-0.765625,0.453125
1629456623312,0.453125,-0.765625,0.453125
1629456623343,0.46875,-0.765625,0.453125
1629456623375,0.46875,-0.78125,0.453125
1629456623406,0.46875,-0.78125,0.453125
1629456623437,0.46875,-0.765625,0.453125
1629456623468,0.453125,-0.765625,0.453125
1629456623500,0.453125,-0.765625,0.453125
1629456623531,0.453125,-0.78125,0.453125
1629456623562,0.46875,-0.78125,0.453125
1629456623593,0.453125,-0.765625,0.453125
1629456623625,0.453125,-0.765625,0.453125
1629456623656,0.453125,-0.78125,0.453125
1629456623687,0.46875,-0.78125,0.453125
1629456623718,0.453125,-0.78125,0.453125
1629456623750,0.46875,-0.78125,0.453125
1629456623781,0.453125,-0.765625,0.453125
1629456623812,0.453125,-0.765625,0.46875
1629456623843,0.46875,-0.765625,0.453125
1629456623875,0.46875,-0.765625,0.453125
1629456623906,0.46875,-0.78125,0.453125
1629456623937,0.453125,-0.78125,0.453125
1629456623968,0.453125,-0.765625,0.453125
1629456624000,0.46875,-0.765625,0.453125
1629456624031,0.46875,-0.765625,0.453125
1629456624062,0.46875,-0.78125,0.453125
1629456624093,0.453125,-0.765625,0.453125
1629456624125,0.453125,-0.765625,0.453125
1629456624156,0.46875,-0.78125,0.453125
1629456624187,0.46875,-0.78125,0.46875
1629456624218,0.46875,-0.78125,0.453125
1629456624250,0.453125,-0.78125,0.453125
1629456624281,0.46875,-0.78125,0.453125
1629456624312,0.453125,-0.765625,0.453125
1629456624343,0.453125,-0.78125,0.453125
1629456624375,0.453125,-0.765625,0.46875
1629456624406,0.46875,-0.78125,0.453125
1629456624437,0.453125,-0.78125,0.453125
1629456624468,0.453125,-0.78125,0.453125
1629456624500,0.453125,-0.78125,0.453125
1629456624531,0.453125,-0.78125,0.453125
1629456624562,0.46875,-0.78125,0.453125
1629456624593,0.453125,-0.765625,0.453125
1629456624625,0.46875,-0.78125,0.453125
1629456624656,0.46875,-0.78125,0.453125
1629456624687,0.453125,-0.78125,0.453125
1629456624718,0.453125,-0.78125,0.453125
1629456624750,0.453125,-0.78125,0.453125
1629456624781,0.453125,-0.78125,0.453125
1629456624812,0.46875,-0.765625,0.453125
1629456624843,0.46875,-0.78125,0.453125
1629456624875,0.46875,-0.78125,0.453125
1629456624906,0.453125,-0.78125,0.453125
1629456624937,0.453125,-0.765625,0.453125
1629456624968,0.453125,-0.78125,0.453125
1629456625000,0.453125,-0.765625,0.453125
1629456625031,0.46875,-0.78125,0.453125
1629456625062,0.46875,-0.78125,0.453125
1629456625093,0.46875,-0.765625,0.453125
1629456625125,0.453125,-0.765625,0.453125
1629456625156,0.46875,-0.78125,0.453125
1629456625187,0.46875,-0.78125,0.453125
1629456625218,0.453125,-0.765625,0.453125
1629456625250,0.46875,-0.765625,0.453125
1629456625281,0.453125,-0.78125,0.453125
1629456625312,0.453125,-0.765625,0.453125
1629456625343,0.46875,-0.78125,0.453125
1629456625375,0.453125,-0.78125,0.46875
1629456625406,0.453125,-0.78125,0.453125
1629456625437,0.46875,-0.78125,0.453125
1629456625468,0.46875,-0.78125,0.453125
1629456625500,0.46875,-0.765625,0.453125
1629456625531,0.453125,-0.78125,0.453125
1629456625562,0.46875,-0.78125,0.453125
1629456625593,0.453125,-0.78125,0.453125
1629456625625,0.46875,-0.765625,0.453125
1629456625656,0.453125,-0.78125,0.453125
1629456625687,0.453125,-0.78125,0.453125
1629456625718,0.453125,-0.78125,0.453125
1629456625750,0.46875,-0.78125,0.453125
1629456625781,0.453125,-0.765625,0.453125
1629456625812,0.46875,-0.765625,0.453125
1629456625843,0.453125,-0.78125,0.453125
1629456625875,0.46875,-0.78125,0.453125
1629456625906,0.46875,-0.765625,0.453125
1629456625937,0.46875,-0.78125,0.453125
1629456625968,0.46875,-0.78125,0.453125
1629456626000,0.453125,-0.765625,0.453125
1629456626031,0.453125,-0.78125,0.453125
1629456626062,0.46875,-0.765625,0.453125
1629456626093,0.46875,-0.78125,0.453125
1629456626125,0.453125,-0.78125,0.46875
1629456626156,0.453125,-0.765625,0.453125
1629456626187,0.46875,-0.78125,0.453125
1629456626218,0.46875,-0.78125,0.453125
1629456626250,0.453125,-0.765625,0.453125
1629456626281,0.453125,-0.765625,0.453125
1629456626312,0.46875,-0.78125,0.453125
1629456626343,0.453125,-0.765625,0.453125
1629456626375,0.453125,-0.78125,0.453125
1629456626406,0.453125,-0.78125,0.453125
1629456626437,0.453125,-0.78125,0.453125
1629456626468,0.46875,-0.765625,0.453125
1629456626500,0.453125,-0.78125,0.453125
1629456626531,0.453125,-0.78125,0.453125
1629456626562,0.46875,-0.78125,0.453125
1629456626593,0.46875,-0.78125,0.453125
1629456626625,0.453125,-0.78125,0.453125
1629456626656,0.453125,-0.765625,0.453125
1629456626687,0.453125,-0.765625,0.453125
1629456626718,0.46875,-0.78125,0.453125
1629456626750,0.46875,-0.78125,0.453125
1629456626781,0.46875,-0.78125,0.453125
1629456626812,0.46875,-0.765625,0.46875
1629456626843,0.453125,-0.78125,0.453125
1629456626875,0.453125,-0.765625,0.453125
1629456626906,0.46875,-0.78125,0.453125
1629456626937,0.46875,-0.78125,0.453125
1629456626968,0.453125,-0.765625,0.453125
1629456627000,0.453125,-0.78125,0.453125
1629456627031,0.453125,-0.78125,0.453125
1629456627062,0.46875,-0.78125,0.453125
1629456627093,0.46875,-0.78125,0.453125
1629456627125,0.453125,-0.78125,0.453125
1629456627156,0.453125,-0.765625,0.453125
1629456627187,0.46875,-0.78125,0.453125
1629456627218,0.453125,-0.78125,0.453125
1629456627250,0.453125,-0.765625,0.453125
1629456627281,0.453125,-0.765625,0.46875
1629456627312,0.453125,-0.78125,0.453125
1629456627343,0.453125,-0.78125,0.453125
1629456627375,0.5,-0.78125,0.46875
1629456627406,0.515625,-0.765625,0.453125
1629456627437,0.484375,-0.78125,0.4375
1629456627468,0.453125,-0.75,0.421875
1629456627500,0.453125,-0.78125,0.4375
1629456627531,0.453125,-0.796875,0.421875
1629456627562,0.46875,-0.78125,0.4375
1629456627593,0.5,-0.78125,0.453125
1629456627625,0.5,-0.78125,0.453125
1629456627656,0.46875,-0.765625,0.46875
1629456627687,0.46875,-0.765625,0.46875
1629456627718,0.453125,-0.78125,0.453125
1629456627750,0.4375,-0.78125,0.4375
1629456627781,0.46875,-0.78125,0.4375
1629456627812,0.453125,-0.78125,0.4375
1629456627843,0.5,-0.78125,0.453125
1629456627875,0.5,-0.78125,0.453125
1629456627906,0.46875,-0.765625,0.4375
1629456627937,0.453125,-0.765625,0.4375
1629456627968,0.453125,-0.765625,0.453125
1629456628000,0.453125,-0.78125,0.453125
1629456628031,0.46875,-0.78125,0.453125
1629456628062,0.46875,-0.78125,0.453125
1629456628093,0.46875,-0.765625,0.46875
1629456628125,0.46875,-0.78125,0.453125
1629456628156,0.453125,-0.78125,0.453125
1629456628187,0.5,-0.78125,0.4375
1629456628218,0.5,-0.78125,0.453125
1629456628250,0.453125,-0.765625,0.453125
1629456628281,0.453125,-0.765625,0.453125
1629456628312,0.46875,-0.765625,0.453125
1629456628343,0.484375,-0.78125,0.453125
1629456628375,0.46875,-0.78125,0.4375
1629456628406,0.46875,-0.78125,0.453125
1629456628437,0.46875,-0.78125,0.46875
1629456628468,0.453125,-0.78125,0.453125
1629456628500,0.453125,-0.78125,0.4375
1629456628531,0.453125,-0.78125,0.4375
1629456628562,0.453125,-0.765625,0.453125
1629456628593,0.484375,-0.78125,0.453125
1629456628625,0.484375,-0.78125,0.453125
1629456628656,0.46875,-0.765625,0.453125
1629456628687,0.46875,-0.78125,0.453125
1629456628718,0.46875,-0.78125,0.453125
1629456628750,0.46875,-0.78125,0.453125
1629456628781,0.484375,-0.765625,0.453125
1629456628812,0.46875,-0.78125,0.453125
1629456628843,0.453125,-0.78125,0.4375
1629456628875,0.46875,-0.765625,0.4375
1629456628906,0.46875,-0.78125,0.453125
1629456628937,0.46875,-0.765625,0.453125
1629456628968,0.46875,-0.765625,0.453125
1629456629000,0.453125,-0.78125,0.453125
1629456629031,0.453125,-0.78125,0.453125
1629456629062,0.46875,-0.765625,0.453125
1629456629093,0.484375,-0.765625,0.453125
1629456629125,0.484375,-0.78125,0.453125
1629456629156,0.453125,-0.765625,0.4375
1629456629187,0.4375,-0.78125,0.4375
1629456629218,0.453125,-0.78125,0.453125
1629456629250,0.453125,-0.78125,0.453125
1629456629281,0.453125,-0.765625,0.4375
1629456629312,0.484375,-0.765625,0.453125
1629456629343,0.5,-0.765625,0.453125
1629456629375,0.484375,-0.765625,0.453125
1629456629406,0.453125,-0.78125,0.453125
1629456629437,0.453125,-0.78125,0.453125
1629456629468,0.46875,-0.78125,0.453125
1629456629500,0.453125,-0.78125,0.453125
1629456629531,0.453125,-0.78125,0.453125
1629456629562,0.46875,-0.765625,0.453125
1629456629593,0.46875,-0.78125,0.453125
1629456629625,0.46875,-0.78125,0.453125
1629456629656,0.46875,-0.765625,0.453125
1629456629687,0.46875,-0.78125,0.4375
1629456629718,0.46875,-0.78125,0.4375
1629456629750,0.46875,-0.765625,0.453125
1629456629781,0.46875,-0.78125,0.453125
1629456629812,0.46875,-0.78125,0.453125
1629456629843,0.484375,-0.78125,0.453125
1629456629875,0.453125,-0.765625,0.453125
1629456629906,0.4375,-0.765625,0.46875
1629456629937,0.46875,-0.78125,0.46875
1629456629968,0.453125,-0.765625,0.453125
1629456630000,0.453125,-0.78125,0.453125
1629456630031,0.46875,-0.78125,0.453125
1629456630062,0.46875,-0.78125,0.453125
1629456630093,0.453125,-0.765625,0.453125
1629456630125,0.46875,-0.78125,0.4375
1629456630156,0.46875,-0.765625,0.453125
1629456630187,0.46875,-0.78125,0.453125
1629456630218,0.453125,-0.765625,0.453125
1629456630250,0.46875,-0.765625,0.453125
1629456630281,0.46875,-0.78125,0.453125
1629456630312,0.46875,-0.78125,0.453125
1629456630343,0.46875,-0.765625,0.453125
1629456630375,0.46875,-0.765625,0.453125
1629456630406,0.453125,-0.78125,0.453125
1629456630437,0.46875,-0.78125,0.453125
1629456630468,0.484375,-0.78125,0.453125
1629456630500,0.484375,-0.765625,0.453125
1629456630531,0.46875,-0.765625,0.453125
1629456630562,0.46875,-0.765625,0.453125
1629456630593,0.46875,-0.765625,0.453125
1629456630625,0.46875,-0.765625,0.4375
1629456630656,0.46875,-0.765625,0.453125
1629456630687,0.484375,-0.78125,0.453125
1629456630718,0.46875,-0.765625,0.453125
1629456630750,0.46875,-0.765625,0.453125
1629456630781,0.46875,-0.78125,0.453125
1629456630812,0.484375,-0.78125,0.453125
1629456630843,0.46875,-0.765625,0.453125
1629456630875,0.46875,-0.765625,0.453125
1629456630906,0.46875,-0.765625,0.453125
1629456630937,0.46875,-0.78125,0.453125
1629456630968,0.46875,-0.765625,0.453125
1629456631000,0.46875,-0.765625,0.453125
1629456631031,0.46875,-0.765625,0.453125
1629456631062,0.46875,-0.78125,0.453125
1629456631093,0.46875,-0.765625,0.453125
1629456631125,0.46875,-0.78125,0.453125
1629456631156,0.46875,-0.78125,0.453125
1629456631187,0.46875,-0.765625,0.453125
1629456631218,0.46875,-0.765625,0.453125
1629456631250,0.46875,-0.765625,0.453125
1629456631281,0.46875,-0.765625,0.453125
1629456631312,0.46875,-0.765625,0.453125
1629456631343,0.484375,-0.765625,0.453125
1629456631375,0.46875,-0.765625,0.453125
1629456631406,0.46875,-0.78125,0.453125
1629456631437,0.46875,-0.78125,0.453125
1629456631468,0.46875,-0.78125,0.453125
1629456631500,0.46875,-0.78125,0.453125
1629456631531,0.453125,-0.765625,0.453125
1629456631562,0.46875,-0.78125,0.453125
1629456631593,0.453125,-0.765625,0.453125
1629456631625,0.453125,-0.78125,0.453125
1629456631656,0.46875,-0.78125,0.453125
1629456631687,0.515625,-0.78125,0.4375
1629456631718,0.515625,-0.765625,0.4375
1629456631750,0.515625,-0.765625,0.421875
1629456631781,0.453125,-0.765625,0.4375
1629456631812,0.453125,-0.765625,0.4375
1629456631843,0.46875,-0.78125,0.46875
1629456631875,0.484375,-0.78125,0.453125
1629456631906,0.453125,-0.78125,0.4375
1629456631937,0.4375,-0.78125,0.46875
1629456631968,0.453125,-0.78125,0.46875
1629456632000,0.453125,-0.78125,0.453125
1629456632031,0.4375,-0.765625,0.453125
1629456632062,0.453125,-0.78125,0.453125
1629456632093,0.46875,-0.78125,0.453125
1629456632125,0.46875,-0.765625,0.4375
1629456632156,0.484375,-0.78125,0.4375
1629456632187,0.484375,-0.78125,0.4375
1629456632218,0.484375,-0.78125,0.4375
1629456632250,0.46875,-0.78125,0.4375
1629456632281,0.46875,-0.78125,0.453125
1629456632312,0.453125,-0.78125,0.453125
1629456632343,0.46875,-0.78125,0.453125
1629456632375,0.453125,-0.78125,0.46875
1629456632406,0.453125,-0.78125,0.46875
1629456632437,0.453125,-0.78125,0.453125
1629456632468,0.453125,-0.78125,0.453125
1629456632500,0.46875,-0.78125,0.453125
1629456632531,0.46875,-0.78125,0.453125
1629456632562,0.46875,-0.765625,0.453125
1629456632593,0.46875,-0.78125,0.453125
1629456632625,0.46875,-0.78125,0.4375
1629456632656,0.46875,-0.765625,0.4375
1629456632687,0.46875,-0.78125,0.4375
1629456632718,0.46875,-0.78125,0.453125
1629456632750,0.46875,-0.78125,0.453125
1629456632781,0.46875,-0.78125,0.453125
1629456632812,0.484375,-0.78125,0.453125
1629456632843,0.453125,-0.78125,0.453125
1629456632875,0.453125,-0.765625,0.453125
1629456632906,0.453125,-0.78125,0.453125
1629456632937,0.453125,-0.78125,0.453125
1629456632968,0.453125,-0.78125,0.453125
1629456633000,0.46875,-0.78125,0.453125
1629456633031,0.46875,-0.78125,0.453125
1629456633062,0.46875,-0.78125,0.453125
1629456633093,0.46875,-0.78125,0.453125
1629456633125,0.46875,-0.78125,0.453125
1629456633156,0.46875,-0.78125,0.453125
1629456633187,0.46875,-0.78125,0.453125
1629456633218,0.453125,-0.765625,0.453125
1629456633250,0.453125,-0.78125,0.453125
1629456633281,0.46875,-0.78125,0.453125
1629456633312,0.453125,-0.78125,0.453125
1629456633343,0.453125,-0.78125,0.453125
1629456633375,0.46875,-0.78125,0.453125
1629456633406,0.453125,-0.78125,0.453125
1629456633437,0.453125,-0.78125,0.453125
1629456633468,0.46875,-0.78125,0.453125
1629456633500,0.46875,-0.78125,0.453125
1629456633531,0.484375,-0.78125,0.453125
1629456633562,0.453125,-0.78125,0.453125
1629456633593,0.453125,-0.78125,0.453125
1629456633625,0.46875,-0.78125,0.453125
1629456633656,0.46875,-0.78125,0.453125
1629456633687,0.4375,-0.78125,0.453125
1629456633718,0.453125,-0.78125,0.453125
1629456633750,0.453125,-0.765625,0.453125
1629456633781,0.46875,-0.78125,0.453125
1629456633812,0.46875,-0.78125,0.453125
1629456633843,0.453125,-0.78125,0.453125
1629456633875,0.46875,-0.765625,0.453125
1629456633906,0.46875,-0.78125,0.453125
1629456633937,0.46875,-0.78125,0.453125
1629456633968,0.46875,-0.765625,0.453125
1629456634000,0.46875,-0.78125,0.453125
1629456634031,0.453125,-0.78125,0.453125
1629456634062,0.46875,-0.78125,0.453125
1629456634093,0.453125,-0.78125,0.453125
1629456634125,0.46875,-0.78125,0.453125
1629456634156,0.484375,-0.78125,0.453125
1629456634187,0.46875,-0.765625,0.453125
1629456634218,0.46875,-0.78125,0.453125
1629456634250,0.46875,-0.78125,0.453125
1629456634281,0.46875,-0.78125,0.453125
1629456634312,0.46875,-0.78125,0.4375
1629456634343,0.453125,-0.78125,0.453125
1629456634375,0.453125,-0.78125,0.453125
1629456634406,0.46875,-0.78125,0.453125
1629456634437,0.46875,-0.78125,0.453125
1629456634468,0.46875,-0.78125,0.453125
1629456634500,0.46875,-0.78125,0.4375
1629456634531,0.46875,-0.78125,0.453125
1629456634562,0.46875,-0.78125,0.453125
1629456634593,0.46875,-0.78125,0.453125
1629456634625,0.46875,-0.78125,0.453125
1629456634656,0.453125,-0.78125,0.453125
1629456634687,0.46875,-0.78125,0.453125
1629456634718,0.46875,-0.78125,0.453125
1629456634750,0.46875,-0.78125,0.453125
1629456634781,0.46875,-0.78125,0.453125
1629456634812,0.46875,-0.765625,0.453125
1629456634843,0.453125,-0.78125,0.453125
1629456634875,0.46875,-0.78125,0.453125
1629456634906,0.46875,-0.78125,0.453125
1629456634937,0.46875,-0.78125,0.453125
1629456634968,0.453125,-0.765625,0.453125
1629456635000,0.46875,-0.78125,0.453125
1629456635031,0.46875,-0.78125,0.453125
1629456635062,0.46875,-0.78125,0.453125
1629456635093,0.46875,-0.78125,0.453125
1629456635125,0.46875,-0.78125,0.453125
1629456635156,0.46875,-0.78125,0.453125
1629456635187,0.453125,-0.78125,0.453125
1629456635218,0.453125,-0.78125,0.453125
1629456635250,0.46875,-0.78125,0.453125
1629456635281,0.453125,-0.78125,0.4375
1629456635312,0.46875,-0.78125,0.453125
1629456635343,0.46875,-0.78125,0.453125
1629456635375,0.453125,-0.78125,0.453125
1629456635406,0.46875,-0.78125,0.453125
1629456635437,0.453125,-0.78125,0.453125
1629456635468,0.46875,-0.78125,0.453125
1629456635500,0.46875,-0.78125,0.453125
1629456635531,0.453125,-0.78125,0.453125
1629456635562,0.453125,-0.78125,0.453125
1629456635593,0.46875,-0.78125,0.453125
1629456635625,0.46875,-0.78125,0.453125
1629456635656,0.453125,-0.765625,0.453125
1629456635687,0.46875,-0.78125,0.453125
1629456635718,0.46875,-0.78125,0.453125
1629456635750,0.453125,-0.78125,0.453125
1629456635781,0.453125,-0.78125,0.453125
1629456635812,0.46875,-0.78125,0.453125
1629456635843,0.453125,-0.78125,0.453125
1629456635875,0.453125,-0.78125,0.453125
1629456635906,0.453125,-0.78125,0.453125
1629456635937,0.46875,-0.78125,0.453125
1629456635968,0.453125,-0.78125,0.453125
1629456636000,0.46875,-0.78125,0.453125
1629456636031,0.46875,-0.78125,0.453125
1629456636062,0.46875,-0.765625,0.453125
1629456636093,0.46875,-0.765625,0.453125
1629456636125,0.46875,-0.78125,0.453125
1629456636156,0.453125,-0.78125,0.453125
1629456636187,0.453125,-0.765625,0.453125
1629456636218,0.46875,-0.78125,0.453125
1629456636250,0.46875,-0.78125,0.453125
1629456636281,0.46875,-0.78125,0.46875
1629456636312,0.46875,-0.78125,0.46875
1629456636343,0.453125,-0.78125,0.453125
1629456636375,0.46875,-0.78125,0.453125
1629456636406,0.46875,-0.78125,0.453125
1629456636437,0.46875,-0.78125,0.453125
1629456636468,0.46875,-0.78125,0.453125
1629456636500,0.46875,-0.78125,0.453125
1629456636531,0.484375,-0.78125,0.4375
1629456636562,0.46875,-0.78125,0.453125
1629456636593,0.46875,-0.78125,0.453125
1629456636625,0.46875,-0.78125,0.453125
1629456636656,0.46875,-0.78125,0.453125
1629456636687,0.46875,-0.78125,0.4375
1629456636718,0.46875,-0.78125,0.4375
1629456636750,0.46875,-0.78125,0.453125
1629456636781,0.453125,-0.765625,0.4375
1629456636812,0.46875,-0.78125,0.453125
1629456636843,0.46875,-0.78125,0.453125
1629456636875,0.46875,-0.78125,0.453125
1629456636906,0.46875,-0.78125,0.453125
1629456636937,0.46875,-0.78125,0.453125
1629456636968,0.46875,-0.78125,0.4375
1629456637000,0.46875,-0.78125,0.453125
1629456637031,0.46875,-0.78125,0.4375
1629456637062,0.46875,-0.78125,0.453125
1629456637093,0.46875,-0.78125,0.453125
1629456637125,0.46875,-0.78125,0.4375
1629456637156,0.46875,-0.78125,0.453125
1629456637187,0.46875,-0.78125,0.453125
1629456637218,0.46875,-0.78125,0.453125
1629456637250,0.46875,-0.78125,0.453125
1629456637281,0.46875,-0.78125,0.453125
1629456637312,0.46875,-0.78125,0.453125
1629456637343,0.46875,-0.78125,0.453125
1629456637375,0.46875,-0.78125,0.453125
1629456637406,0.46875,-0.78125,0.453125
1629456637437,0.46875,-0.78125,0.453125
1629456637468,0.46875,-0.78125,0.453125
1629456637500,0.453125,-0.78125,0.4375
1629456637531,0.453125,-0.78125,0.453125
1629456637562,0.46875,-0.78125,0.453125
1629456637593,0.46875,-0.78125,0.453125
1629456637625,0.46875,-0.78125,0.453125
1629456637656,0.46875,-0.765625,0.453125
1629456637687,0.46875,-0.78125,0.453125
1629456637718,0.46875,-0.78125,0.453125
1629456637750,0.46875,-0.78125,0.453125
1629456637781,0.46875,-0.78125,0.453125
1629456637812,0.46875,-0.765625,0.453125
1629456637843,0.46875,-0.78125,0.4375
1629456637875,0.46875,-0.78125,0.453125
1629456637906,0.46875,-0.78125,0.453125
1629456637937,0.46875,-0.78125,0.453125
1629456637968,0.46875,-0.78125,0.453125
1629456638000,0.46875,-0.78125,0.4375
1629456638031,0.484375,-0.78125,0.453125
1629456638062,0.46875,-0.78125,0.4375
1629456638093,0.46875,-0.78125,0.453125
1629456638125,0.46875,-0.78125,0.453125
1629456638156,0.46875,-0.78125,0.453125
1629456638187,0.484375,-0.78125,0.453125
1629456638218,0.46875,-0.78125,0.453125
1629456638250,0.453125,-0.765625,0.4375
1629456638281,0.46875,-0.78125,0.453125
1629456638312,0.453125,-0.765625,0.453125
1629456638343,0.46875,-0.78125,0.453125
1629456638375,0.46875,-0.78125,0.453125
1629456638406,0.46875,-0.78125,0.453125
1629456638437,0.46875,-0.78125,0.453125
1629456638468,0.46875,-0.78125,0.453125
1629456638500,0.46875,-0.78125,0.453125
1629456638531,0.46875,-0.78125,0.453125
1629456638562,0.46875,-0.78125,0.453125
1629456638593,0.453125,-0.78125,0.453125
1629456638625,0.46875,-0.78125,0.453125
1629456638656,0.46875,-0.78125,0.453125
1629456638687,0.46875,-0.78125,0.453125
1629456638718,0.46875,-0.78125,0.453125
1629456638750,0.46875,-0.78125,0.453125
1629456638781,0.46875,-0.78125,0.453125
1629456638812,0.46875,-0.78125,0.453125
1629456638843,0.46875,-0.78125,0.453125
1629456638875,0.46875,-0.78125,0.453125
1629456638906,0.46875,-0.78125,0.453125
1629456638937,0.46875,-0.78125,0.453125
1629456638968,0.453125,-0.78125,0.453125
1629456639000,0.453125,-0.78125,0.453125
1629456639031,0.453125,-0.78125,0.453125
1629456639062,0.46875,-0.78125,0.453125
1629456639093,0.453125,-0.78125,0.4375
1629456639125,0.46875,-0.78125,0.4375
1629456639156,0.515625,-0.78125,0.4375
1629456639187,0.5,-0.765625,0.453125
1629456639218,0.46875,-0.78125,0.4375
1629456639250,0.453125,-0.78125,0.4375
1629456639281,0.46875,-0.78125,0.453125
1629456639312,0.46875,-0.78125,0.453125
1629456639343,0.46875,-0.78125,0.453125
1629456639375,0.453125,-0.78125,0.453125
1629456639406,0.4375,-0.78125,0.453125
1629456639437,0.4375,-0.78125,0.453125
1629456639468,0.453125,-0.78125,0.453125
1629456639500,0.453125,-0.78125,0.453125
1629456639531,0.453125,-0.78125,0.453125
1629456639562,0.453125,-0.78125,0.4375
1629456639593,0.453125,-0.78125,0.4375
1629456639625,0.484375,-0.78125,0.4375
1629456639656,0.484375,-0.78125,0.4375
1629456639687,0.453125,-0.78125,0.453125
1629456639718,0.46875,-0.78125,0.453125
1629456639750,0.46875,-0.78125,0.453125
1629456639781,0.453125,-0.78125,0.453125
1629456639812,0.453125,-0.765625,0.453125
1629456639843,0.453125,-0.78125,0.46875
1629456639875,0.453125,-0.78125,0.453125
1629456639906,0.46875,-0.78125,0.453125
1629456639937,0.453125,-0.78125,0.453125
1629456639968,0.453125,-0.78125,0.453125
1629456640000,0.453125,-0.78125,0.453125
1629456640031,0.46875,-0.78125,0.453125
1629456640062,0.46875,-0.78125,0.4375
1629456640093,0.46875,-0.78125,0.453125
1629456640125,0.453125,-0.78125,0.453125
1629456640156,0.46875,-0.78125,0.453125
1629456640187,0.46875,-0.78125,0.453125
1629456640218,0.46875,-0.78125,0.453125
1629456640250,0.453125,-0.78125,0.453125
1629456640281,0.453125,-0.78125,0.453125
1629456640312,0.453125,-0.78125,0.453125
1629456640343,0.46875,-0.78125,0.453125
1629456640375,0.46875,-0.78125,0.453125
1629456640406,0.46875,-0.78125,0.453125
1629456640437,0.46875,-0.78125,0.453125
1629456640468,0.46875,-0.78125,0.4375
1629456640500,0.46875,-0.78125,0.4375
1629456640531,0.46875,-0.78125,0.4375
1629456640562,0.46875,-0.78125,0.453125
1629456640593,0.46875,-0.78125,0.453125
1629456640625,0.453125,-0.78125,0.4375
1629456640656,0.46875,-0.78125,0.453125
1629456640687,0.46875,-0.78125,0.453125
1629456640718,0.46875,-0.78125,0.453125
1629456640750,0.453125,-0.765625,0.453125
1629456640781,0.46875,-0.78125,0.453125
1629456640812,0.46875,-0.78125,0.453125
1629456640843,0.453125,-0.78125,0.453125
1629456640875,0.453125,-0.78125,0.453125
1629456640906,0.46875,-0.78125,0.453125
1629456640937,0.46875,-0.78125,0.453125
1629456640968,0.453125,-0.78125,0.453125
1629456641000,0.46875,-0.78125,0.453125
1629456641031,0.46875,-0.78125,0.453125
1629456641062,0.453125,-0.78125,0.453125
1629456641093,0.453125,-0.78125,0.453125
1629456641125,0.453125,-0.78125,0.453125
1629456641156,0.46875,-0.78125,0.453125
1629456641187,0.46875,-0.78125,0.453125
1629456641218,0.46875,-0.78125,0.453125
1629456641250,0.46875,-0.78125,0.453125
1629456641281,0.453125,-0.78125,0.453125
1629456641312,0.453125,-0.78125,0.453125
1629456641343,0.46875,-0.78125,0.453125
1629456641375,0.46875,-0.78125,0.453125
1629456641406,0.453125,-0.78125,0.453125
1629456641437,0.453125,-0.78125,0.453125
1629456641468,0.453125,-0.78125,0.4375
1629456641500,0.46875,-0.78125,0.453125
1629456641531,0.453125,-0.78125,0.453125
1629456641562,0.46875,-0.78125,0.453125
1629456641593,0.46875,-0.78125,0.453125
1629456641625,0.46875,-0.78125,0.453125
1629456641656,0.46875,-0.78125,0.453125
1629456641687,0.453125,-0.78125,0.453125
1629456641718,0.453125,-0.78125,0.453125
1629456641750,0.453125,-0.78125,0.453125
1629456641781,0.46875,-0.78125,0.453125
1629456641812,0.46875,-0.78125,0.453125
1629456641843,0.453125,-0.78125,0.453125
1629456641875,0.453125,-0.78125,0.453125
1629456641906,0.453125,-0.78125,0.453125
1629456641937,0.453125,-0.78125,0.453125
1629456641968,0.453125,-0.78125,0.453125
1629456642000,0.453125,-0.78125,0.453125
1629456642031,0.453125,-0.78125,0.453125
1629456642062,0.46875,-0.78125,0.453125
1629456642093,0.453125,-0.78125,0.453125
1629456642125,0.453125,-0.78125,0.453125
1629456642156,0.46875,-0.78125,0.453125
1629456642187,0.46875,-0.78125,0.453125
1629456642218,0.453125,-0.78125,0.453125
1629456642250,0.453125,-0.78125,0.453125
1629456642281,0.46875,-0.78125,0.453125
1629456642312,0.453125,-0.78125,0.4375
1629456642343,0.453125,-0.78125,0.453125
1629456642375,0.453125,-0.78125,0.453125
1629456642406,0.46875,-0.78125,0.453125
1629456642437,0.453125,-0.78125,0.453125
1629456642468,0.453125,-0.78125,0.453125
1629456642500,0.46875,-0.78125,0.453125
1629456642531,0.453125,-0.78125,0.453125
1629456642562,0.453125,-0.78125,0.453125
1629456642593,0.46875,-0.78125,0.453125
1629456642625,0.46875,-0.78125,0.453125
1629456642656,0.46875,-0.78125,0.453125
1629456642687,0.453125,-0.78125,0.453125
1629456642718,0.46875,-0.78125,0.453125
1629456642750,0.46875,-0.78125,0.453125
1629456642781,0.46875,-0.78125,0.453125
1629456642812,0.453125,-0.78125,0.453125
1629456642843,0.453125,-0.78125,0.453125
1629456642875,0.453125,-0.78125,0.453125
1629456642906,0.46875,-0.78125,0.453125
1629456642937,0.46875,-0.78125,0.453125
1629456642968,0.46875,-0.78125,0.453125
1629456643000,0.453125,-0.78125,0.453125
1629456643031,0.453125,-0.78125,0.453125
1629456643062,0.453125,-0.78125,0.453125
1629456643093,0.453125,-0.78125,0.4375
1629456643125,0.453125,-0.78125,0.453125
1629456643156,0.46875,-0.78125,0.453125
1629456643187,0.46875,-0.78125,0.453125
1629456643218,0.46875,-0.78125,0.453125
1629456643250,0.46875,-0.78125,0.453125
1629456643281,0.46875,-0.765625,0.453125
1629456643312,0.453125,-0.78125,0.453125
1629456643343,0.46875,-0.78125,0.453125
1629456643375,0.46875,-0.78125,0.4375
1629456643406,0.46875,-0.78125,0.4375
1629456643437,0.46875,-0.78125,0.453125
1629456643468,0.453125,-0.78125,0.453125
1629456643500,0.46875,-0.78125,0.453125
1629456643531,0.46875,-0.78125,0.453125
1629456643562,0.46875,-0.78125,0.453125
1629456643593,0.46875,-0.78125,0.453125
1629456643625,0.453125,-0.78125,0.453125
1629456643656,0.453125,-0.78125,0.4375
1629456643687,0.46875,-0.78125,0.453125
1629456643718,0.46875,-0.78125,0.453125
1629456643750,0.453125,-0.78125,0.453125
1629456643781,0.46875,-0.78125,0.453125
1629456643812,0.46875,-0.78125,0.453125
1629456643843,0.46875,-0.78125,0.453125
1629456643875,0.453125,-0.78125,0.4375
1629456643906,0.46875,-0.78125,0.453125
1629456643937,0.46875,-0.78125,0.453125
1629456643968,0.453125,-0.78125,0.453125
1629456644000,0.46875,-0.78125,0.453125
1629456644031,0.46875,-0.78125,0.453125
1629456644062,0.46875,-0.78125,0.453125
1629456644093,0.46875,-0.78125,0.453125
1629456644125,0.453125,-0.78125,0.453125
1629456644156,0.46875,-0.78125,0.453125
1629456644187,0.453125,-0.78125,0.4375
1629456644218,0.46875,-0.78125,0.453125
1629456644250,0.453125,-0.78125,0.453125
1629456644281,0.46875,-0.78125,0.453125
1629456644312,0.46875,-0.78125,0.453125
1629456644343,0.46875,-0.78125,0.453125
1629456644375,0.46875,-0.78125,0.453125
1629456644406,0.453125,-0.78125,0.453125
1629456644437,0.453125,-0.78125,0.453125
1629456644468,0.453125,-0.78125,0.453125
1629456644500,0.46875,-0.78125,0.453125
1629456644531,0.46875,-0.78125,0.453125
1629456644562,0.453125,-0.78125,0.453125
1629456644593,0.453125,-0.78125,0.453125
1629456644625,0.453125,-0.78125,0.453125
1629456644656,0.46875,-0.78125,0.453125
1629456644687,0.453125,-0.78125,0.453125
1629456644718,0.453125,-0.78125,0.453125
1629456644750,0.453125,-0.78125,0.453125
1629456644781,0.453125,-0.78125,0.453125
1629456644812,0.453125,-0.78125,0.453125
1629456644843,0.453125,-0.78125,0.453125
1629456644875,0.453125,-0.78125,0.453125
1629456644906,0.46875,-0.78125,0.453125
1629456644937,0.453125,-0.78125,0.453125
1629456644968,0.453125,-0.78125,0.453125
1629456645000,0.453125,-0.78125,0.453125
1629456645031,0.453125,-0.78125,0.453125
1629456645062,0.453125,-0.78125,0.453125
1629456645093,0.453125,-0.78125,0.453125
1629456645125,0.453125,-0.78125,0.453125
1629456645156,0.46875,-0.78125,0.453125
1629456645187,0.453125,-0.78125,0.453125
1629456645218,0.46875,-0.78125,0.453125
1629456645250,0.46875,-0.78125,0.453125
1629456645281,0.453125,-0.78125,0.453125
1629456645312,0.453125,-0.78125,0.453125
1629456645343,0.453125,-0.78125,0.453125
1629456645375,0.453125,-0.78125,0.453125
1629456645406,0.46875,-0.78125,0.453125
1629456645437,0.46875,-0.78125,0.453125
1629456645468,0.46875,-0.78125,0.453125
1629456645500,0.46875,-0.78125,0.453125
1629456645531,0.453125,-0.78125,0.4375
1629456645562,0.46875,-0.78125,0.453125
1629456645593,0.453125,-0.78125,0.453125
1629456645625,0.453125,-0.78125,0.453125
1629456645656,0.453125,-0.78125,0.453125
1629456645687,0.46875,-0.78125,0.453125
1629456645718,0.46875,-0.78125,0.453125
1629456645750,0.46875,-0.78125,0.453125
1629456645781,0.453125,-0.78125,0.453125
1629456645812,0.46875,-0.78125,0.453125
1629456645843,0.46875,-0.78125,0.4375
1629456645875,0.46875,-0.78125,0.4375
1629456645906,0.453125,-0.78125,0.453125
1629456645937,0.453125,-0.78125,0.453125
1629456645968,0.46875,-0.78125,0.453125
1629456646000,0.46875,-0.78125,0.453125
1629456646031,0.453125,-0.78125,0.4375
1629456646062,0.46875,-0.78125,0.4375
1629456646093,0.46875,-0.78125,0.453125
1629456646125,0.453125,-0.78125,0.4375
1629456646156,0.453125,-0.78125,0.4375
1629456646187,0.46875,-0.78125,0.453125
1629456646218,0.46875,-0.78125,0.453125
1629456646250,0.46875,-0.78125,0.453125
1629456646281,0.46875,-0.78125,0.453125
1629456646312,0.46875,-0.78125,0.453125
1629456646343,0.453125,-0.78125,0.453125
1629456646375,0.46875,-0.78125,0.453125
1629456646406,0.46875,-0.78125,0.453125
1629456646437,0.46875,-0.78125,0.453125
1629456646468,0.453125,-0.78125,0.453125
1629456646500,0.453125,-0.78125,0.453125
1629456646531,0.453125,-0.78125,0.453125
1629456646562,0.46875,-0.78125,0.453125
1629456646593,0.453125,-0.78125,0.453125
1629456646625,0.453125,-0.78125,0.453125
1629456646656,0.46875,-0.78125,0.453125
1629456646687,0.453125,-0.78125,0.453125
1629456646718,0.46875,-0.78125,0.453125
1629456646750,0.453125,-0.78125,0.4375
1629456646781,0.46875,-0.78125,0.453125
1629456646812,0.453125,-0.78125,0.453125
1629456646843,0.46875,-0.78125,0.453125
1629456646875,0.46875,-0.78125,0.453125
1629456646906,0.453125,-0.78125,0.453125
1629456646937,0.453125,-0.78125,0.453125
1629456646968,0.453125,-0.78125,0.453125
1629456647000,0.46875,-0.78125,0.453125
1629456647031,0.46875,-0.78125,0.453125
1629456647062,0.46875,-0.78125,0.453125
1629456647093,0.453125,-0.78125,0.453125
1629456647125,0.453125,-0.78125,0.453125
1629456647156,0.46875,-0.78125,0.453125
1629456647187,0.46875,-0.78125,0.453125
1629456647218,0.453125,-0.78125,0.453125
1629456647250,0.46875,-0.78125,0.453125
1629456647281,0.453125,-0.78125,0.453125
1629456647312,0.453125,-0.78125,0.453125
1629456647343,0.46875,-0.78125,0.453125
1629456647375,0.453125,-0.78125,0.453125
1629456647406,0.453125,-0.78125,0.453125
1629456647437,0.453125,-0.78125,0.453125
1629456647468,0.46875,-0.78125,0.453125
1629456647500,0.46875,-0.78125,0.453125
1629456647531,0.453125,-0.78125,0.4375
1629456647562,0.46875,-0.78125,0.453125
1629456647593,0.46875,-0.78125,0.453125
1629456647625,0.46875,-0.78125,0.453125
1629456647656,0.453125,-0.78125,0.453125
1629456647687,0.453125,-0.78125,0.453125
1629456647718,0.46875,-0.78125,0.453125
1629456647750,0.453125,-0.78125,0.4375
1629456647781,0.46875,-0.78125,0.453125
1629456647812,0.453125,-0.78125,0.453125
1629456647843,0.453125,-0.78125,0.453125
1629456647875,0.46875,-0.78125,0.453125
1629456647906,0.46875,-0.78125,0.453125
1629456647937,0.453125,-0.78125,0.453125
1629456647968,0.453125,-0.78125,0.453125
1629456648000,0.453125,-0.78125,0.453125
1629456648031,0.453125,-0.78125,0.453125
1629456648062,0.453125,-0.78125,0.453125
1629456648093,0.46875,-0.78125,0.453125
1629456648125,0.453125,-0.78125,0.453125
1629456648156,0.453125,-0.78125,0.453125
1629456648187,0.453125,-0.78125,0.453125
1629456648218,0.46875,-0.78125,0.453125
1629456648250,0.453125,-0.78125,0.453125
1629456648281,0.453125,-0.78125,0.453125
1629456648312,0.453125,-0.78125,0.453125
1629456648343,0.46875,-0.78125,0.4375
1629456648375,0.453125,-0.78125,0.453125
1629456648406,0.453125,-0.78125,0.453125
1629456648437,0.46875,-0.78125,0.453125
1629456648468,0.46875,-0.78125,0.453125
1629456648500,0.453125,-0.78125,0.453125
1629456648531,0.453125,-0.78125,0.453125
1629456648562,0.453125,-0.78125,0.453125
1629456648593,0.453125,-0.78125,0.453125
1629456648625,0.453125,-0.78125,0.453125
1629456648656,0.453125,-0.78125,0.453125
1629456648687,0.46875,-0.78125,0.453125
1629456648718,0.453125,-0.78125,0.453125
1629456648750,0.453125,-0.78125,0.453125
1629456648781,0.453125,-0.78125,0.453125
1629456648812,0.453125,-0.78125,0.453125
1629456648843,0.453125,-0.78125,0.453125
1629456648875,0.46875,-0.78125,0.453125
1629456648906,0.453125,-0.78125,0.453125
1629456648937,0.453125,-0.78125,0.453125
1629456648968,0.453125,-0.78125,0.453125
1629456649000,0.453125,-0.78125,0.453125
1629456649031,0.453125,-0.78125,0.453125
1629456649062,0.46875,-0.78125,0.453125
1629456649093,0.46875,-0.78125,0.453125
1629456649125,0.453125,-0.78125,0.453125
1629456649156,0.46875,-0.78125,0.453125
1629456649187,0.46875,-0.78125,0.453125
1629456649218,0.453125,-0.78125,0.453125
1629456649250,0.453125,-0.78125,0.453125
1629456649281,0.453125,-0.78125,0.453125
1629456649312,0.453125,-0.78125,0.453125
1629456649343,0.453125,-0.78125,0.453125
1629456649375,0.46875,-0.78125,0.453125
1629456649406,0.453125,-0.78125,0.453125
1629456649437,0.453125,-0.78125,0.453125
1629456649468,0.453125,-0.78125,0.453125
1629456649500,0.46875,-0.78125,0.453125
1629456649531,0.453125,-0.78125,0.4375
1629456649562,0.453125,-0.78125,0.453125
1629456649593,0.46875,-0.78125,0.453125
1629456649625,0.46875,-0.78125,0.453125
1629456649656,0.46875,-0.78125,0.453125
1629456649687,0.453125,-0.78125,0.453125
1629456649718,0.453125,-0.78125,0.453125
1629456649750,0.453125,-0.78125,0.453125
1629456649781,0.46875,-0.78125,0.453125
1629456649812,0.453125,-0.78125,0.453125
1629456649843,0.46875,-0.78125,0.453125
1629456649875,0.453125,-0.78125,0.453125
1629456649906,0.453125,-0.78125,0.453125
1629456649937,0.453125,-0.78125,0.453125
1629456649968,0.46875,-0.78125,0.453125
1629456650000,0.46875,-0.78125,0.453125
1629456650031,0.46875,-0.78125,0.453125
1629456650062,0.453125,-0.78125,0.453125
1629456650093,0.453125,-0.78125,0.453125
1629456650125,0.46875,-0.78125,0.453125
1629456650156,0.46875,-0.78125,0.4375
1629456650187,0.453125,-0.78125,0.453125
1629456650218,0.453125,-0.78125,0.453125
1629456650250,0.46875,-0.78125,0.4375
1629456650281,0.46875,-0.78125,0.453125
1629456650312,0.46875,-0.78125,0.453125
1629456650343,0.46875,-0.78125,0.453125
1629456650375,0.453125,-0.78125,0.4375
1629456650406,0.46875,-0.78125,0.453125
1629456650437,0.46875,-0.78125,0.4375
1629456650468,0.453125,-0.78125,0.453125
1629456650500,0.46875,-0.78125,0.453125
1629456650531,0.453125,-0.78125,0.453125
1629456650562,0.46875,-0.78125,0.453125
1629456650593,0.46875,-0.78125,0.453125
1629456650625,0.453125,-0.78125,0.453125
1629456650656,0.46875,-0.78125,0.453125
1629456650687,0.46875,-0.78125,0.453125
1629456650718,0.453125,-0.78125,0.453125
1629456650750,0.453125,-0.78125,0.453125
1629456650781,0.453125,-0.78125,0.453125
1629456650812,0.46875,-0.78125,0.453125
1629456650843,0.453125,-0.78125,0.453125
1629456650875,0.46875,-0.78125,0.453125
1629456650906,0.46875,-0.78125,0.453125
1629456650937,0.453125,-0.78125,0.453125
1629456650968,0.453125,-0.78125,0.453125
1629456651000,0.46875,-0.78125,0.453125
1629456651031,0.46875,-0.78125,0.453125
1629456651062,0.453125,-0.78125,0.453125
1629456651093,0.453125,-0.78125,0.453125
1629456651125,0.453125,-0.78125,0.453125
1629456651156,0.46875,-0.78125,0.453125
1629456651187,0.46875,-0.78125,0.453125
1629456651218,0.453125,-0.78125,0.453125
1629456651250,0.46875,-0.78125,0.453125
1629456651281,0.453125,-0.78125,0.453125
1629456651312,0.453125,-0.78125,0.453125
1629456651343,0.453125,-0.78125,0.453125
1629456651375,0.453125,-0.78125,0.453125
1629456651406,0.453125,-0.78125,0.453125
1629456651437,0.453125,-0.78125,0.453125
1629456651468,0.453125,-0.78125,0.453125
1629456651500,0.46875,-0.78125,0.453125
1629456651531,0.453125,-0.78125,0.453125
1629456651562,0.46875,-0.78125,0.453125
1629456651593,0.453125,-0.78125,0.453125
1629456651625,0.453125,-0.78125,0.453125
1629456651656,0.453125,-0.78125,0.453125
1629456651687,0.453125,-0.78125,0.453125
1629456651718,0.453125,-0.78125,0.453125
1629456651750,0.453125,-0.78125,0.453125
1629456651781,0.46875,-0.78125,0.453125
1629456651812,0.46875,-0.78125,0.453125
1629456651843,0.453125,-0.78125,0.453125
1629456651875,0.453125,-0.78125,0.453125
1629456651906,0.453125,-0.78125,0.453125
1629456651937,0.453125,-0.78125,0.453125
1629456651968,0.46875,-0.78125,0.453125
1629456652000,0.453125,-0.78125,0.453125
1629456652031,0.453125,-0.78125,0.453125
1629456652062,0.453125,-0.78125,0.453125
1629456652093,0.453125,-0.78125,0.453125
1629456652125,0.453125,-0.78125,0.453125
1629456652156,0.453125,-0.78125,0.453125
1629456652187,0.453125,-0.78125,0.453125
1629456652218,0.453125,-0.78125,0.453125
1629456652250,0.453125,-0.78125,0.453125
1629456652281,0.453125,-0.78125,0.453125
1629456652312,0.453125,-0.78125,0.453125
1629456652343,0.46875,-0.78125,0.453125
1629456652375,0.453125,-0.78125,0.453125
1629456652406,0.453125,-0.78125,0.453125
1629456652437,0.46875,-0.78125,0.453125
1629456652468,0.46875,-0.78125,0.453125
1629456652500,0.453125,-0.78125,0.453125
1629456652531,0.453125,-0.78125,0.453125
1629456652562,0.453125,-0.78125,0.453125
1629456652593,0.453125,-0.78125,0.453125
1629456652625,0.453125,-0.78125,0.453125
1629456652656,0.46875,-0.78125,0.453125
1629456652687,0.453125,-0.78125,0.453125
1629456652718,0.453125,-0.78125,0.453125
1629456652750,0.453125,-0.78125,0.453125
1629456652781,0.453125,-0.78125,0.453125
1629456652812,0.453125,-0.78125,0.453125
1629456652843,0.453125,-0.78125,0.453125
1629456652875,0.453125,-0.78125,0.453125
1629456652906,0.453125,-0.78125,0.453125
1629456652937,0.453125,-0.78125,0.453125
1629456652968,0.453125,-0.78125,0.453125
1629456653000,0.453125,-0.78125,0.453125
1629456653031,0.453125,-0.78125,0.453125
1629456653062,0.46875,-0.78125,0.453125
1629456653093,0.46875,-0.78125,0.453125
1629456653125,0.453125,-0.78125,0.453125
1629456653156,0.453125,-0.78125,0.453125
1629456653187,0.453125,-0.78125,0.453125
1629456653218,0.46875,-0.78125,0.453125
1629456653250,0.46875,-0.78125,0.453125
1629456653281,0.453125,-0.78125,0.453125
1629456653312,0.453125,-0.78125,0.453125
1629456653343,0.453125,-0.78125,0.453125
1629456653375,0.453125,-0.78125,0.453125
1629456653406,0.46875,-0.78125,0.453125
1629456653437,0.46875,-0.78125,0.453125
1629456653468,0.46875,-0.78125,0.453125
1629456653500,0.453125,-0.78125,0.453125
1629456653531,0.46875,-0.78125,0.453125
1629456653562,0.46875,-0.78125,0.453125
1629456653593,0.453125,-0.78125,0.453125
1629456653625,0.46875,-0.78125,0.453125
1629456653656,0.46875,-0.78125,0.453125
1629456653687,0.453125,-0.78125,0.4375
1629456653718,0.46875,-0.78125,0.453125
1629456653750,0.46875,-0.78125,0.453125
1629456653781,0.46875,-0.78125,0.453125
1629456653812,0.46875,-0.78125,0.4375
1629456653843,0.46875,-0.765625,0.453125
1629456653875,0.46875,-0.78125,0.453125
1629456653906,0.46875,-0.78125,0.4375
1629456653937,0.46875,-0.78125,0.4375
1629456653968,0.46875,-0.78125,0.453125
1629456654000,0.46875,-0.78125,0.453125
1629456654031,0.46875,-0.78125,0.453125
1629456654062,0.46875,-0.78125,0.4375
1629456654093,0.46875,-0.78125,0.453125
1629456654125,0.46875,-0.78125,0.4375
1629456654156,0.46875,-0.78125,0.4375
1629456654187,0.46875,-0.78125,0.4375
1629456654218,0.46875,-0.78125,0.453125
1629456654250,0.484375,-0.78125,0.4375
1629456654281,0.46875,-0.78125,0.453125
1629456654312,0.46875,-0.78125,0.4375
1629456654343,0.46875,-0.78125,0.453125
1629456654375,0.46875,-0.78125,0.453125
1629456654406,0.453125,-0.78125,0.453125
1629456654437,0.453125,-0.78125,0.453125
1629456654468,0.46875,-0.78125,0.453125
1629456654500,0.46875,-0.78125,0.4375
1629456654531,0.46875,-0.78125,0.453125
1629456654562,0.46875,-0.78125,0.453125
1629456654593,0.453125,-0.78125,0.4375
1629456654625,0.46875,-0.78125,0.4375
1629456654656,0.46875,-0.78125,0.453125
1629456654687,0.46875,-0.78125,0.4375
1629456654718,0.453125,-0.78125,0.453125
1629456654750,0.46875,-0.78125,0.453125
1629456654781,0.46875,-0.78125,0.453125
1629456654812,0.453125,-0.78125,0.453125
1629456654843,0.46875,-0.78125,0.453125
1629456654875,0.453125,-0.78125,0.453125
1629456654906,0.453125,-0.78125,0.4375
1629456654937,0.453125,-0.78125,0.4375
1629456654968,0.46875,-0.78125,0.453125
1629456655000,0.453125,-0.78125,0.453125
1629456655031,0.46875,-0.78125,0.4375
1629456655062,0.46875,-0.78125,0.453125
1629456655093,0.46875,-0.78125,0.453125
1629456655125,0.453125,-0.78125,0.453125
1629456655156,0.453125,-0.78125,0.453125
1629456655187,0.46875,-0.78125,0.453125
1629456655218,0.453125,-0.78125,0.453125
1629456655250,0.453125,-0.78125,0.453125
1629456655281,0.453125,-0.78125,0.453125
1629456655312,0.453125,-0.78125,0.453125
1629456655343,0.46875,-0.78125,0.453125
1629456655375,0.46875,-0.78125,0.453125
1629456655406,0.453125,-0.78125,0.453125
1629456655437,0.453125,-0.78125,0.453125
1629456655468,0.453125,-0.78125,0.453125
1629456655500,0.46875,-0.78125,0.453125
1629456655531,0.453125,-0.78125,0.453125
1629456655562,0.46875,-0.78125,0.453125
1629456655593,0.46875,-0.78125,0.453125
1629456655625,0.46875,-0.78125,0.453125
1629456655656,0.453125,-0.78125,0.453125
1629456655687,0.453125,-0.78125,0.453125
1629456655718,0.453125,-0.78125,0.453125
1629456655750,0.46875,-0.78125,0.453125
1629456655781,0.453125,-0.78125,0.453125
1629456655812,0.453125,-0.78125,0.453125
1629456655843,0.453125,-0.78125,0.453125
1629456655875,0.453125,-0.78125,0.453125
1629456655906,0.46875,-0.78125,0.453125
1629456655937,0.46875,-0.78125,0.453125
1629456655968,0.453125,-0.78125,0.453125
1629456656000,0.453125,-0.78125,0.453125
1629456656031,0.453125,-0.78125,0.453125
1629456656062,0.453125,-0.78125,0.453125
1629456656093,0.46875,-0.78125,0.453125
1629456656125,0.453125,-0.78125,0.453125
1629456656156,0.453125,-0.78125,0.453125
1629456656187,0.46875,-0.78125,0.453125
1629456656218,0.46875,-0.78125,0.453125
1629456656250,0.46875,-0.78125,0.453125
1629456656281,0.453125,-0.78125,0.453125
1629456656312,0.453125,-0.78125,0.453125
1629456656343,0.453125,-0.78125,0.4375
1629456656375,0.453125,-0.78125,0.453125
1629456656406,0.484375,-0.78125,0.453125
1629456656437,0.453125,-0.78125,0.453125
1629456656468,0.453125,-0.78125,0.453125
1629456656500,0.453125,-0.78125,0.453125
1629456656531,0.46875,-0.78125,0.4375
1629456656562,0.46875,-0.78125,0.453125
1629456656593,0.453125,-0.78125,0.453125
1629456656625,0.453125,-0.78125,0.453125
1629456656656,0.46875,-0.78125,0.453125
1629456656687,0.453125,-0.78125,0.453125
1629456656718,0.453125,-0.78125,0.453125
1629456656750,0.46875,-0.78125,0.453125
1629456656781,0.46875,-0.78125,0.453125
1629456656812,0.453125,-0.78125,0.453125
1629456656843,0.46875,-0.78125,0.453125
1629456656875,0.46875,-0.78125,0.453125
1629456656906,0.453125,-0.78125,0.453125
1629456656937,0.453125,-0.78125,0.453125
1629456656968,0.453125,-0.78125,0.453125
1629456657000,0.453125,-0.78125,0.453125
1629456657031,0.453125,-0.78125,0.453125
1629456657062,0.46875,-0.78125,0.453125
1629456657093,0.46875,-0.78125,0.453125
1629456657125,0.46875,-0.78125,0.453125
1629456657156,0.453125,-0.78125,0.4375
1629456657187,0.453125,-0.78125,0.453125
1629456657218,0.46875,-0.78125,0.453125
1629456657250,0.453125,-0.78125,0.453125
1629456657281,0.453125,-0.78125,0.453125
1629456657312,0.46875,-0.78125,0.453125
1629456657343,0.46875,-0.78125,0.4375
1629456657375,0.46875,-0.78125,0.453125
1629456657406,0.46875,-0.78125,0.453125
1629456657437,0.46875,-0.78125,0.453125
1629456657468,0.46875,-0.78125,0.4375
1629456657500,0.453125,-0.78125,0.4375
1629456657531,0.453125,-0.78125,0.4375
1629456657562,0.46875,-0.78125,0.453125
1629456657593,0.46875,-0.78125,0.4375
1629456657625,0.484375,-0.78125,0.453125
1629456657656,0.46875,-0.78125,0.453125
1629456657687,0.46875,-0.78125,0.453125
1629456657718,0.46875,-0.78125,0.4375
1629456657750,0.46875,-0.78125,0.4375
1629456657781,0.46875,-0.78125,0.4375
1629456657812,0.46875,-0.78125,0.4375
1629456657843,0.46875,-0.78125,0.4375
1629456657875,0.46875,-0.78125,0.453125
1629456657906,0.46875,-0.78125,0.4375
1629456657937,0.46875,-0.78125,0.4375
1629456657968,0.46875,-0.78125,0.4375
1629456658000,0.46875,-0.78125,0.4375
1629456658031,0.46875,-0.78125,0.453125
1629456658062,0.46875,-0.78125,0.4375
1629456658093,0.46875,-0.78125,0.4375
1629456658125,0.46875,-0.78125,0.453125
1629456658156,0.46875,-0.78125,0.453125
1629456658187,0.46875,-0.78125,0.4375
1629456658218,0.46875,-0.78125,0.453125
1629456658250,0.46875,-0.78125,0.4375
1629456658281,0.46875,-0.78125,0.453125
1629456658312,0.46875,-0.78125,0.4375
1629456658343,0.453125,-0.78125,0.4375
1629456658375,0.46875,-0.78125,0.4375
1629456658406,0.46875,-0.78125,0.453125
1629456658437,0.46875,-0.78125,0.453125
1629456658468,0.453125,-0.78125,0.453125
1629456658500,0.46875,-0.78125,0.453125
1629456658531,0.46875,-0.78125,0.453125
1629456658562,0.453125,-0.78125,0.453125
1629456658593,0.46875,-0.78125,0.453125
1629456658625,0.46875,-0.78125,0.453125
1629456658656,0.46875,-0.78125,0.4375
1629456658687,0.46875,-0.78125,0.453125
1629456658718,0.46875,-0.78125,0.453125
1629456658750,0.46875,-0.78125,0.453125
1629456658781,0.46875,-0.78125,0.453125
1629456658812,0.46875,-0.78125,0.453125
1629456658843,0.46875,-0.78125,0.453125
1629456658875,0.46875,-0.78125,0.453125
1629456658906,0.453125,-0.78125,0.4375
1629456658937,0.453125,-0.78125,0.453125
1629456658968,0.46875,-0.78125,0.453125
1629456659000,0.453125,-0.78125,0.4375
1629456659031,0.453125,-0.78125,0.453125
1629456659062,0.46875,-0.78125,0.4375
1629456659093,0.46875,-0.78125,0.453125
1629456659125,0.46875,-0.78125,0.453125
1629456659156,0.46875,-0.78125,0.453125
1629456659187,0.46875,-0.78125,0.453125
1629456659218,0.453125,-0.78125,0.4375
1629456659250,0.46875,-0.78125,0.453125
1629456659281,0.46875,-0.78125,0.453125
1629456659312,0.46875,-0.78125,0.4375
1629456659343,0.46875,-0.78125,0.4375
1629456659375,0.46875,-0.78125,0.453125
1629456659406,0.453125,-0.78125,0.4375
1629456659437,0.46875,-0.78125,0.453125
1629456659468,0.46875,-0.78125,0.453125
1629456659500,0.46875,-0.78125,0.453125
1629456659531,0.453125,-0.78125,0.453125
1629456659562,0.453125,-0.78125,0.453125
1629456659593,0.46875,-0.78125,0.453125
1629456659625,0.46875,-0.78125,0.453125
1629456659656,0.46875,-0.78125,0.453125
1629456659687,0.453125,-0.78125,0.453125
1629456659718,0.46875,-0.78125,0.453125
1629456659750,0.46875,-0.78125,0.453125
1629456659781,0.46875,-0.78125,0.4375
1629456659812,0.453125,-0.78125,0.453125
1629456659843,0.453125,-0.78125,0.453125
1629456659875,0.453125,-0.78125,0.453125
1629456659906,0.453125,-0.78125,0.453125
1629456659937,0.46875,-0.78125,0.453125
1629456659968,0.46875,-0.78125,0.453125
1629456660000,0.46875,-0.78125,0.453125
1629456660031,0.453125,-0.78125,0.4375
1629456660062,0.453125,-0.78125,0.453125
1629456660093,0.453125,-0.78125,0.453125
1629456660125,0.46875,-0.78125,0.453125
1629456660156,0.46875,-0.78125,0.453125
1629456660187,0.453125,-0.78125,0.4375
1629456660218,0.453125,-0.78125,0.453125
1629456660250,0.453125,-0.78125,0.4375
1629456660281,0.46875,-0.78125,0.453125
1629456660312,0.46875,-0.78125,0.453125
1629456660343,0.453125,-0.78125,0.453125
1629456660375,0.453125,-0.78125,0.453125
1629456660406,0.46875,-0.78125,0.453125
1629456660437,0.453125,-0.78125,0.453125
1629456660468,0.453125,-0.78125,0.453125
1629456660500,0.453125,-0.78125,0.453125
1629456660531,0.453125,-0.78125,0.453125
1629456660562,0.46875,-0.78125,0.453125
1629456660593,0.453125,-0.78125,0.453125
1629456660625,0.46875,-0.78125,0.453125
1629456660656,0.453125,-0.78125,0.453125
1629456660687,0.453125,-0.78125,0.453125
1629456660718,0.46875,-0.78125,0.453125
1629456660750,0.453125,-0.78125,0.453125
1629456660781,0.46875,-0.78125,0.453125
1629456660812,0.453125,-0.78125,0.453125
1629456660843,0.46875,-0.78125,0.453125
1629456660875,0.46875,-0.78125,0.453125
1629456660906,0.453125,-0.78125,0.453125
1629456660937,0.453125,-0.78125,0.453125
1629456660968,0.453125,-0.78125,0.453125
1629456661000,0.46875,-0.78125,0.453125
1629456661031,0.46875,-0.78125,0.453125
1629456661062,0.453125,-0.78125,0.453125
1629456661093,0.453125,-0.78125,0.453125
1629456661125,0.46875,-0.78125,0.453125
1629456661156,0.453125,-0.78125,0.453125
1629456661187,0.46875,-0.78125,0.453125
1629456661218,0.453125,-0.78125,0.453125
1629456661250,0.453125,-0.78125,0.453125
1629456661281,0.453125,-0.78125,0.453125
1629456661312,0.453125,-0.78125,0.453125
1629456661343,0.46875,-0.78125,0.453125
1629456661375,0.453125,-0.78125,0.453125
1629456661406,0.453125,-0.78125,0.453125
1629456661437,0.453125,-0.78125,0.453125
1629456661468,0.46875,-0.78125,0.4375
1629456661500,0.46875,-0.78125,0.453125
1629456661531,0.453125,-0.78125,0.453125
1629456661562,0.453125,-0.78125,0.453125
1629456661593,0.453125,-0.78125,0.4375
1629456661625,0.46875,-0.78125,0.453125
1629456661656,0.453125,-0.78125,0.453125
1629456661687,0.46875,-0.78125,0.453125
1629456661718,0.46875,-0.78125,0.453125
1629456661750,0.46875,-0.78125,0.453125
1629456661781,0.46875,-0.78125,0.453125
1629456661812,0.46875,-0.78125,0.453125
1629456661843,0.453125,-0.78125,0.4375
1629456661875,0.453125,-0.78125,0.4375
1629456661906,0.46875,-0.78125,0.453125
1629456661937,0.453125,-0.78125,0.4375
1629456661968,0.46875,-0.78125,0.453125
1629456662000,0.46875,-0.78125,0.4375
1629456662031,0.46875,-0.78125,0.453125
1629456662062,0.46875,-0.78125,0.453125
1629456662093,0.46875,-0.78125,0.453125
1629456662125,0.453125,-0.78125,0.453125
1629456662156,0.46875,-0.78125,0.453125
1629456662187,0.46875,-0.78125,0.453125
1629456662218,0.46875,-0.78125,0.4375
1629456662250,0.46875,-0.78125,0.4375
1629456662281,0.46875,-0.78125,0.4375
1629456662312,0.46875,-0.78125,0.4375
1629456662343,0.46875,-0.78125,0.4375
1629456662375,0.46875,-0.78125,0.4375
1629456662406,0.46875,-0.78125,0.4375
1629456662437,0.46875,-0.78125,0.4375
1629456662468,0.46875,-0.78125,0.4375
1629456662500,0.484375,-0.78125,0.4375
1629456662531,0.46875,-0.78125,0.4375
1629456662562,0.46875,-0.78125,0.4375
1629456662593,0.46875,-0.78125,0.4375
1629456662625,0.46875,-0.78125,0.4375
1629456662656,0.484375,-0.78125,0.4375
1629456662687,0.46875,-0.78125,0.4375
1629456662718,0.46875,-0.765625,0.4375
1629456662750,0.46875,-0.78125,0.4375
1629456662781,0.46875,-0.78125,0.4375
1629456662812,0.484375,-0.78125,0.4375
1629456662843,0.46875,-0.78125,0.4375
1629456662875,0.46875,-0.78125,0.4375
1629456662906,0.46875,-0.78125,0.4375
1629456662937,0.46875,-0.78125,0.4375
1629456662968,0.46875,-0.78125,0.4375
1629456663000,0.46875,-0.78125,0.4375
1629456663031,0.46875,-0.78125,0.453125
1629456663062,0.46875,-0.78125,0.4375
1629456663093,0.46875,-0.78125,0.4375
1629456663125,0.46875,-0.78125,0.4375
1629456663156,0.46875,-0.78125,0.453125
1629456663187,0.46875,-0.78125,0.4375
1629456663218,0.46875,-0.78125,0.453125
1629456663250,0.46875,-0.78125,0.4375
1629456663281,0.46875,-0.78125,0.4375
1629456663312,0.46875,-0.78125,0.4375
1629456663343,0.46875,-0.78125,0.4375
1629456663375,0.46875,-0.78125,0.4375
1629456663406,0.46875,-0.78125,0.4375
1629456663437,0.46875,-0.78125,0.4375
1629456663468,0.46875,-0.78125,0.4375
1629456663500,0.46875,-0.78125,0.4375
1629456663531,0.46875,-0.78125,0.4375
1629456663562,0.46875,-0.78125,0.4375
1629456663593,0.46875,-0.78125,0.4375
1629456663625,0.46875,-0.78125,0.453125
1629456663656,0.46875,-0.78125,0.453125
1629456663687,0.46875,-0.78125,0.453125
1629456663718,0.46875,-0.78125,0.453125
1629456663750,0.46875,-0.78125,0.453125
1629456663781,0.453125,-0.78125,0.4375
1629456663812,0.46875,-0.78125,0.453125
1629456663843,0.46875,-0.78125,0.453125
1629456663875,0.46875,-0.78125,0.453125
1629456663906,0.46875,-0.78125,0.4375
1629456663937,0.46875,-0.78125,0.453125
1629456663968,0.46875,-0.78125,0.453125
1629456664000,0.46875,-0.78125,0.4375
1629456664031,0.46875,-0.78125,0.4375
1629456664062,0.46875,-0.78125,0.453125
1629456664093,0.46875,-0.78125,0.4375
1629456664125,0.46875,-0.78125,0.453125
1629456664156,0.46875,-0.78125,0.453125
1629456664187,0.453125,-0.78125,0.4375
1629456664218,0.46875,-0.78125,0.453125
1629456664250,0.46875,-0.78125,0.453125
1629456664281,0.46875,-0.78125,0.453125
1629456664312,0.46875,-0.78125,0.453125
1629456664343,0.453125,-0.78125,0.453125
1629456664375,0.46875,-0.78125,0.453125
1629456664406,0.46875,-0.78125,0.453125
1629456664437,0.453125,-0.78125,0.4375
1629456664468,0.46875,-0.78125,0.453125
1629456664500,0.46875,-0.78125,0.453125
1629456664531,0.453125,-0.78125,0.453125
1629456664562,0.453125,-0.78125,0.453125
1629456664593,0.453125,-0.78125,0.4375
1629456664625,0.46875,-0.78125,0.453125
1629456664656,0.46875,-0.78125,0.453125
1629456664687,0.46875,-0.78125,0.453125
1629456664718,0.46875,-0.78125,0.453125
1629456664750,0.46875,-0.78125,0.453125
1629456664781,0.46875,-0.78125,0.453125
1629456664812,0.453125,-0.78125,0.4375
1629456664843,0.46875,-0.78125,0.453125
1629456664875,0.46875,-0.78125,0.453125
1629456664906,0.453125,-0.78125,0.453125
1629456664937,0.453125,-0.78125,0.453125
1629456664968,0.453125,-0.78125,0.453125
1629456665000,0.46875,-0.78125,0.453125
1629456665031,0.46875,-0.78125,0.453125
1629456665062,0.46875,-0.78125,0.453125
1629456665093,0.453125,-0.78125,0.4375
1629456665125,0.453125,-0.78125,0.4375
1629456665156,0.46875,-0.78125,0.453125
1629456665187,0.46875,-0.78125,0.4375
1629456665218,0.46875,-0.78125,0.453125
1629456665250,0.46875,-0.78125,0.453125
1629456665281,0.46875,-0.78125,0.453125
1629456665312,0.453125,-0.78125,0.453125
1629456665343,0.453125,-0.78125,0.453125
1629456665375,0.46875,-0.78125,0.453125
1629456665406,0.453125,-0.78125,0.453125
1629456665437,0.453125,-0.78125,0.4375
1629456665468,0.453125,-0.78125,0.453125
1629456665500,0.4375,-0.78125,0.453125
1629456665531,0.4375,-0.78125,0.453125
1629456665562,0.453125,-0.78125,0.453125
1629456665593,0.453125,-0.78125,0.453125
1629456665625,0.453125,-0.78125,0.453125
1629456665656,0.46875,-0.78125,0.453125
1629456665687,0.46875,-0.78125,0.453125
1629456665718,0.46875,-0.78125,0.453125
1629456665750,0.46875,-0.78125,0.453125
1629456665781,0.453125,-0.78125,0.4375
1629456665812,0.46875,-0.78125,0.4375
1629456665843,0.46875,-0.78125,0.4375
1629456665875,0.453125,-0.78125,0.4375
1629456665906,0.453125,-0.78125,0.4375
1629456665937,0.46875,-0.78125,0.453125
1629456665968,0.453125,-0.78125,0.4375
1629456666000,0.453125,-0.78125,0.453125
1629456666031,0.453125,-0.78125,0.453125
1629456666062,0.453125,-0.78125,0.453125
1629456666093,0.453125,-0.78125,0.453125
1629456666125,0.46875,-0.78125,0.453125
1629456666156,0.46875,-0.78125,0.453125
1629456666187,0.46875,-0.78125,0.4375
1629456666218,0.46875,-0.78125,0.4375
1629456666250,0.453125,-0.78125,0.4375
1629456666281,0.453125,-0.78125,0.453125
1629456666312,0.453125,-0.78125,0.453125
1629456666343,0.453125,-0.78125,0.453125
1629456666375,0.453125,-0.78125,0.46875
1629456666406,0.453125,-0.78125,0.46875
1629456666437,0.453125,-0.78125,0.46875
1629456666468,0.453125,-0.78125,0.46875
1629456666500,0.453125,-0.765625,0.4375
1629456666531,0.46875,-0.78125,0.421875
1629456666562,0.46875,-0.78125,0.4375
1629456666593,0.484375,-0.796875,0.4375
1629456666625,0.484375,-0.78125,0.4375
1629456666656,0.46875,-0.78125,0.4375
1629456666687,0.453125,-0.78125,0.453125
1629456666718,0.453125,-0.78125,0.453125
1629456666750,0.4375,-0.78125,0.4375
1629456666781,0.453125,-0.78125,0.453125
1629456666812,0.4375,-0.78125,0.46875
1629456666843,0.453125,-0.78125,0.484375
1629456666875,0.453125,-0.78125,0.46875
1629456666906,0.46875,-0.78125,0.453125
1629456666937,0.46875,-0.78125,0.453125
1629456666968,0.453125,-0.78125,0.4375
1629456667000,0.46875,-0.78125,0.4375
1629456667031,0.46875,-0.78125,0.4375
1629456667062,0.46875,-0.78125,0.4375
1629456667093,0.46875,-0.78125,0.4375
1629456667125,0.46875,-0.78125,0.453125
1629456667156,0.46875,-0.78125,0.453125
1629456667187,0.453125,-0.78125,0.453125
1629456667218,0.453125,-0.78125,0.453125
1629456667250,0.453125,-0.78125,0.453125
1629456667281,0.453125,-0.78125,0.453125
1629456667312,0.453125,-0.78125,0.453125
1629456667343,0.453125,-0.78125,0.453125
1629456667375,0.453125,-0.78125,0.453125
1629456667406,0.46875,-0.78125,0.453125
1629456667437,0.46875,-0.78125,0.4375
1629456667468,0.453125,-0.78125,0.4375
1629456667500,0.453125,-0.78125,0.4375
1629456667531,0.46875,-0.78125,0.4375
1629456667562,0.453125,-0.78125,0.4375
1629456667593,0.453125,-0.78125,0.4375
1629456667625,0.453125,-0.78125,0.453125
1629456667656,0.453125,-0.78125,0.453125
1629456667687,0.453125,-0.78125,0.453125
1629456667718,0.453125,-0.78125,0.453125
1629456667750,0.453125,-0.78125,0.453125
1629456667781,0.46875,-0.78125,0.453125
1629456667812,0.453125,-0.78125,0.453125
1629456667843,0.453125,-0.78125,0.453125
1629456667875,0.453125,-0.78125,0.4375
1629456667906,0.453125,-0.78125,0.4375
1629456667937,0.46875,-0.78125,0.4375
1629456667968,0.453125,-0.78125,0.453125
1629456668000,0.46875,-0.78125,0.453125
1629456668031,0.46875,-0.78125,0.453125
1629456668062,0.46875,-0.78125,0.453125
1629456668093,0.453125,-0.78125,0.46875
1629456668125,0.453125,-0.78125,0.453125
1629456668156,0.453125,-0.78125,0.453125
1629456668187,0.453125,-0.78125,0.453125
1629456668218,0.453125,-0.78125,0.453125
1629456668250,0.453125,-0.78125,0.4375
1629456668281,0.46875,-0.78125,0.4375
1629456668312,0.46875,-0.78125,0.4375
1629456668343,0.46875,-0.78125,0.4375
1629456668375,0.453125,-0.78125,0.4375
1629456668406,0.46875,-0.78125,0.4375
1629456668437,0.46875,-0.78125,0.4375
1629456668468,0.46875,-0.78125,0.453125
1629456668500,0.46875,-0.78125,0.453125
1629456668531,0.46875,-0.78125,0.453125
1629456668562,0.453125,-0.78125,0.453125
1629456668593,0.46875,-0.78125,0.4375
1629456668625,0.46875,-0.78125,0.453125
1629456668656,0.453125,-0.78125,0.453125
1629456668687,0.453125,-0.78125,0.4375
1629456668718,0.46875,-0.78125,0.453125
1629456668750,0.46875,-0.78125,0.4375
1629456668781,0.46875,-0.78125,0.4375
1629456668812,0.46875,-0.78125,0.4375
1629456668843,0.453125,-0.78125,0.4375
1629456668875,0.453125,-0.78125,0.453125
1629456668906,0.46875,-0.78125,0.4375
1629456668937,0.46875,-0.78125,0.4375
1629456668968,0.46875,-0.78125,0.4375
1629456669000,0.453125,-0.78125,0.4375
1629456669031,0.46875,-0.78125,0.4375
1629456669062,0.46875,-0.78125,0.453125
1629456669093,0.453125,-0.78125,0.4375
1629456669125,0.46875,-0.765625,0.453125
1629456669156,0.46875,-0.78125,0.4375
1629456669187,0.46875,-0.78125,0.4375
1629456669218,0.453125,-0.78125,0.4375
1629456669250,0.453125,-0.78125,0.4375
1629456669281,0.46875,-0.78125,0.4375
1629456669312,0.46875,-0.78125,0.4375
1629456669343,0.46875,-0.78125,0.4375
1629456669375,0.453125,-0.78125,0.453125
1629456669406,0.453125,-0.78125,0.453125
1629456669437,0.453125,-0.78125,0.4375
1629456669468,0.46875,-0.78125,0.4375
1629456669500,0.46875,-0.78125,0.453125
1629456669531,0.46875,-0.78125,0.453125
1629456669562,0.453125,-0.78125,0.453125
1629456669593,0.453125,-0.78125,0.4375
1629456669625,0.4375,-0.78125,0.4375
1629456669656,0.4375,-0.765625,0.5
1629456669687,0.46875,-0.796875,0.53125
1629456669718,0.453125,-0.828125,0.515625
1629456669750,0.390625,-0.84375,0.515625
1629456669781,0.453125,-0.921875,0.640625
1629456669812,0.578125,-1.03125,0.609375
1629456669843,0.40625,-0.984375,0.609375
1629456669875,0.046875,-0.859375,0.671875
1629456669906,0.046875,-0.78125,0.671875
1629456669937,-0.0625,-0.65625,0.640625
1629456669968,-0.28125,-0.53125,0.609375
1629456670000,-0.296875,-0.46875,0.65625
1629456670031,-0.25,-0.359375,0.8125
1629456670062,-0.28125,-0.296875,0.859375
1629456670093,-0.375,-0.28125,0.765625
1629456670125,-0.359375,-0.28125,0.796875
1629456670156,-0.40625,-0.25,0.828125
1629456670187,-0.421875,-0.265625,0.828125
1629456670218,-0.421875,-0.328125,0.8125
1629456670250,-0.4375,-0.3125,0.796875
1629456670281,-0.46875,-0.296875,0.796875
1629456670312,-0.4375,-0.3125,0.796875
1629456670343,-0.453125,-0.328125,0.796875
1629456670375,-0.453125,-0.34375,0.84375
1629456670406,-0.46875,-0.34375,0.828125
1629456670437,-0.5,-0.328125,0.78125
1629456670468,-0.484375,-0.328125,0.78125
1629456670500,-0.421875,-0.359375,0.828125
1629456670531,-0.46875,-0.359375,0.828125
1629456670562,-0.46875,-0.34375,0.828125
1629456670593,-0.421875,-0.34375,0.828125
1629456670625,-0.40625,-0.34375,0.828125
1629456670656,-0.4375,-0.34375,0.8125
1629456670687,-0.453125,-0.328125,0.8125
1629456670718,-0.4375,-0.34375,0.8125
1629456670750,-0.421875,-0.34375,0.828125
1629456670781,-0.453125,-0.34375,0.8125
1629456670812,-0.453125,-0.34375,0.8125
1629456670843,-0.4375,-0.34375,0.8125
1629456670875,-0.453125,-0.34375,0.8125
1629456670906,-0.453125,-0.328125,0.8125
1629456670937,-0.4375,-0.34375,0.8125
1629456670968,-0.453125,-0.34375,0.8125
1629456671000,-0.4375,-0.34375,0.8125
1629456671031,-0.4375,-0.328125,0.828125
1629456671062,-0.421875,-0.34375,0.828125
1629456671093,-0.421875,-0.34375,0.828125
1629456671125,-0.421875,-0.359375,0.828125
1629456671156,-0.421875,-0.359375,0.84375
1629456671187,-0.421875,-0.34375,0.84375
1629456671218,-0.4375,-0.34375,0.828125
1629456671250,-0.4375,-0.34375,0.828125
