timestamp,ax,ay,az
1630501821562,0.78125,-0.53125,0.3125
1630501821593,0.8125,-0.53125,0.28125
1630501821625,0.828125,-0.515625,0.296875
1630501821656,0.8125,-0.515625,0.3125
1630501821687,0.796875,-0.515625,0.328125
1630501821718,0.796875,-0.515625,0.328125
1630501821750,0.8125,-0.5,0.3125
1630501821781,0.828125,-0.5,0.3125
1630501821812,0.828125,-0.5,0.3125
1630501821843,0.8125,-0.515625,0.328125
1630501821875,0.796875,-0.515625,0.328125
1630501821906,0.796875,-0.53125,0.328125
1630501821937,0.8125,-0.53125,0.3125
1630501821968,0.8125,-0.53125,0.328125
1630501822000,0.828125,-0.53125,0.328125
1630501822031,0.84375,-0.53125,0.34375
1630501822062,1.015625,-0.578125,0.421875
1630501822093,1.046875,-0.46875,0.296875
1630501822125,1.234375,-0.484375,0.328125
1630501822156,1.28125,-0.453125,0.375
1630501822187,1.0625,-0.328125,0.375
1630501822218,1.03125,-0.296875,0.390625
1630501822250,1.015625,-0.1875,0.421875
1630501822281,1.015625,-0.15625,0.390625
1630501822312,0.84375,-0.0625,0.296875
1630501822343,0.859375,0.0,0.328125
1630501822375,0.9375,-0.015625,0.375
1630501822406,0.703125,0.015625,0.328125
1630501822437,0.625,0.015625,0.265625
1630501822468,0.921875,0.125,0.296875
1630501822500,1.015625,-0.015625,0.359375
1630501822531,0.84375,-0.109375,0.390625
1630501822562,0.640625,0.1875,0.359375
1630501822593,0.65625,0.140625,0.421875
1630501822625,0.515625,0.15625,0.53125
1630501822656,0.71875,0.15625,0.578125
1630501822687,0.78125,0.140625,0.546875
1630501822718,0.78125,0.125,0.515625
1630501822750,0.734375,0.15625,0.453125
1630501822781,0.671875,0.1875,0.40625
1630501822812,0.65625,0.140625,0.328125
1630501822843,0.875,0.140625,0.21875
1630501822875,1.1875,0.0625,0.203125
1630501822906,1.1875,0.171875,0.078125
1630501822937,1.015625,0.1875,-0.046875
1630501822968,0.828125,0.1875,0.078125
1630501823000,0.96875,0.15625,0.15625
1630501823031,1.03125,0.1875,0.0625
1630501823062,1.03125,0.15625,0.0
1630501823093,1.0625,0.1875,-0.015625
1630501823125,1.078125,0.234375,-0.015625
1630501823156,1.015625,0.234375,-0.0625
1630501823187,0.96875,0.21875,-0.046875
1630501823218,1.015625,0.234375,-0.015625
1630501823250,1.0,0.234375,-0.015625
1630501823281,0.984375,0.203125,-0.03125
1630501823312,0.96875,0.21875,-0.015625
1630501823343,0.953125,0.203125,-0.015625
1630501823375,0.96875,0.203125,0.0
1630501823406,1.03125,0.21875,-0.015625
1630501823437,1.03125,0.203125,-0.03125
1630501823468,0.984375,0.203125,-0.03125
1630501823500,0.984375,0.203125,-0.015625
1630501823531,0.921875,0.234375,-0.046875
1630501823562,1.0,0.21875,-0.015625
1630501823593,0.984375,0.25,-0.015625
1630501823625,0.984375,0.203125,0.0
1630501823656,0.953125,0.265625,-0.046875
1630501823687,0.984375,0.234375,0.0
1630501823718,1.0,0.203125,-0.015625
1630501823750,1.046875,0.203125,0.0
1630501823781,0.96875,0.21875,0.0
1630501823812,1.0,0.21875,0.03125
1630501823843,0.890625,0.21875,0.03125
1630501823875,0.953125,0.15625,0.078125
1630501823906,0.9375,0.140625,0.09375
1630501823937,0.953125,0.140625,0.109375
1630501823968,1.015625,0.140625,0.078125
1630501824000,1.015625,0.171875,0.03125
1630501824031,0.96875,0.203125,0.046875
1630501824062,1.015625,0.21875,0.0
1630501824093,1.0,0.21875,0.0
1630501824125,0.96875,0.21875,0.0
1630501824156,0.984375,0.203125,0.0
1630501824187,1.015625,0.21875,0.015625
1630501824218,1.015625,0.21875,0.015625
1630501824250,0.9375,0.203125,0.015625
1630501824281,0.96875,0.1875,0.03125
1630501824312,1.0,0.203125,0.03125
1630501824343,0.984375,0.203125,0.03125
1630501824375,1.0,0.203125,0.046875
1630501824406,0.96875,0.203125,0.0625
1630501824437,1.0,0.203125,0.046875
1630501824468,0.984375,0.203125,0.046875
1630501824500,0.984375,0.21875,0.015625
1630501824531,1.03125,0.21875,0.0
1630501824562,0.953125,0.21875,-0.015625
1630501824593,0.984375,0.203125,0.0
1630501824625,0.984375,0.21875,0.015625
1630501824656,0.96875,0.203125,0.015625
1630501824687,0.984375,0.203125,0.0
1630501824718,0.96875,0.21875,0.015625
1630501824750,0.9375,0.203125,0.015625
1630501824781,1.046875,0.203125,0.03125
1630501824812,0.96875,0.203125,0.0
1630501824843,0.984375,0.203125,0.015625
1630501824875,0.953125,0.21875,0.0
1630501824906,1.03125,0.203125,0.0
1630501824937,1.0,0.234375,0.015625
1630501824968,0.984375,0.21875,0.0
1630501825000,1.015625,0.234375,0.0
1630501825031,0.921875,0.21875,0.015625
1630501825062,1.046875,0.21875,0.03125
1630501825093,0.953125,0.21875,-0.03125
1630501825125,0.984375,0.21875,0.015625
1630501825156,0.953125,0.21875,-0.015625
1630501825187,1.0,0.234375,0.015625
1630501825218,0.953125,0.203125,-0.015625
1630501825250,0.96875,0.21875,0.0
1630501825281,0.984375,0.21875,0.0
1630501825312,0.90625,0.203125,-0.03125
1630501825343,1.015625,0.203125,0.015625
1630501825375,1.03125,0.203125,-0.015625
1630501825406,1.0,0.234375,0.0
1630501825437,1.03125,0.25,0.015625
1630501825468,1.0,0.171875,-0.03125
1630501825500,0.984375,0.15625,-0.03125
1630501825531,0.953125,0.203125,0.015625
1630501825562,0.984375,0.171875,0.0
1630501825593,0.96875,0.203125,0.015625
1630501825625,1.0625,0.234375,-0.015625
1630501825656,1.0,0.21875,-0.109375
1630501825687,1.0,0.21875,-0.109375
1630501825718,0.96875,0.25,-0.078125
1630501825750,0.96875,0.234375,-0.09375
1630501825781,1.015625,0.265625,-0.0625
1630501825812,0.90625,0.25,-0.015625
1630501825843,1.03125,0.203125,-0.078125
1630501825875,0.84375,0.1875,-0.015625
1630501825906,1.0625,0.21875,-0.03125
1630501825937,1.046875,0.21875,-0.046875
1630501825968,0.984375,0.234375,-0.03125
1630501826000,1.015625,0.21875,-0.015625
1630501826031,1.0,0.234375,-0.046875
1630501826062,0.984375,0.21875,-0.03125
1630501826093,0.921875,0.234375,-0.03125
1630501826125,0.984375,0.21875,-0.03125
1630501826156,1.0,0.21875,-0.03125
1630501826187,0.96875,0.234375,-0.046875
1630501826218,0.984375,0.234375,-0.046875
1630501826250,0.984375,0.234375,-0.015625
1630501826281,0.984375,0.234375,-0.015625
1630501826312,0.984375,0.21875,-0.03125
1630501826343,0.984375,0.234375,-0.03125
1630501826375,0.96875,0.21875,-0.03125
1630501826406,0.984375,0.21875,-0.03125
1630501826437,0.984375,0.234375,-0.046875
1630501826468,0.96875,0.21875,-0.046875
1630501826500,0.984375,0.21875,-0.03125
1630501826531,0.96875,0.234375,-0.03125
1630501826562,0.984375,0.21875,-0.03125
1630501826593,0.984375,0.234375,-0.03125
1630501826625,0.984375,0.234375,-0.03125
1630501826656,0.984375,0.234375,-0.046875
1630501826687,1.0,0.234375,-0.046875
1630501826718,0.984375,0.234375,-0.046875
1630501826750,0.96875,0.234375,-0.0625
1630501826781,0.984375,0.234375,-0.046875
1630501826812,0.984375,0.234375,-0.046875
1630501826843,0.984375,0.234375,-0.046875
1630501826875,0.984375,0.234375,-0.0625
1630501826906,0.984375,0.234375,-0.046875
1630501826937,0.953125,0.234375,-0.046875
1630501826968,0.984375,0.21875,-0.0625
1630501827000,0.984375,0.234375,-0.0625
1630501827031,1.0,0.21875,-0.046875
1630501827062,0.96875,0.21875,-0.0625
1630501827093,1.015625,0.234375,-0.046875
1630501827125,0.984375,0.21875,-0.0625
1630501827156,1.015625,0.21875,-0.046875
1630501827187,0.953125,0.21875,-0.0625
1630501827218,1.0,0.234375,-0.046875
1630501827250,0.9375,0.234375,-0.078125
1630501827281,1.0,0.234375,-0.046875
1630501827312,0.953125,0.234375,-0.0625
1630501827343,1.03125,0.234375,-0.046875
1630501827375,0.984375,0.21875,-0.078125
1630501827406,0.984375,0.234375,-0.0625
1630501827437,0.921875,0.21875,-0.078125
1630501827468,1.046875,0.203125,-0.046875
1630501827500,0.9375,0.234375,-0.078125
1630501827531,1.015625,0.234375,-0.03125
1630501827562,0.890625,0.21875,-0.078125
1630501827593,1.046875,0.21875,-0.03125
1630501827625,0.9375,0.21875,-0.078125
1630501827656,0.96875,0.21875,-0.0625
1630501827687,0.984375,0.21875,-0.0625
1630501827718,0.984375,0.21875,-0.0625
1630501827750,1.0,0.21875,-0.046875
1630501827781,0.984375,0.21875,-0.0625
1630501827812,1.0,0.21875,-0.046875
1630501827843,0.984375,0.21875,-0.046875
1630501827875,0.984375,0.21875,-0.0625
1630501827906,0.984375,0.21875,-0.046875
1630501827937,0.984375,0.234375,-0.046875
1630501827968,0.96875,0.21875,-0.046875
1630501828000,1.0,0.234375,-0.0625
1630501828031,0.96875,0.234375,-0.0625
1630501828062,1.0,0.21875,-0.0625
1630501828093,0.984375,0.234375,-0.046875
1630501828125,0.953125,0.21875,-0.046875
1630501828156,1.015625,0.21875,-0.046875
1630501828187,0.953125,0.234375,-0.0625
1630501828218,0.984375,0.234375,-0.046875
1630501828250,0.984375,0.21875,-0.046875
1630501828281,0.953125,0.21875,-0.0625
1630501828312,0.984375,0.234375,-0.0625
1630501828343,0.984375,0.234375,-0.0625
1630501828375,0.984375,0.234375,-0.046875
1630501828406,1.0,0.21875,-0.046875
1630501828437,0.984375,0.234375,-0.046875
1630501828468,1.015625,0.21875,-0.0625
1630501828500,0.953125,0.234375,-0.0625
1630501828531,0.9375,0.234375,-0.0625
1630501828562,0.984375,0.21875,-0.046875
1630501828593,0.984375,0.21875,-0.046875
1630501828625,0.9375,0.234375,-0.0625
1630501828656,1.03125,0.234375,-0.046875
1630501828687,0.96875,0.234375,-0.0625
1630501828718,1.0,0.234375,-0.0625
1630501828750,1.0,0.234375,-0.0625
1630501828781,0.984375,0.234375,-0.03125
1630501828812,0.984375,0.203125,-0.046875
1630501828843,1.03125,0.234375,-0.03125
1630501828875,0.9375,0.234375,-0.046875
1630501828906,0.984375,0.21875,-0.015625
1630501828937,0.9375,0.203125,-0.015625
1630501828968,1.03125,0.203125,-0.015625
1630501829000,1.078125,0.21875,-0.015625
1630501829031,0.953125,0.234375,-0.046875
1630501829062,0.96875,0.21875,-0.03125
1630501829093,0.953125,0.203125,-0.03125
1630501829125,0.96875,0.234375,-0.046875
1630501829156,1.046875,0.21875,-0.03125
1630501829187,1.0,0.25,-0.0625
1630501829218,0.96875,0.234375,-0.015625
1630501829250,0.96875,0.234375,-0.015625
1630501829281,0.96875,0.234375,-0.046875
1630501829312,1.0,0.234375,-0.03125
1630501829343,1.0,0.234375,-0.046875
1630501829375,0.953125,0.234375,-0.03125
1630501829406,0.96875,0.21875,-0.03125
1630501829437,0.984375,0.21875,-0.03125
1630501829468,0.96875,0.21875,-0.03125
1630501829500,1.0,0.234375,-0.015625
1630501829531,0.984375,0.21875,0.0
1630501829562,0.96875,0.21875,-0.015625
1630501829593,0.96875,0.234375,-0.015625
1630501829625,0.96875,0.21875,0.0
1630501829656,1.0,0.234375,0.0
1630501829687,0.984375,0.21875,0.0
1630501829718,0.96875,0.21875,-0.015625
1630501829750,0.984375,0.234375,-0.03125
1630501829781,1.0,0.234375,-0.03125
1630501829812,0.984375,0.234375,-0.03125
1630501829843,1.0,0.234375,0.0
1630501829875,0.984375,0.21875,0.0
1630501829906,0.984375,0.234375,-0.03125
1630501829937,0.984375,0.234375,-0.015625
1630501829968,0.984375,0.234375,-0.03125
1630501830000,0.984375,0.234375,-0.015625
1630501830031,1.0,0.234375,-0.015625
1630501830062,0.96875,0.234375,-0.015625
1630501830093,0.953125,0.21875,-0.015625
1630501830125,0.984375,0.234375,0.0
1630501830156,0.984375,0.234375,-0.03125
1630501830187,0.96875,0.234375,-0.015625
1630501830218,1.0,0.25,0.015625
1630501830250,0.984375,0.25,0.015625
1630501830281,0.96875,0.25,-0.015625
1630501830312,0.953125,0.21875,0.046875
1630501830343,0.890625,0.171875,0.078125
1630501830375,0.953125,0.125,0.078125
1630501830406,0.984375,0.1875,0.046875
1630501830437,0.953125,0.1875,0.046875
1630501830468,1.078125,0.21875,0.0
1630501830500,1.046875,0.296875,-0.078125
1630501830531,1.046875,0.296875,-0.109375
1630501830562,1.0,0.25,-0.125
1630501830593,0.9375,0.28125,-0.109375
1630501830625,0.953125,0.25,-0.0625
1630501830656,0.96875,0.234375,-0.046875
1630501830687,0.984375,0.234375,-0.015625
1630501830718,0.96875,0.265625,-0.078125
1630501830750,0.90625,0.234375,-0.046875
1630501830781,1.0,0.234375,0.015625
1630501830812,0.9375,0.21875,-0.015625
1630501830843,1.0,0.203125,0.046875
1630501830875,0.921875,0.203125,0.078125
1630501830906,1.0,0.203125,0.09375
1630501830937,0.96875,0.21875,0.0625
1630501830968,0.953125,0.234375,0.078125
1630501831000,0.9375,0.21875,0.09375
1630501831031,0.984375,0.1875,0.0625
1630501831062,0.953125,0.203125,0.078125
1630501831093,0.96875,0.21875,0.015625
1630501831125,1.03125,0.265625,0.0
1630501831156,0.984375,0.265625,-0.015625
1630501831187,1.0625,0.296875,-0.046875
1630501831218,0.921875,0.203125,-0.03125
1630501831250,0.828125,0.21875,0.0
1630501831281,1.0,0.234375,-0.015625
1630501831312,1.0625,0.203125,-0.015625
1630501831343,0.921875,0.234375,0.015625
1630501831375,1.015625,0.265625,0.0
1630501831406,0.953125,0.234375,0.0
1630501831437,0.9375,0.21875,0.015625
1630501831468,0.984375,0.21875,0.046875
1630501831500,0.921875,0.21875,0.015625
1630501831531,1.0625,0.21875,0.046875
1630501831562,0.984375,0.234375,0.015625
1630501831593,0.984375,0.25,0.015625
1630501831625,0.984375,0.234375,0.0
1630501831656,0.984375,0.25,0.03125
1630501831687,0.984375,0.21875,0.0
1630501831718,1.0,0.21875,0.0
1630501831750,0.984375,0.234375,-0.03125
1630501831781,0.96875,0.234375,0.0
1630501831812,0.984375,0.21875,0.015625
1630501831843,0.984375,0.234375,-0.015625
1630501831875,0.984375,0.234375,-0.03125
1630501831906,0.984375,0.25,-0.015625
1630501831937,1.0,0.234375,-0.015625
1630501831968,1.015625,0.234375,0.0
1630501832000,0.96875,0.21875,-0.046875
1630501832031,0.984375,0.234375,-0.03125
1630501832062,0.984375,0.21875,-0.03125
1630501832093,0.953125,0.25,-0.03125
1630501832125,0.96875,0.21875,-0.03125
1630501832156,0.953125,0.234375,-0.03125
1630501832187,0.96875,0.21875,-0.03125
1630501832218,0.96875,0.234375,-0.046875
1630501832250,1.015625,0.234375,-0.03125
1630501832281,1.0,0.25,-0.015625
1630501832312,0.96875,0.21875,-0.03125
1630501832343,1.0,0.234375,-0.03125
1630501832375,0.953125,0.234375,-0.03125
1630501832406,1.015625,0.25,-0.03125
1630501832437,0.984375,0.25,-0.03125
1630501832468,0.9375,0.21875,-0.03125
1630501832500,0.984375,0.234375,-0.046875
1630501832531,1.015625,0.21875,-0.03125
1630501832562,0.984375,0.234375,-0.03125
1630501832593,0.96875,0.234375,0.015625
1630501832625,0.984375,0.234375,-0.015625
1630501832656,1.015625,0.25,0.0
1630501832687,0.96875,0.25,-0.03125
1630501832718,0.9375,0.203125,0.03125
1630501832750,0.96875,0.21875,0.03125
1630501832781,0.984375,0.21875,0.0
1630501832812,1.015625,0.234375,-0.015625
1630501832843,1.015625,0.25,-0.03125
1630501832875,1.015625,0.25,-0.03125
1630501832906,0.953125,0.25,-0.015625
1630501832937,0.984375,0.21875,0.0
1630501832968,0.953125,0.234375,-0.046875
1630501833000,0.90625,0.1875,-0.046875
1630501833031,1.0,0.21875,-0.03125
1630501833062,1.015625,0.21875,-0.03125
1630501833093,0.96875,0.234375,0.0
1630501833125,1.046875,0.25,0.0
1630501833156,0.984375,0.234375,-0.03125
1630501833187,0.96875,0.234375,-0.015625
1630501833218,0.96875,0.25,-0.03125
1630501833250,0.96875,0.25,-0.03125
1630501833281,0.984375,0.25,-0.015625
1630501833312,0.984375,0.234375,-0.03125
1630501833343,0.984375,0.234375,-0.03125
1630501833375,0.96875,0.234375,-0.03125
1630501833406,0.984375,0.234375,-0.03125
1630501833437,0.984375,0.234375,-0.015625
1630501833468,0.96875,0.21875,-0.015625
1630501833500,0.96875,0.21875,-0.03125
1630501833531,0.984375,0.234375,-0.015625
1630501833562,1.0,0.25,-0.03125
1630501833593,1.0,0.25,-0.015625
1630501833625,0.984375,0.265625,-0.015625
1630501833656,1.0,0.25,-0.03125
1630501833687,0.953125,0.21875,-0.046875
1630501833718,0.984375,0.25,-0.03125
1630501833750,1.046875,0.234375,-0.03125
1630501833781,0.984375,0.25,-0.03125
1630501833812,1.03125,0.265625,0.0
1630501833843,0.953125,0.234375,-0.015625
1630501833875,0.859375,0.203125,0.046875
1630501833906,1.0,0.21875,0.03125
1630501833937,0.96875,0.1875,0.0
1630501833968,1.0,0.203125,0.0
1630501834000,0.984375,0.21875,0.03125
1630501834031,0.984375,0.234375,-0.015625
1630501834062,1.015625,0.25,-0.046875
1630501834093,0.9375,0.234375,-0.078125
1630501834125,0.953125,0.25,-0.09375
1630501834156,1.0,0.25,-0.109375
1630501834187,1.0,0.25,-0.09375
1630501834218,0.9375,0.234375,-0.125
1630501834250,1.0,0.25,-0.109375
1630501834281,1.0,0.25,-0.09375
1630501834312,0.953125,0.234375,-0.125
1630501834343,0.953125,0.234375,-0.109375
1630501834375,0.984375,0.234375,-0.09375
1630501834406,1.0,0.234375,-0.09375
1630501834437,0.984375,0.234375,-0.09375
1630501834468,0.953125,0.234375,-0.09375
1630501834500,0.96875,0.234375,-0.09375
1630501834531,0.96875,0.21875,-0.078125
1630501834562,0.984375,0.234375,-0.078125
1630501834593,0.984375,0.234375,-0.078125
1630501834625,0.984375,0.21875,-0.078125
1630501834656,1.015625,0.234375,-0.09375
1630501834687,0.984375,0.25,-0.09375
1630501834718,1.015625,0.234375,-0.09375
1630501834750,0.984375,0.234375,-0.078125
1630501834781,0.96875,0.234375,-0.0625
1630501834812,0.96875,0.25,-0.046875
1630501834843,0.9375,0.234375,-0.015625
1630501834875,0.953125,0.203125,0.03125
1630501834906,0.984375,0.203125,0.046875
1630501834937,0.984375,0.203125,0.03125
1630501834968,0.984375,0.21875,0.015625
1630501835000,1.0,0.234375,0.015625
1630501835031,0.984375,0.21875,0.015625
1630501835062,0.984375,0.234375,0.015625
1630501835093,0.984375,0.234375,0.015625
1630501835125,0.953125,0.21875,0.03125
1630501835156,0.96875,0.21875,0.03125
1630501835187,0.96875,0.21875,0.015625
1630501835218,0.984375,0.21875,0.03125
1630501835250,1.0,0.21875,0.03125
1630501835281,0.984375,0.203125,0.046875
1630501835312,1.0,0.21875,0.046875
1630501835343,0.96875,0.21875,0.03125
1630501835375,1.0,0.21875,0.03125
1630501835406,1.0,0.234375,0.0
1630501835437,0.984375,0.234375,0.0
1630501835468,0.984375,0.21875,-0.015625
1630501835500,1.0,0.234375,-0.03125
1630501835531,0.984375,0.234375,-0.03125
1630501835562,0.984375,0.21875,-0.015625
1630501835593,0.984375,0.234375,-0.03125
1630501835625,0.96875,0.234375,-0.03125
1630501835656,0.96875,0.234375,-0.015625
1630501835687,1.0,0.234375,0.015625
1630501835718,0.984375,0.21875,0.0
1630501835750,0.96875,0.21875,0.0
1630501835781,0.984375,0.21875,0.0
1630501835812,0.953125,0.234375,-0.03125
1630501835843,0.953125,0.234375,-0.03125
1630501835875,0.96875,0.234375,-0.03125
1630501835906,1.0,0.234375,-0.03125
1630501835937,0.984375,0.234375,-0.03125
1630501835968,1.0,0.234375,-0.0625
1630501836000,0.984375,0.25,-0.078125
1630501836031,1.0,0.25,-0.09375
1630501836062,0.953125,0.25,-0.109375
1630501836093,0.984375,0.25,-0.078125
1630501836125,0.96875,0.234375,-0.09375
1630501836156,0.96875,0.25,-0.09375
1630501836187,0.953125,0.25,-0.078125
1630501836218,0.984375,0.234375,-0.0625
1630501836250,0.984375,0.234375,-0.078125
1630501836281,0.984375,0.25,-0.078125
1630501836312,0.984375,0.25,-0.0625
1630501836343,0.984375,0.25,-0.0625
1630501836375,0.96875,0.25,-0.0625
1630501836406,0.9375,0.25,-0.046875
1630501836437,0.96875,0.234375,-0.046875
1630501836468,0.953125,0.234375,-0.03125
1630501836500,0.984375,0.234375,-0.046875
1630501836531,0.984375,0.25,-0.03125
1630501836562,0.984375,0.234375,-0.046875
1630501836593,1.0,0.25,-0.0625
1630501836625,0.96875,0.234375,-0.0625
1630501836656,0.984375,0.25,-0.09375
1630501836687,0.984375,0.25,-0.09375
1630501836718,0.96875,0.234375,-0.09375
1630501836750,0.953125,0.25,-0.09375
1630501836781,0.96875,0.25,-0.09375
1630501836812,0.96875,0.25,-0.109375
1630501836843,0.984375,0.25,-0.09375
1630501836875,0.96875,0.265625,-0.109375
1630501836906,0.96875,0.25,-0.09375
1630501836937,0.96875,0.25,-0.09375
1630501836968,0.984375,0.25,-0.09375
1630501837000,0.96875,0.25,-0.109375
1630501837031,0.96875,0.25,-0.09375
1630501837062,0.96875,0.234375,-0.09375
1630501837093,1.0,0.25,-0.09375
1630501837125,0.96875,0.25,-0.109375
1630501837156,0.96875,0.25,-0.09375
1630501837187,0.96875,0.25,-0.09375
1630501837218,0.96875,0.25,-0.09375
1630501837250,0.96875,0.234375,-0.078125
1630501837281,0.96875,0.234375,-0.078125
1630501837312,0.96875,0.25,-0.09375
1630501837343,0.984375,0.25,-0.078125
1630501837375,0.96875,0.25,-0.078125
1630501837406,0.96875,0.25,-0.078125
1630501837437,0.984375,0.25,-0.09375
1630501837468,0.984375,0.265625,-0.109375
1630501837500,0.96875,0.28125,-0.078125
1630501837531,0.9375,0.28125,-0.09375
1630501837562,0.984375,0.28125,-0.046875
1630501837593,0.984375,0.234375,-0.109375
1630501837625,1.015625,0.234375,-0.09375
1630501837656,1.015625,0.21875,-0.046875
1630501837687,0.984375,0.1875,0.015625
1630501837718,1.0,0.171875,0.015625
1630501837750,1.015625,0.125,0.046875
1630501837781,1.140625,0.140625,0.046875
1630501837812,1.1875,0.109375,-0.015625
1630501837843,1.0,0.0625,0.046875
1630501837875,1.015625,0.046875,0.109375
1630501837906,0.84375,0.0625,0.1875
1630501837937,0.8125,0.109375,0.234375
1630501837968,0.90625,0.21875,0.265625
1630501838000,0.875,0.234375,0.296875
1630501838031,0.90625,0.265625,0.34375
1630501838062,0.8125,0.296875,0.375
1630501838093,0.84375,0.265625,0.453125
1630501838125,0.84375,0.328125,0.453125
1630501838156,0.859375,0.359375,0.46875
1630501838187,0.84375,0.34375,0.46875
1630501838218,0.796875,0.375,0.5
1630501838250,0.75,0.40625,0.484375
1630501838281,0.78125,0.390625,0.53125
1630501838312,0.75,0.390625,0.546875
1630501838343,0.75,0.359375,0.5625
1630501838375,0.71875,0.328125,0.59375
1630501838406,0.609375,0.3125,0.625
1630501838437,0.734375,0.25,0.6875
1630501838468,0.671875,0.25,0.71875
1630501838500,0.578125,0.25,0.71875
1630501838531,0.65625,0.15625,0.75
1630501838562,0.578125,0.1875,0.765625
1630501838593,0.5625,0.1875,0.8125
1630501838625,0.609375,0.140625,0.8125
1630501838656,0.5625,0.15625,0.78125
1630501838687,0.578125,0.109375,0.890625
1630501838718,0.46875,0.078125,0.859375
1630501838750,0.4375,0.09375,0.84375
1630501838781,0.5,0.09375,0.859375
1630501838812,0.34375,0.0625,0.90625
1630501838843,0.375,0.09375,0.921875
1630501838875,0.5,0.109375,0.953125
1630501838906,0.40625,0.15625,0.90625
1630501838937,0.453125,0.15625,0.921875
1630501838968,0.5,0.15625,0.953125
1630501839000,0.46875,0.1875,0.921875
1630501839031,0.453125,0.203125,0.875
1630501839062,0.46875,0.21875,0.84375
1630501839093,0.484375,0.265625,0.765625
1630501839125,0.390625,0.234375,0.71875
1630501839156,0.484375,0.203125,0.796875
1630501839187,0.375,0.09375,0.703125
1630501839218,0.359375,0.0625,0.6875
1630501839250,0.6875,-0.09375,0.921875
1630501839281,0.53125,-0.078125,0.828125
1630501839312,0.515625,-0.03125,0.859375
1630501839343,0.5,0.078125,0.890625
1630501839375,0.515625,0.15625,0.859375
1630501839406,0.53125,0.171875,0.84375
1630501839437,0.5625,0.1875,0.796875
1630501839468,0.59375,0.171875,0.78125
1630501839500,0.609375,0.109375,0.78125
1630501839531,0.578125,0.09375,0.796875
1630501839562,0.59375,0.109375,0.765625
1630501839593,0.625,0.109375,0.765625
1630501839625,0.65625,0.109375,0.796875
1630501839656,0.59375,0.171875,0.8125
1630501839687,0.734375,-0.109375,0.734375
1630501839718,0.734375,-0.1875,0.703125
1630501839750,0.921875,-0.3125,0.953125
1630501839781,0.796875,-0.203125,0.859375
1630501839812,0.71875,0.0,0.859375
1630501839843,0.4375,0.125,0.71875
1630501839875,0.25,0.1875,0.609375
1630501839906,0.109375,0.296875,0.546875
1630501839937,0.0625,0.234375,0.5625
1630501839968,-0.0625,0.21875,0.546875
1630501840000,0.046875,0.171875,0.6875
1630501840031,0.03125,0.0625,0.765625
1630501840062,0.265625,0.0625,0.6875
1630501840093,1.296875,-0.015625,1.0
1630501840125,0.9375,0.03125,0.875
1630501840156,0.40625,0.03125,0.546875
1630501840187,1.078125,-0.1875,0.703125
1630501840218,1.578125,-0.5625,1.296875
1630501840250,0.515625,-0.5,0.6875
1630501840281,0.421875,-0.40625,0.4375
1630501840312,0.40625,-0.578125,0.109375
1630501840343,0.578125,-0.75,0.15625
1630501840375,1.0625,-1.078125,0.453125
1630501840406,0.53125,-1.03125,0.359375
1630501840437,0.796875,-1.0625,0.40625
1630501840468,0.890625,-0.90625,0.34375
1630501840500,0.8125,-0.8125,0.28125
1630501840531,0.671875,-0.734375,0.171875
1630501840562,0.8125,-0.65625,0.265625
1630501840593,0.953125,-0.75,0.375
1630501840625,0.921875,-0.78125,0.390625
1630501840656,0.875,-0.796875,0.40625
1630501840687,0.625,-0.734375,0.421875
1630501840718,0.546875,-0.5625,0.46875
1630501840750,0.640625,-0.5625,0.484375
1630501840781,0.484375,-0.4375,0.484375
1630501840812,0.609375,-0.328125,0.578125
1630501840843,0.5625,-0.3125,0.65625
1630501840875,0.34375,-0.265625,0.5
1630501840906,0.328125,-0.265625,0.40625
1630501840937,0.625,-0.328125,0.4375
1630501840968,0.578125,-0.34375,0.328125
1630501841000,0.75,-0.421875,0.296875
1630501841031,0.953125,-0.40625,0.21875
1630501841062,0.8125,-0.4375,0.203125
1630501841093,0.3125,-0.71875,0.078125
1630501841125,0.90625,-0.90625,0.25
1630501841156,0.875,-0.890625,0.03125
1630501841187,0.90625,-0.90625,-0.25
1630501841218,1.015625,-0.890625,0.03125
1630501841250,0.40625,-0.859375,-0.109375
1630501841281,0.296875,-1.078125,-0.015625
1630501841312,0.3125,-1.0625,0.140625
1630501841343,0.25,-1.0625,0.1875
1630501841375,0.359375,-1.015625,-0.046875
1630501841406,0.625,-0.96875,-0.015625
1630501841437,0.484375,-0.984375,0.0
1630501841468,0.6875,-0.9375,-0.03125
1630501841500,0.390625,-0.859375,-0.125
1630501841531,0.203125,-0.90625,-0.15625
1630501841562,0.234375,-0.984375,-0.171875
1630501841593,0.34375,-1.046875,-0.296875
1630501841625,0.515625,-1.03125,-0.34375
1630501841656,0.5,-1.109375,-0.171875
1630501841687,0.546875,-1.0,-0.078125
1630501841718,0.40625,-0.90625,-0.0625
1630501841750,0.078125,-0.765625,-0.3125
1630501841781,0.03125,-0.734375,-0.40625
1630501841812,0.25,-0.953125,-0.078125
1630501841843,0.484375,-1.140625,-0.078125
1630501841875,0.28125,-1.078125,-0.0625
1630501841906,0.046875,-0.984375,-0.15625
1630501841937,0.203125,-0.9375,-0.3125
1630501841968,0.015625,-1.078125,0.078125
1630501842000,0.265625,-0.96875,-0.0625
1630501842031,0.328125,-0.984375,0.046875
1630501842062,0.328125,-1.0625,0.109375
1630501842093,0.359375,-0.765625,-0.453125
1630501842125,0.34375,-0.78125,-0.4375
1630501842156,0.171875,-0.875,-0.390625
1630501842187,0.125,-0.96875,-0.234375
1630501842218,0.265625,-0.96875,-0.078125
1630501842250,0.5,-1.09375,-0.125
1630501842281,0.46875,-1.09375,-0.125
1630501842312,0.46875,-1.21875,-0.140625
1630501842343,0.453125,-1.234375,-0.140625
1630501842375,0.40625,-1.171875,-0.109375
1630501842406,0.46875,-1.078125,0.0
1630501842437,0.515625,-0.984375,0.015625
1630501842468,0.671875,-0.84375,-0.03125
1630501842500,0.796875,-0.796875,-0.046875
1630501842531,0.84375,-0.71875,0.015625
1630501842562,0.75,-0.625,0.078125
1630501842593,0.859375,-0.578125,0.0625
1630501842625,0.984375,-0.5,0.140625
1630501842656,0.640625,-0.453125,0.140625
1630501842687,0.609375,-0.359375,0.28125
1630501842718,0.28125,-0.296875,0.34375
1630501842750,0.390625,-0.25,0.421875
1630501842781,0.3125,-0.28125,0.40625
1630501842812,0.609375,-0.625,0.859375
1630501842843,0.4375,-0.59375,0.734375
1630501842875,0.53125,-0.765625,1.0
1630501842906,0.484375,-0.765625,1.125
1630501842937,0.515625,-0.609375,0.96875
1630501842968,0.65625,-0.515625,0.765625
1630501843000,0.453125,-0.5,0.71875
1630501843031,0.484375,-0.34375,0.9375
1630501843062,0.703125,-0.296875,0.921875
1630501843093,0.71875,-0.140625,0.65625
1630501843125,0.984375,0.171875,0.484375
1630501843156,1.046875,0.140625,0.484375
1630501843187,0.5,0.09375,0.390625
1630501843218,0.578125,0.015625,0.53125
1630501843250,0.78125,0.09375,0.796875
1630501843281,0.265625,0.25,0.65625
1630501843312,0.125,0.15625,0.53125
1630501843343,0.53125,-0.1875,0.578125
1630501843375,0.78125,-0.515625,0.46875
1630501843406,0.6875,-0.6875,0.3125
1630501843437,1.109375,-0.90625,0.8125
1630501843468,0.890625,-0.859375,0.71875
1630501843500,0.625,-0.671875,0.875
1630501843531,0.6875,-0.375,0.90625
1630501843562,0.671875,-0.234375,0.828125
1630501843593,0.5,-0.125,0.703125
1630501843625,0.703125,-0.21875,0.703125
1630501843656,0.46875,-0.1875,0.59375
1630501843687,0.484375,-0.265625,0.625
1630501843718,1.15625,-0.234375,0.75
1630501843750,0.65625,-0.140625,0.375
1630501843781,0.8125,-0.171875,0.25
1630501843812,1.046875,-0.171875,0.375
1630501843843,0.84375,-0.171875,0.296875
1630501843875,0.859375,-0.1875,0.390625
1630501843906,1.0625,-0.171875,0.515625
1630501843937,0.921875,-0.140625,0.390625
1630501843968,0.921875,-0.234375,0.421875
1630501844000,1.09375,-0.296875,0.65625
1630501844031,0.8125,-0.3125,0.515625
1630501844062,1.015625,-0.125,0.234375
1630501844093,1.1875,-0.1875,0.25
1630501844125,0.8125,-0.234375,0.09375
1630501844156,0.953125,-0.21875,0.296875
1630501844187,0.875,-0.21875,0.40625
1630501844218,0.6875,-0.25,0.578125
1630501844250,0.640625,-0.25,0.734375
1630501844281,0.625,-0.25,0.734375
1630501844312,0.6875,-0.28125,0.703125
1630501844343,0.671875,-0.28125,0.65625
1630501844375,0.6875,-0.234375,0.625
1630501844406,0.765625,-0.21875,0.625
1630501844437,0.75,-0.203125,0.59375
1630501844468,0.734375,-0.203125,0.59375
1630501844500,0.765625,-0.203125,0.59375
1630501844531,0.765625,-0.21875,0.59375
1630501844562,0.765625,-0.234375,0.578125
1630501844593,0.78125,-0.234375,0.578125
1630501844625,0.78125,-0.234375,0.578125
1630501844656,0.796875,-0.21875,0.5625
1630501844687,0.78125,-0.21875,0.5625
1630501844718,0.796875,-0.21875,0.5625
1630501844750,0.796875,-0.234375,0.5625
1630501844781,0.78125,-0.234375,0.5625
1630501844812,0.8125,-0.234375,0.5625
1630501844843,0.8125,-0.234375,0.546875
1630501844875,0.828125,-0.234375,0.546875
1630501844906,0.8125,-0.25,0.546875
1630501844937,0.8125,-0.234375,0.546875
1630501844968,0.8125,-0.25,0.546875
1630501845000,0.8125,-0.234375,0.546875
1630501845031,0.796875,-0.234375,0.546875
1630501845062,0.8125,-0.234375,0.546875
1630501845093,0.8125,-0.234375,0.546875
1630501845125,0.796875,-0.234375,0.546875
1630501845156,0.796875,-0.234375,0.53125
1630501845187,0.8125,-0.234375,0.546875
1630501845218,0.8125,-0.234375,0.546875
1630501845250,0.8125,-0.234375,0.546875
1630501845281,0.8125,-0.234375,0.546875
1630501845312,0.8125,-0.234375,0.546875
1630501845343,0.8125,-0.234375,0.546875
1630501845375,0.8125,-0.234375,0.546875
1630501845406,0.8125,-0.234375,0.546875
1630501845437,0.796875,-0.234375,0.546875
1630501845468,0.796875,-0.234375,0.546875
1630501845500,0.8125,-0.234375,0.546875
1630501845531,0.8125,-0.234375,0.546875
1630501845562,0.8125,-0.234375,0.546875
1630501845593,0.8125,-0.234375,0.546875
1630501845625,0.796875,-0.234375,0.53125
1630501845656,0.8125,-0.234375,0.53125
1630501845687,0.8125,-0.234375,0.53125
1630501845718,0.8125,-0.234375,0.546875
1630501845750,0.8125,-0.234375,0.53125
1630501845781,0.8125,-0.25,0.53125
1630501845812,0.8125,-0.25,0.53125
1630501845843,0.78125,-0.25,0.5
1630501845875,0.75,-0.25,0.453125
1630501845906,0.890625,-0.203125,0.46875
1630501845937,0.890625,-0.1875,0.515625
1630501845968,0.90625,-0.234375,0.609375
1630501846000,0.828125,-0.265625,0.625
1630501846031,0.671875,-0.1875,0.546875
1630501846062,0.703125,-0.234375,0.515625
1630501846093,0.8125,-0.296875,0.640625
1630501846125,0.8125,-0.34375,0.734375
1630501846156,0.71875,-0.28125,0.578125
1630501846187,0.71875,-0.28125,0.5625
1630501846218,0.75,-0.265625,0.59375
1630501846250,0.765625,-0.265625,0.578125
1630501846281,0.78125,-0.265625,0.5625
1630501846312,0.765625,-0.265625,0.5625
1630501846343,0.75,-0.28125,0.5625
1630501846375,0.78125,-0.28125,0.59375
1630501846406,0.765625,-0.265625,0.578125
1630501846437,0.765625,-0.25,0.578125
1630501846468,0.78125,-0.234375,0.578125
1630501846500,0.78125,-0.25,0.578125
1630501846531,0.765625,-0.265625,0.578125
1630501846562,0.78125,-0.28125,0.5625
1630501846593,0.78125,-0.296875,0.5625
1630501846625,0.78125,-0.296875,0.546875
1630501846656,0.78125,-0.28125,0.546875
1630501846687,0.78125,-0.28125,0.5625
1630501846718,0.765625,-0.28125,0.5625
1630501846750,0.765625,-0.28125,0.5625
1630501846781,0.78125,-0.28125,0.5625
1630501846812,0.78125,-0.28125,0.5625
1630501846843,0.78125,-0.28125,0.5625
1630501846875,0.78125,-0.28125,0.5625
1630501846906,0.78125,-0.28125,0.5625
1630501846937,0.78125,-0.28125,0.5625
1630501846968,0.78125,-0.28125,0.5625
1630501847000,0.78125,-0.28125,0.5625
1630501847031,0.78125,-0.296875,0.5625
1630501847062,0.78125,-0.28125,0.5625
1630501847093,0.78125,-0.28125,0.546875
1630501847125,0.78125,-0.28125,0.546875
1630501847156,0.78125,-0.28125,0.5625
1630501847187,0.78125,-0.28125,0.5625
1630501847218,0.78125,-0.28125,0.5625
1630501847250,0.78125,-0.28125,0.5625
1630501847281,0.796875,-0.296875,0.5625
1630501847312,0.796875,-0.296875,0.546875
1630501847343,0.78125,-0.296875,0.546875
1630501847375,0.78125,-0.296875,0.546875
1630501847406,0.78125,-0.28125,0.53125
1630501847437,0.796875,-0.296875,0.53125
1630501847468,0.796875,-0.296875,0.546875
1630501847500,0.796875,-0.296875,0.53125
1630501847531,0.796875,-0.28125,0.546875
1630501847562,0.78125,-0.296875,0.546875
1630501847593,0.78125,-0.296875,0.546875
1630501847625,0.796875,-0.296875,0.546875
1630501847656,0.796875,-0.296875,0.546875
1630501847687,0.78125,-0.296875,0.546875
1630501847718,0.796875,-0.296875,0.546875
1630501847750,0.78125,-0.28125,0.546875
1630501847781,0.78125,-0.296875,0.546875
1630501847812,0.78125,-0.296875,0.546875
1630501847843,0.78125,-0.296875,0.546875
1630501847875,0.78125,-0.296875,0.546875
1630501847906,0.78125,-0.296875,0.546875
1630501847937,0.78125,-0.296875,0.546875
1630501847968,0.78125,-0.296875,0.546875
1630501848000,0.796875,-0.296875,0.546875
1630501848031,0.796875,-0.296875,0.546875
1630501848062,0.796875,-0.296875,0.546875
1630501848093,0.78125,-0.296875,0.546875
1630501848125,0.78125,-0.296875,0.546875
1630501848156,0.796875,-0.296875,0.53125
1630501848187,0.796875,-0.296875,0.53125
1630501848218,0.796875,-0.296875,0.53125
1630501848250,0.78125,-0.296875,0.53125
1630501848281,0.796875,-0.296875,0.546875
1630501848312,0.796875,-0.296875,0.53125
1630501848343,0.796875,-0.296875,0.53125
1630501848375,0.796875,-0.296875,0.53125
1630501848406,0.8125,-0.296875,0.53125
1630501848437,0.8125,-0.296875,0.53125
1630501848468,0.796875,-0.296875,0.53125
1630501848500,0.796875,-0.296875,0.53125
1630501848531,0.796875,-0.296875,0.53125
1630501848562,0.796875,-0.296875,0.53125
1630501848593,0.796875,-0.296875,0.53125
1630501848625,0.796875,-0.296875,0.546875
1630501848656,0.796875,-0.296875,0.53125
1630501848687,0.796875,-0.296875,0.53125
1630501848718,0.796875,-0.296875,0.546875
1630501848750,0.796875,-0.296875,0.53125
1630501848781,0.78125,-0.296875,0.53125
1630501848812,0.78125,-0.296875,0.53125
1630501848843,0.796875,-0.296875,0.53125
1630501848875,0.796875,-0.296875,0.53125
1630501848906,0.796875,-0.296875,0.53125
1630501848937,0.796875,-0.296875,0.53125
1630501848968,0.796875,-0.296875,0.53125
1630501849000,0.796875,-0.296875,0.53125
1630501849031,0.796875,-0.296875,0.53125
1630501849062,0.796875,-0.296875,0.53125
1630501849093,0.796875,-0.296875,0.53125
1630501849125,0.796875,-0.296875,0.53125
1630501849156,0.796875,-0.296875,0.53125
1630501849187,0.796875,-0.296875,0.53125
1630501849218,0.796875,-0.296875,0.53125
1630501849250,0.796875,-0.296875,0.53125
1630501849281,0.796875,-0.296875,0.53125
1630501849312,0.796875,-0.296875,0.546875
1630501849343,0.796875,-0.296875,0.53125
1630501849375,0.78125,-0.296875,0.53125
1630501849406,0.796875,-0.296875,0.53125
1630501849437,0.796875,-0.296875,0.53125
1630501849468,0.796875,-0.296875,0.53125
1630501849500,0.796875,-0.296875,0.53125
1630501849531,0.796875,-0.296875,0.53125
1630501849562,0.796875,-0.296875,0.53125
1630501849593,0.796875,-0.296875,0.53125
1630501849625,0.796875,-0.296875,0.53125
1630501849656,0.78125,-0.296875,0.53125
1630501849687,0.796875,-0.296875,0.546875
1630501849718,0.796875,-0.296875,0.53125
1630501849750,0.796875,-0.296875,0.53125
1630501849781,0.796875,-0.296875,0.53125
1630501849812,0.796875,-0.296875,0.546875
1630501849843,0.796875,-0.296875,0.546875
1630501849875,0.796875,-0.296875,0.546875
1630501849906,0.78125,-0.296875,0.53125
1630501849937,0.78125,-0.296875,0.53125
1630501849968,0.78125,-0.296875,0.546875
1630501850000,0.796875,-0.296875,0.53125
1630501850031,0.796875,-0.296875,0.53125
1630501850062,0.796875,-0.296875,0.546875
1630501850093,0.796875,-0.296875,0.546875
1630501850125,0.796875,-0.296875,0.53125
1630501850156,0.796875,-0.296875,0.53125
1630501850187,0.796875,-0.296875,0.53125
1630501850218,0.796875,-0.296875,0.53125
1630501850250,0.796875,-0.296875,0.53125
1630501850281,0.796875,-0.296875,0.53125
1630501850312,0.796875,-0.296875,0.53125
1630501850343,0.796875,-0.296875,0.546875
1630501850375,0.78125,-0.296875,0.546875
1630501850406,0.796875,-0.296875,0.53125
1630501850437,0.796875,-0.296875,0.53125
1630501850468,0.796875,-0.296875,0.53125
1630501850500,0.796875,-0.28125,0.53125
1630501850531,0.796875,-0.296875,0.546875
1630501850562,0.78125,-0.296875,0.546875
1630501850593,0.796875,-0.296875,0.546875
1630501850625,0.796875,-0.296875,0.53125
1630501850656,0.796875,-0.296875,0.53125
1630501850687,0.78125,-0.296875,0.546875
1630501850718,0.796875,-0.296875,0.53125
1630501850750,0.796875,-0.296875,0.53125
1630501850781,0.796875,-0.296875,0.546875
1630501850812,0.78125,-0.28125,0.546875
1630501850843,0.78125,-0.296875,0.546875
1630501850875,0.78125,-0.28125,0.546875
1630501850906,0.78125,-0.296875,0.546875
1630501850937,0.78125,-0.296875,0.546875
1630501850968,0.78125,-0.296875,0.546875
1630501851000,0.796875,-0.296875,0.546875
1630501851031,0.796875,-0.296875,0.546875
1630501851062,0.78125,-0.296875,0.546875
1630501851093,0.78125,-0.28125,0.546875
1630501851125,0.78125,-0.28125,0.546875
1630501851156,0.78125,-0.28125,0.546875
1630501851187,0.78125,-0.28125,0.546875
1630501851218,0.78125,-0.296875,0.546875
1630501851250,0.78125,-0.28125,0.546875
1630501851281,0.796875,-0.296875,0.546875
1630501851312,0.78125,-0.296875,0.546875
1630501851343,0.78125,-0.296875,0.546875
1630501851375,0.78125,-0.296875,0.546875
1630501851406,0.78125,-0.28125,0.546875
1630501851437,0.78125,-0.28125,0.546875
1630501851468,0.78125,-0.296875,0.546875
1630501851500,0.796875,-0.296875,0.546875
1630501851531,0.78125,-0.296875,0.5625
1630501851562,0.78125,-0.28125,0.546875
1630501851593,0.78125,-0.28125,0.546875
1630501851625,0.765625,-0.28125,0.546875
1630501851656,0.765625,-0.28125,0.546875
1630501851687,0.796875,-0.28125,0.5625
1630501851718,0.796875,-0.28125,0.5625
1630501851750,0.796875,-0.28125,0.5625
1630501851781,0.8125,-0.296875,0.5625
1630501851812,0.796875,-0.296875,0.53125
1630501851843,0.78125,-0.3125,0.5625
1630501851875,0.765625,-0.296875,0.5625
1630501851906,0.75,-0.296875,0.515625
1630501851937,0.734375,-0.28125,0.484375
1630501851968,0.78125,-0.28125,0.53125
1630501852000,0.78125,-0.265625,0.421875
1630501852031,0.875,-0.265625,0.40625
1630501852062,0.890625,-0.265625,0.328125
1630501852093,0.9375,-0.234375,0.328125
1630501852125,1.046875,-0.234375,0.328125
1630501852156,0.921875,-0.203125,0.25
1630501852187,0.90625,-0.21875,0.25
1630501852218,0.96875,-0.203125,0.21875
1630501852250,0.9375,-0.203125,0.234375
1630501852281,0.921875,-0.171875,0.203125
1630501852312,1.046875,-0.21875,0.25
1630501852343,1.0,-0.171875,0.234375
1630501852375,0.96875,-0.1875,0.125
1630501852406,0.984375,-0.140625,-0.046875
1630501852437,0.921875,-0.203125,-0.015625
1630501852468,1.03125,-0.203125,0.234375
1630501852500,0.984375,-0.203125,0.1875
1630501852531,1.0625,-0.125,0.109375
1630501852562,1.109375,-0.125,0.03125
1630501852593,1.0,-0.125,-0.03125
1630501852625,0.9375,-0.171875,0.046875
1630501852656,1.046875,-0.203125,0.203125
1630501852687,0.84375,-0.28125,0.3125
1630501852718,0.8125,-0.3125,0.421875
1630501852750,0.84375,-0.296875,0.4375
1630501852781,0.890625,-0.265625,0.390625
1630501852812,0.921875,-0.234375,0.359375
1630501852843,0.90625,-0.234375,0.34375
1630501852875,0.890625,-0.21875,0.390625
1630501852906,0.875,-0.21875,0.421875
1630501852937,0.859375,-0.234375,0.4375
1630501852968,0.875,-0.234375,0.421875
1630501853000,0.859375,-0.234375,0.40625
1630501853031,0.859375,-0.25,0.453125
1630501853062,0.84375,-0.25,0.453125
1630501853093,0.84375,-0.25,0.484375
1630501853125,0.84375,-0.25,0.46875
1630501853156,0.859375,-0.25,0.453125
1630501853187,0.875,-0.234375,0.453125
1630501853218,0.875,-0.234375,0.453125
1630501853250,0.859375,-0.234375,0.453125
1630501853281,0.859375,-0.234375,0.453125
1630501853312,0.859375,-0.234375,0.453125
1630501853343,0.859375,-0.234375,0.453125
1630501853375,0.875,-0.234375,0.453125
1630501853406,0.859375,-0.234375,0.453125
1630501853437,0.859375,-0.234375,0.453125
1630501853468,0.859375,-0.234375,0.453125
1630501853500,0.859375,-0.234375,0.453125
1630501853531,0.859375,-0.25,0.453125
1630501853562,0.875,-0.25,0.453125
1630501853593,0.875,-0.234375,0.4375
1630501853625,0.859375,-0.234375,0.453125
1630501853656,0.859375,-0.25,0.453125
1630501853687,0.859375,-0.234375,0.4375
1630501853718,0.859375,-0.234375,0.453125
1630501853750,0.859375,-0.234375,0.453125
1630501853781,0.859375,-0.25,0.453125
1630501853812,0.875,-0.234375,0.453125
1630501853843,0.859375,-0.25,0.453125
1630501853875,0.859375,-0.234375,0.453125
1630501853906,0.859375,-0.234375,0.453125
1630501853937,0.859375,-0.234375,0.453125
1630501853968,0.859375,-0.234375,0.453125
1630501854000,0.859375,-0.25,0.453125
1630501854031,0.859375,-0.234375,0.453125
1630501854062,0.859375,-0.25,0.453125
1630501854093,0.859375,-0.25,0.453125
1630501854125,0.859375,-0.234375,0.453125
1630501854156,0.859375,-0.234375,0.453125
1630501854187,0.875,-0.234375,0.453125
1630501854218,0.859375,-0.234375,0.453125
1630501854250,0.859375,-0.234375,0.453125
1630501854281,0.859375,-0.234375,0.453125
1630501854312,0.859375,-0.234375,0.453125
1630501854343,0.859375,-0.234375,0.453125
1630501854375,0.859375,-0.234375,0.453125
1630501854406,0.875,-0.234375,0.453125
1630501854437,0.859375,-0.234375,0.453125
1630501854468,0.859375,-0.234375,0.453125
1630501854500,0.859375,-0.234375,0.453125
1630501854531,0.859375,-0.234375,0.453125
1630501854562,0.859375,-0.25,0.453125
1630501854593,0.859375,-0.234375,0.4375
1630501854625,0.859375,-0.25,0.453125
1630501854656,0.875,-0.25,0.4375
1630501854687,0.875,-0.25,0.4375
1630501854718,0.875,-0.25,0.4375
1630501854750,0.875,-0.25,0.4375
1630501854781,0.875,-0.25,0.4375
1630501854812,0.859375,-0.25,0.4375
1630501854843,0.875,-0.25,0.4375
1630501854875,0.875,-0.25,0.4375
1630501854906,0.875,-0.25,0.4375
1630501854937,0.875,-0.25,0.4375
1630501854968,0.875,-0.25,0.4375
1630501855000,0.875,-0.25,0.4375
1630501855031,0.859375,-0.25,0.4375
1630501855062,0.875,-0.25,0.4375
1630501855093,0.875,-0.25,0.4375
1630501855125,0.859375,-0.25,0.4375
1630501855156,0.875,-0.25,0.4375
1630501855187,0.875,-0.25,0.4375
1630501855218,0.875,-0.25,0.4375
1630501855250,0.875,-0.25,0.4375
1630501855281,0.875,-0.25,0.4375
1630501855312,0.875,-0.25,0.4375
1630501855343,0.875,-0.25,0.4375
1630501855375,0.875,-0.25,0.453125
1630501855406,0.859375,-0.25,0.4375
1630501855437,0.859375,-0.234375,0.453125
1630501855468,0.875,-0.25,0.4375
1630501855500,0.859375,-0.25,0.4375
1630501855531,0.859375,-0.25,0.4375
1630501855562,0.859375,-0.25,0.4375
1630501855593,0.859375,-0.25,0.453125
1630501855625,0.859375,-0.25,0.453125
1630501855656,0.859375,-0.234375,0.453125
1630501855687,0.859375,-0.25,0.453125
1630501855718,0.859375,-0.25,0.453125
1630501855750,0.859375,-0.234375,0.453125
1630501855781,0.859375,-0.25,0.453125
1630501855812,0.859375,-0.234375,0.453125
1630501855843,0.859375,-0.25,0.453125
1630501855875,0.859375,-0.25,0.453125
1630501855906,0.859375,-0.25,0.453125
1630501855937,0.859375,-0.234375,0.453125
1630501855968,0.859375,-0.25,0.453125
1630501856000,0.859375,-0.25,0.453125
1630501856031,0.859375,-0.25,0.453125
1630501856062,0.859375,-0.234375,0.453125
1630501856093,0.859375,-0.234375,0.453125
1630501856125,0.859375,-0.25,0.453125
1630501856156,0.875,-0.25,0.453125
1630501856187,0.875,-0.234375,0.453125
1630501856218,0.859375,-0.25,0.453125
1630501856250,0.859375,-0.25,0.453125
1630501856281,0.859375,-0.234375,0.453125
1630501856312,0.859375,-0.234375,0.453125
1630501856343,0.859375,-0.25,0.453125
1630501856375,0.859375,-0.234375,0.453125
1630501856406,0.859375,-0.25,0.453125
1630501856437,0.859375,-0.25,0.453125
1630501856468,0.859375,-0.234375,0.453125
1630501856500,0.859375,-0.25,0.453125
1630501856531,0.859375,-0.25,0.453125
1630501856562,0.875,-0.234375,0.453125
1630501856593,0.859375,-0.234375,0.453125
1630501856625,0.859375,-0.234375,0.453125
1630501856656,0.859375,-0.234375,0.453125
1630501856687,0.859375,-0.234375,0.453125
1630501856718,0.859375,-0.25,0.453125
1630501856750,0.859375,-0.25,0.453125
1630501856781,0.875,-0.25,0.453125
1630501856812,0.859375,-0.234375,0.453125
1630501856843,0.859375,-0.25,0.453125
1630501856875,0.859375,-0.25,0.453125
1630501856906,0.859375,-0.234375,0.453125
1630501856937,0.859375,-0.25,0.453125
1630501856968,0.859375,-0.234375,0.453125
1630501857000,0.859375,-0.25,0.453125
1630501857031,0.859375,-0.25,0.453125
1630501857062,0.859375,-0.25,0.453125
1630501857093,0.859375,-0.25,0.453125
1630501857125,0.859375,-0.234375,0.4375
1630501857156,0.859375,-0.25,0.453125
1630501857187,0.859375,-0.25,0.453125
1630501857218,0.859375,-0.234375,0.4375
1630501857250,0.875,-0.25,0.4375
1630501857281,0.859375,-0.234375,0.4375
1630501857312,0.875,-0.25,0.4375
1630501857343,0.875,-0.25,0.4375
1630501857375,0.859375,-0.25,0.4375
1630501857406,0.859375,-0.25,0.453125
1630501857437,0.875,-0.25,0.453125
1630501857468,0.875,-0.25,0.4375
1630501857500,0.875,-0.25,0.4375
1630501857531,0.859375,-0.25,0.4375
1630501857562,0.859375,-0.25,0.4375
1630501857593,0.875,-0.25,0.4375
1630501857625,0.875,-0.25,0.4375
1630501857656,0.859375,-0.25,0.4375
1630501857687,0.875,-0.25,0.4375
1630501857718,0.875,-0.25,0.4375
1630501857750,0.875,-0.25,0.4375
1630501857781,0.859375,-0.25,0.4375
1630501857812,0.875,-0.25,0.4375
1630501857843,0.859375,-0.25,0.4375
1630501857875,0.875,-0.25,0.453125
1630501857906,0.859375,-0.25,0.4375
1630501857937,0.859375,-0.25,0.453125
1630501857968,0.875,-0.25,0.453125
1630501858000,0.875,-0.25,0.453125
1630501858031,0.859375,-0.234375,0.453125
1630501858062,0.859375,-0.25,0.453125
1630501858093,0.859375,-0.25,0.453125
1630501858125,0.84375,-0.234375,0.4375
1630501858156,0.84375,-0.234375,0.4375
1630501858187,0.859375,-0.234375,0.4375
1630501858218,0.875,-0.25,0.453125
1630501858250,0.890625,-0.234375,0.453125
1630501858281,0.859375,-0.25,0.453125
1630501858312,0.859375,-0.25,0.421875
1630501858343,0.875,-0.25,0.421875
1630501858375,0.890625,-0.265625,0.421875
1630501858406,0.875,-0.265625,0.40625
1630501858437,0.859375,-0.265625,0.40625
1630501858468,0.875,-0.28125,0.421875
1630501858500,0.890625,-0.28125,0.421875
1630501858531,0.890625,-0.265625,0.34375
1630501858562,0.9375,-0.25,0.296875
1630501858593,0.9375,-0.25,0.28125
1630501858625,0.96875,-0.25,0.265625
1630501858656,0.96875,-0.265625,0.265625
1630501858687,0.953125,-0.265625,0.265625
1630501858718,0.921875,-0.265625,0.28125
1630501858750,0.921875,-0.265625,0.265625
1630501858781,0.953125,-0.25,0.25
1630501858812,0.96875,-0.25,0.265625
1630501858843,0.953125,-0.25,0.28125
1630501858875,0.953125,-0.265625,0.296875
1630501858906,0.9375,-0.28125,0.296875
1630501858937,0.890625,-0.265625,0.265625
1630501858968,0.9375,-0.265625,0.25
1630501859000,0.921875,-0.28125,0.265625
1630501859031,0.90625,-0.265625,0.265625
1630501859062,0.90625,-0.25,0.265625
1630501859093,0.921875,-0.25,0.265625
1630501859125,0.96875,-0.25,0.3125
1630501859156,0.96875,-0.25,0.34375
1630501859187,0.890625,-0.25,0.28125
1630501859218,0.875,-0.265625,0.28125
1630501859250,0.953125,-0.265625,0.34375
1630501859281,0.890625,-0.28125,0.3125
1630501859312,0.890625,-0.265625,0.3125
1630501859343,0.9375,-0.265625,0.328125
1630501859375,0.921875,-0.265625,0.3125
1630501859406,0.921875,-0.234375,0.296875
1630501859437,0.9375,-0.234375,0.3125
1630501859468,0.9375,-0.25,0.328125
1630501859500,0.9375,-0.265625,0.3125
1630501859531,0.9375,-0.265625,0.3125
1630501859562,0.921875,-0.25,0.296875
1630501859593,0.921875,-0.25,0.296875
1630501859625,0.921875,-0.25,0.296875
1630501859656,0.9375,-0.25,0.296875
1630501859687,0.9375,-0.25,0.296875
1630501859718,0.921875,-0.265625,0.296875
1630501859750,0.921875,-0.265625,0.296875
1630501859781,0.921875,-0.265625,0.296875
1630501859812,0.921875,-0.28125,0.296875
1630501859843,0.9375,-0.265625,0.3125
1630501859875,0.9375,-0.25,0.3125
1630501859906,0.921875,-0.234375,0.28125
1630501859937,0.921875,-0.234375,0.28125
1630501859968,0.921875,-0.25,0.296875
1630501860000,0.9375,-0.265625,0.328125
1630501860031,0.9375,-0.265625,0.328125
1630501860062,0.921875,-0.265625,0.3125
1630501860093,0.921875,-0.265625,0.3125
1630501860125,0.921875,-0.25,0.3125
1630501860156,0.90625,-0.25,0.296875
1630501860187,0.921875,-0.25,0.296875
1630501860218,0.9375,-0.265625,0.3125
1630501860250,0.921875,-0.265625,0.328125
1630501860281,0.921875,-0.265625,0.328125
1630501860312,0.921875,-0.25,0.328125
1630501860343,0.921875,-0.25,0.328125
1630501860375,0.90625,-0.25,0.328125
1630501860406,0.90625,-0.25,0.328125
1630501860437,0.90625,-0.25,0.34375
1630501860468,0.90625,-0.25,0.34375
1630501860500,0.90625,-0.25,0.34375
1630501860531,0.921875,-0.25,0.34375
1630501860562,0.921875,-0.25,0.34375
1630501860593,0.90625,-0.25,0.34375
1630501860625,0.90625,-0.25,0.34375
1630501860656,0.90625,-0.25,0.34375
1630501860687,0.90625,-0.25,0.34375
1630501860718,0.90625,-0.25,0.34375
1630501860750,0.90625,-0.25,0.34375
1630501860781,0.921875,-0.25,0.34375
1630501860812,0.921875,-0.25,0.34375
1630501860843,0.90625,-0.25,0.34375
1630501860875,0.90625,-0.25,0.34375
1630501860906,0.90625,-0.25,0.34375
1630501860937,0.90625,-0.25,0.34375
1630501860968,0.90625,-0.25,0.34375
1630501861000,0.90625,-0.25,0.34375
1630501861031,0.90625,-0.25,0.34375
1630501861062,0.90625,-0.25,0.34375
1630501861093,0.90625,-0.25,0.34375
1630501861125,0.90625,-0.25,0.34375
1630501861156,0.90625,-0.25,0.34375
1630501861187,0.90625,-0.25,0.34375
1630501861218,0.90625,-0.25,0.34375
1630501861250,0.90625,-0.25,0.34375
1630501861281,0.90625,-0.25,0.34375
1630501861312,0.90625,-0.25,0.34375
1630501861343,0.90625,-0.25,0.34375
1630501861375,0.90625,-0.25,0.34375
1630501861406,0.90625,-0.25,0.34375
1630501861437,0.90625,-0.265625,0.34375
1630501861468,0.90625,-0.265625,0.34375
1630501861500,0.921875,-0.25,0.34375
1630501861531,0.90625,-0.25,0.34375
1630501861562,0.90625,-0.265625,0.34375
1630501861593,0.921875,-0.25,0.34375
1630501861625,0.921875,-0.25,0.34375
1630501861656,0.90625,-0.265625,0.34375
1630501861687,0.90625,-0.25,0.34375
1630501861718,0.921875,-0.25,0.34375
1630501861750,0.921875,-0.25,0.34375
1630501861781,0.921875,-0.25,0.34375
1630501861812,0.90625,-0.265625,0.34375
1630501861843,0.90625,-0.265625,0.34375
1630501861875,0.90625,-0.265625,0.34375
1630501861906,0.90625,-0.25,0.34375
1630501861937,0.921875,-0.265625,0.328125
1630501861968,0.90625,-0.25,0.34375
1630501862000,0.90625,-0.25,0.34375
1630501862031,0.921875,-0.265625,0.34375
1630501862062,0.921875,-0.25,0.34375
1630501862093,0.90625,-0.265625,0.34375
1630501862125,0.90625,-0.25,0.34375
1630501862156,0.90625,-0.25,0.34375
1630501862187,0.90625,-0.25,0.34375
1630501862218,0.90625,-0.25,0.34375
1630501862250,0.90625,-0.25,0.34375
1630501862281,0.90625,-0.25,0.34375
1630501862312,0.90625,-0.25,0.34375
1630501862343,0.90625,-0.25,0.34375
1630501862375,0.90625,-0.25,0.34375
1630501862406,0.90625,-0.25,0.34375
1630501862437,0.90625,-0.25,0.359375
1630501862468,0.90625,-0.25,0.34375
1630501862500,0.90625,-0.25,0.34375
1630501862531,0.90625,-0.25,0.34375
1630501862562,0.90625,-0.25,0.34375
1630501862593,0.90625,-0.25,0.34375
1630501862625,0.90625,-0.25,0.34375
1630501862656,0.90625,-0.25,0.34375
1630501862687,0.90625,-0.265625,0.34375
1630501862718,0.90625,-0.25,0.34375
1630501862750,0.90625,-0.25,0.34375
1630501862781,0.90625,-0.25,0.34375
1630501862812,0.90625,-0.25,0.34375
1630501862843,0.90625,-0.25,0.34375
1630501862875,0.90625,-0.25,0.34375
1630501862906,0.90625,-0.25,0.34375
1630501862937,0.90625,-0.25,0.34375
1630501862968,0.90625,-0.25,0.34375
1630501863000,0.90625,-0.25,0.34375
1630501863031,0.90625,-0.25,0.34375
1630501863062,0.90625,-0.25,0.359375
1630501863093,0.90625,-0.25,0.34375
1630501863125,0.90625,-0.25,0.34375
1630501863156,0.90625,-0.25,0.34375
1630501863187,0.90625,-0.25,0.34375
1630501863218,0.90625,-0.25,0.34375
1630501863250,0.90625,-0.25,0.359375
1630501863281,0.90625,-0.25,0.34375
1630501863312,0.90625,-0.25,0.34375
1630501863343,0.90625,-0.25,0.34375
1630501863375,0.90625,-0.25,0.359375
1630501863406,0.90625,-0.25,0.359375
1630501863437,0.90625,-0.25,0.34375
1630501863468,0.90625,-0.25,0.34375
1630501863500,0.90625,-0.25,0.34375
1630501863531,0.90625,-0.25,0.34375
1630501863562,0.90625,-0.25,0.34375
1630501863593,0.90625,-0.25,0.34375
1630501863625,0.90625,-0.25,0.359375
1630501863656,0.90625,-0.25,0.359375
1630501863687,0.90625,-0.25,0.34375
1630501863718,0.90625,-0.25,0.34375
1630501863750,0.90625,-0.25,0.34375
1630501863781,0.90625,-0.25,0.359375
1630501863812,0.90625,-0.25,0.34375
1630501863843,0.90625,-0.25,0.359375
1630501863875,0.90625,-0.25,0.359375
1630501863906,0.90625,-0.25,0.34375
1630501863937,0.90625,-0.25,0.34375
1630501863968,0.90625,-0.265625,0.34375
1630501864000,0.90625,-0.25,0.34375
1630501864031,0.90625,-0.25,0.34375
1630501864062,0.90625,-0.265625,0.34375
1630501864093,0.90625,-0.25,0.34375
1630501864125,0.90625,-0.25,0.34375
1630501864156,0.90625,-0.265625,0.34375
1630501864187,0.90625,-0.25,0.34375
1630501864218,0.90625,-0.25,0.34375
1630501864250,0.90625,-0.265625,0.34375
1630501864281,0.90625,-0.265625,0.34375
1630501864312,0.90625,-0.25,0.34375
1630501864343,0.90625,-0.25,0.34375
1630501864375,0.90625,-0.25,0.34375
1630501864406,0.90625,-0.25,0.34375
1630501864437,0.90625,-0.25,0.34375
1630501864468,0.90625,-0.25,0.34375
1630501864500,0.90625,-0.25,0.34375
1630501864531,0.90625,-0.265625,0.34375
1630501864562,0.90625,-0.265625,0.34375
1630501864593,0.90625,-0.25,0.34375
1630501864625,0.90625,-0.25,0.34375
1630501864656,0.90625,-0.25,0.34375
1630501864687,0.90625,-0.25,0.34375
1630501864718,0.90625,-0.25,0.359375
1630501864750,0.90625,-0.25,0.34375
1630501864781,0.90625,-0.25,0.34375
1630501864812,0.90625,-0.25,0.34375
1630501864843,0.90625,-0.25,0.359375
1630501864875,0.90625,-0.25,0.359375
1630501864906,0.90625,-0.25,0.34375
1630501864937,0.90625,-0.25,0.34375
1630501864968,0.921875,-0.25,0.34375
1630501865000,0.90625,-0.25,0.34375
1630501865031,0.90625,-0.25,0.359375
1630501865062,0.90625,-0.25,0.34375
1630501865093,0.90625,-0.25,0.359375
1630501865125,0.90625,-0.25,0.34375
1630501865156,0.90625,-0.25,0.34375
1630501865187,0.90625,-0.25,0.34375
1630501865218,0.90625,-0.25,0.34375
1630501865250,0.90625,-0.25,0.34375
1630501865281,0.90625,-0.25,0.34375
1630501865312,0.90625,-0.25,0.34375
1630501865343,0.90625,-0.25,0.34375
1630501865375,0.90625,-0.25,0.34375
1630501865406,0.921875,-0.25,0.34375
1630501865437,0.90625,-0.25,0.34375
1630501865468,0.90625,-0.25,0.34375
1630501865500,0.90625,-0.25,0.359375
1630501865531,0.90625,-0.25,0.34375
1630501865562,0.90625,-0.25,0.34375
1630501865593,0.90625,-0.25,0.34375
1630501865625,0.90625,-0.25,0.34375
1630501865656,0.90625,-0.25,0.34375
1630501865687,0.90625,-0.25,0.359375
1630501865718,0.90625,-0.25,0.34375
1630501865750,0.90625,-0.25,0.34375
1630501865781,0.90625,-0.25,0.34375
1630501865812,0.90625,-0.25,0.359375
1630501865843,0.90625,-0.25,0.359375
1630501865875,0.90625,-0.25,0.34375
1630501865906,0.90625,-0.25,0.359375
1630501865937,0.90625,-0.25,0.359375
1630501865968,0.90625,-0.25,0.359375
1630501866000,0.90625,-0.25,0.359375
1630501866031,0.90625,-0.25,0.359375
1630501866062,0.90625,-0.25,0.34375
1630501866093,0.90625,-0.25,0.359375
1630501866125,0.90625,-0.25,0.359375
1630501866156,0.90625,-0.25,0.34375
1630501866187,0.90625,-0.25,0.359375
1630501866218,0.90625,-0.25,0.34375
1630501866250,0.90625,-0.25,0.34375
1630501866281,0.90625,-0.25,0.34375
1630501866312,0.90625,-0.25,0.34375
1630501866343,0.90625,-0.265625,0.34375
1630501866375,0.90625,-0.25,0.359375
1630501866406,0.90625,-0.25,0.34375
1630501866437,0.90625,-0.25,0.34375
1630501866468,0.90625,-0.25,0.359375
1630501866500,0.90625,-0.25,0.359375
1630501866531,0.90625,-0.25,0.34375
1630501866562,0.90625,-0.25,0.34375
1630501866593,0.90625,-0.25,0.34375
1630501866625,0.90625,-0.25,0.34375
1630501866656,0.90625,-0.25,0.34375
1630501866687,0.90625,-0.25,0.34375
1630501866718,0.90625,-0.25,0.34375
1630501866750,0.90625,-0.25,0.34375
1630501866781,0.921875,-0.25,0.34375
1630501866812,0.90625,-0.25,0.34375
1630501866843,0.90625,-0.265625,0.34375
1630501866875,0.90625,-0.25,0.34375
1630501866906,0.90625,-0.265625,0.34375
1630501866937,0.90625,-0.265625,0.34375
1630501866968,0.90625,-0.265625,0.34375
1630501867000,0.90625,-0.25,0.34375
1630501867031,0.90625,-0.265625,0.34375
1630501867062,0.90625,-0.265625,0.34375
1630501867093,0.90625,-0.265625,0.34375
1630501867125,0.90625,-0.265625,0.34375
1630501867156,0.90625,-0.25,0.34375
1630501867187,0.90625,-0.25,0.34375
1630501867218,0.90625,-0.25,0.34375
1630501867250,0.90625,-0.25,0.34375
1630501867281,0.90625,-0.25,0.34375
1630501867312,0.90625,-0.25,0.34375
1630501867343,0.90625,-0.25,0.34375
1630501867375,0.90625,-0.25,0.359375
1630501867406,0.90625,-0.25,0.34375
1630501867437,0.90625,-0.25,0.34375
1630501867468,0.90625,-0.25,0.34375
1630501867500,0.90625,-0.25,0.34375
1630501867531,0.90625,-0.25,0.359375
1630501867562,0.90625,-0.25,0.34375
1630501867593,0.90625,-0.25,0.34375
1630501867625,0.90625,-0.265625,0.34375
1630501867656,0.90625,-0.25,0.34375
1630501867687,0.90625,-0.25,0.34375
1630501867718,0.90625,-0.25,0.359375
1630501867750,0.90625,-0.25,0.34375
1630501867781,0.90625,-0.25,0.359375
1630501867812,0.90625,-0.25,0.34375
1630501867843,0.90625,-0.25,0.34375
1630501867875,0.90625,-0.25,0.359375
1630501867906,0.90625,-0.25,0.359375
1630501867937,0.90625,-0.25,0.359375
1630501867968,0.90625,-0.25,0.359375
1630501868000,0.90625,-0.25,0.359375
1630501868031,0.90625,-0.25,0.359375
1630501868062,0.90625,-0.25,0.34375
1630501868093,0.90625,-0.25,0.359375
1630501868125,0.90625,-0.25,0.359375
1630501868156,0.90625,-0.25,0.359375
1630501868187,0.90625,-0.25,0.359375
1630501868218,0.90625,-0.25,0.359375
1630501868250,0.90625,-0.25,0.359375
1630501868281,0.90625,-0.25,0.359375
1630501868312,0.90625,-0.25,0.34375
1630501868343,0.90625,-0.25,0.359375
1630501868375,0.90625,-0.25,0.359375
1630501868406,0.90625,-0.25,0.34375
1630501868437,0.90625,-0.25,0.359375
1630501868468,0.90625,-0.25,0.34375
1630501868500,0.90625,-0.25,0.359375
1630501868531,0.90625,-0.25,0.359375
1630501868562,0.90625,-0.25,0.34375
1630501868593,0.90625,-0.25,0.359375
1630501868625,0.90625,-0.25,0.34375
1630501868656,0.90625,-0.25,0.359375
1630501868687,0.90625,-0.25,0.359375
1630501868718,0.90625,-0.25,0.34375
1630501868750,0.90625,-0.25,0.359375
1630501868781,0.90625,-0.25,0.359375
1630501868812,0.90625,-0.25,0.359375
1630501868843,0.90625,-0.265625,0.34375
1630501868875,0.90625,-0.25,0.359375
1630501868906,0.90625,-0.25,0.34375
1630501868937,0.90625,-0.25,0.34375
1630501868968,0.90625,-0.25,0.34375
1630501869000,0.90625,-0.25,0.34375
1630501869031,0.90625,-0.25,0.34375
1630501869062,0.90625,-0.265625,0.359375
1630501869093,0.90625,-0.25,0.34375
1630501869125,0.90625,-0.25,0.34375
1630501869156,0.90625,-0.25,0.34375
1630501869187,0.90625,-0.25,0.34375
1630501869218,0.90625,-0.25,0.34375
1630501869250,0.90625,-0.25,0.34375
1630501869281,0.90625,-0.265625,0.34375
1630501869312,0.90625,-0.265625,0.34375
1630501869343,0.90625,-0.265625,0.34375
1630501869375,0.90625,-0.265625,0.34375
1630501869406,0.90625,-0.25,0.34375
1630501869437,0.90625,-0.25,0.34375
1630501869468,0.90625,-0.25,0.34375
1630501869500,0.90625,-0.25,0.34375
1630501869531,0.90625,-0.25,0.34375
1630501869562,0.90625,-0.25,0.34375
1630501869593,0.90625,-0.25,0.34375
1630501869625,0.90625,-0.25,0.34375
1630501869656,0.90625,-0.265625,0.34375
1630501869687,0.90625,-0.265625,0.34375
1630501869718,0.90625,-0.25,0.359375
1630501869750,0.90625,-0.25,0.359375
1630501869781,0.90625,-0.25,0.359375
1630501869812,0.90625,-0.25,0.359375
1630501869843,0.90625,-0.25,0.359375
1630501869875,0.90625,-0.25,0.34375
1630501869906,0.90625,-0.25,0.359375
1630501869937,0.90625,-0.25,0.359375
1630501869968,0.90625,-0.265625,0.34375
1630501870000,0.90625,-0.25,0.34375
1630501870031,0.90625,-0.265625,0.359375
1630501870062,0.90625,-0.25,0.34375
1630501870093,0.90625,-0.25,0.34375
1630501870125,0.90625,-0.25,0.34375
1630501870156,0.90625,-0.25,0.359375
1630501870187,0.90625,-0.265625,0.34375
1630501870218,0.90625,-0.25,0.359375
1630501870250,0.90625,-0.25,0.34375
1630501870281,0.90625,-0.25,0.34375
1630501870312,0.90625,-0.25,0.359375
1630501870343,0.90625,-0.265625,0.359375
1630501870375,0.90625,-0.265625,0.34375
1630501870406,0.90625,-0.25,0.34375
1630501870437,0.90625,-0.25,0.359375
1630501870468,0.90625,-0.25,0.359375
1630501870500,0.90625,-0.25,0.359375
1630501870531,0.90625,-0.25,0.359375
1630501870562,0.90625,-0.25,0.34375
1630501870593,0.90625,-0.25,0.359375
1630501870625,0.90625,-0.25,0.34375
1630501870656,0.90625,-0.25,0.359375
1630501870687,0.90625,-0.25,0.359375
1630501870718,0.90625,-0.25,0.34375
1630501870750,0.90625,-0.25,0.359375
1630501870781,0.90625,-0.25,0.359375
1630501870812,0.90625,-0.25,0.359375
1630501870843,0.90625,-0.25,0.359375
1630501870875,0.90625,-0.25,0.359375
1630501870906,0.90625,-0.25,0.359375
1630501870937,0.90625,-0.25,0.34375
1630501870968,0.90625,-0.25,0.34375
1630501871000,0.90625,-0.25,0.359375
1630501871031,0.90625,-0.25,0.359375
1630501871062,0.90625,-0.265625,0.359375
1630501871093,0.90625,-0.25,0.34375
1630501871125,0.90625,-0.25,0.359375
1630501871156,0.90625,-0.25,0.359375
1630501871187,0.90625,-0.25,0.359375
1630501871218,0.90625,-0.265625,0.359375
1630501871250,0.90625,-0.25,0.34375
1630501871281,0.90625,-0.25,0.359375
1630501871312,0.90625,-0.265625,0.359375
1630501871343,0.90625,-0.25,0.359375
1630501871375,0.90625,-0.265625,0.34375
1630501871406,0.90625,-0.25,0.359375
1630501871437,0.90625,-0.25,0.34375
1630501871468,0.90625,-0.25,0.34375
1630501871500,0.90625,-0.25,0.34375
1630501871531,0.90625,-0.25,0.34375
1630501871562,0.90625,-0.25,0.34375
1630501871593,0.90625,-0.265625,0.34375
1630501871625,0.90625,-0.265625,0.34375
1630501871656,0.90625,-0.265625,0.34375
1630501871687,0.90625,-0.265625,0.34375
1630501871718,0.90625,-0.25,0.34375
1630501871750,0.90625,-0.265625,0.34375
1630501871781,0.90625,-0.265625,0.34375
1630501871812,0.90625,-0.25,0.34375
1630501871843,0.90625,-0.265625,0.34375
1630501871875,0.90625,-0.265625,0.34375
1630501871906,0.90625,-0.265625,0.34375
1630501871937,0.90625,-0.265625,0.34375
1630501871968,0.90625,-0.265625,0.34375
1630501872000,0.90625,-0.25,0.34375
1630501872031,0.90625,-0.265625,0.34375
1630501872062,0.90625,-0.265625,0.34375
1630501872093,0.90625,-0.265625,0.34375
1630501872125,0.90625,-0.25,0.34375
1630501872156,0.90625,-0.25,0.34375
1630501872187,0.90625,-0.265625,0.34375
1630501872218,0.90625,-0.265625,0.34375
1630501872250,0.90625,-0.25,0.34375
1630501872281,0.90625,-0.25,0.34375
1630501872312,0.90625,-0.25,0.359375
1630501872343,0.90625,-0.25,0.34375
1630501872375,0.90625,-0.25,0.359375
1630501872406,0.90625,-0.25,0.34375
1630501872437,0.90625,-0.25,0.34375
1630501872468,0.90625,-0.25,0.359375
1630501872500,0.90625,-0.25,0.34375
1630501872531,0.90625,-0.265625,0.359375
1630501872562,0.90625,-0.25,0.34375
1630501872593,0.90625,-0.25,0.34375
1630501872625,0.90625,-0.25,0.359375
1630501872656,0.90625,-0.25,0.34375
1630501872687,0.90625,-0.25,0.359375
1630501872718,0.90625,-0.265625,0.359375
1630501872750,0.90625,-0.265625,0.359375
1630501872781,0.90625,-0.25,0.359375
1630501872812,0.90625,-0.25,0.359375
1630501872843,0.90625,-0.265625,0.359375
1630501872875,0.90625,-0.265625,0.359375
1630501872906,0.90625,-0.25,0.359375
1630501872937,0.90625,-0.25,0.359375
1630501872968,0.90625,-0.25,0.359375
1630501873000,0.90625,-0.25,0.359375
1630501873031,0.90625,-0.25,0.359375
1630501873062,0.90625,-0.25,0.359375
1630501873093,0.90625,-0.25,0.359375
1630501873125,0.90625,-0.25,0.34375
1630501873156,0.90625,-0.25,0.359375
1630501873187,0.90625,-0.25,0.359375
1630501873218,0.90625,-0.25,0.359375
1630501873250,0.90625,-0.25,0.359375
1630501873281,0.90625,-0.25,0.359375
1630501873312,0.90625,-0.25,0.359375
1630501873343,0.90625,-0.25,0.359375
1630501873375,0.90625,-0.265625,0.359375
1630501873406,0.90625,-0.25,0.359375
1630501873437,0.90625,-0.25,0.359375
1630501873468,0.90625,-0.25,0.359375
1630501873500,0.90625,-0.265625,0.359375
1630501873531,0.90625,-0.25,0.359375
1630501873562,0.90625,-0.25,0.359375
1630501873593,0.90625,-0.265625,0.359375
1630501873625,0.90625,-0.265625,0.359375
1630501873656,0.90625,-0.25,0.359375
1630501873687,0.90625,-0.25,0.359375
1630501873718,0.90625,-0.25,0.359375
1630501873750,0.90625,-0.25,0.359375
1630501873781,0.90625,-0.25,0.359375
1630501873812,0.90625,-0.25,0.34375
1630501873843,0.90625,-0.25,0.359375
1630501873875,0.90625,-0.25,0.359375
1630501873906,0.90625,-0.25,0.359375
1630501873937,0.90625,-0.25,0.359375
1630501873968,0.90625,-0.25,0.34375
1630501874000,0.90625,-0.25,0.34375
1630501874031,0.90625,-0.265625,0.34375
1630501874062,0.90625,-0.25,0.34375
1630501874093,0.90625,-0.25,0.359375
1630501874125,0.90625,-0.25,0.359375
1630501874156,0.90625,-0.265625,0.34375
1630501874187,0.90625,-0.265625,0.34375
1630501874218,0.90625,-0.265625,0.34375
1630501874250,0.90625,-0.265625,0.34375
1630501874281,0.90625,-0.265625,0.34375
1630501874312,0.90625,-0.25,0.34375
1630501874343,0.90625,-0.265625,0.34375
1630501874375,0.90625,-0.265625,0.34375
1630501874406,0.90625,-0.265625,0.34375
1630501874437,0.90625,-0.265625,0.34375
1630501874468,0.90625,-0.25,0.34375
1630501874500,0.90625,-0.25,0.34375
1630501874531,0.90625,-0.265625,0.34375
1630501874562,0.90625,-0.265625,0.34375
1630501874593,0.90625,-0.265625,0.34375
1630501874625,0.90625,-0.265625,0.34375
1630501874656,0.90625,-0.265625,0.34375
1630501874687,0.90625,-0.25,0.34375
1630501874718,0.90625,-0.25,0.34375
1630501874750,0.90625,-0.265625,0.34375
1630501874781,0.90625,-0.25,0.34375
1630501874812,0.90625,-0.25,0.34375
1630501874843,0.90625,-0.265625,0.34375
1630501874875,0.90625,-0.265625,0.34375
1630501874906,0.90625,-0.25,0.34375
1630501874937,0.90625,-0.265625,0.34375
1630501874968,0.90625,-0.25,0.359375
1630501875000,0.90625,-0.265625,0.34375
1630501875031,0.90625,-0.25,0.359375
1630501875062,0.90625,-0.265625,0.359375
1630501875093,0.90625,-0.25,0.359375
1630501875125,0.90625,-0.25,0.34375
1630501875156,0.90625,-0.25,0.34375
1630501875187,0.90625,-0.265625,0.359375
1630501875218,0.90625,-0.265625,0.34375
1630501875250,0.90625,-0.25,0.359375
1630501875281,0.90625,-0.25,0.359375
1630501875312,0.90625,-0.25,0.359375
1630501875343,0.90625,-0.25,0.34375
1630501875375,0.90625,-0.265625,0.359375
1630501875406,0.90625,-0.25,0.34375
1630501875437,0.90625,-0.265625,0.359375
1630501875468,0.90625,-0.25,0.359375
1630501875500,0.90625,-0.265625,0.34375
1630501875531,0.90625,-0.265625,0.359375
1630501875562,0.90625,-0.25,0.359375
1630501875593,0.90625,-0.25,0.34375
1630501875625,0.90625,-0.25,0.359375
1630501875656,0.90625,-0.25,0.359375
1630501875687,0.90625,-0.25,0.359375
1630501875718,0.90625,-0.25,0.359375
1630501875750,0.90625,-0.25,0.359375
1630501875781,0.90625,-0.25,0.34375
1630501875812,0.90625,-0.25,0.359375
1630501875843,0.90625,-0.25,0.359375
1630501875875,0.90625,-0.25,0.359375
1630501875906,0.90625,-0.265625,0.359375
1630501875937,0.90625,-0.25,0.359375
1630501875968,0.90625,-0.25,0.359375
1630501876000,0.90625,-0.265625,0.359375
1630501876031,0.90625,-0.25,0.359375
1630501876062,0.90625,-0.265625,0.359375
1630501876093,0.90625,-0.25,0.359375
1630501876125,0.90625,-0.25,0.359375
1630501876156,0.90625,-0.25,0.359375
1630501876187,0.90625,-0.25,0.359375
1630501876218,0.90625,-0.25,0.359375
1630501876250,0.90625,-0.25,0.359375
1630501876281,0.90625,-0.25,0.359375
1630501876312,0.90625,-0.25,0.359375
1630501876343,0.90625,-0.25,0.359375
1630501876375,0.90625,-0.25,0.359375
1630501876406,0.90625,-0.25,0.359375
1630501876437,0.90625,-0.25,0.359375
1630501876468,0.90625,-0.25,0.359375
1630501876500,0.90625,-0.25,0.359375
1630501876531,0.90625,-0.25,0.359375
1630501876562,0.90625,-0.265625,0.359375
1630501876593,0.90625,-0.265625,0.359375
1630501876625,0.90625,-0.25,0.359375
1630501876656,0.90625,-0.25,0.359375
1630501876687,0.90625,-0.25,0.359375
1630501876718,0.90625,-0.265625,0.359375
1630501876750,0.90625,-0.265625,0.359375
1630501876781,0.90625,-0.265625,0.359375
1630501876812,0.90625,-0.25,0.359375
1630501876843,0.90625,-0.25,0.34375
1630501876875,0.90625,-0.265625,0.34375
1630501876906,0.90625,-0.25,0.34375
1630501876937,0.90625,-0.25,0.34375
1630501876968,0.90625,-0.265625,0.359375
1630501877000,0.90625,-0.25,0.34375
1630501877031,0.90625,-0.265625,0.34375
1630501877062,0.90625,-0.25,0.34375
1630501877093,0.90625,-0.265625,0.359375
1630501877125,0.90625,-0.265625,0.34375
1630501877156,0.90625,-0.265625,0.359375
1630501877187,0.90625,-0.25,0.359375
1630501877218,0.90625,-0.25,0.359375
1630501877250,0.90625,-0.25,0.359375
1630501877281,0.90625,-0.265625,0.359375
1630501877312,0.90625,-0.25,0.34375
1630501877343,0.90625,-0.265625,0.34375
1630501877375,0.90625,-0.25,0.34375
1630501877406,0.90625,-0.265625,0.359375
1630501877437,0.90625,-0.25,0.359375
1630501877468,0.90625,-0.25,0.34375
1630501877500,0.90625,-0.265625,0.359375
1630501877531,0.90625,-0.265625,0.359375
1630501877562,0.90625,-0.25,0.359375
1630501877593,0.90625,-0.25,0.34375
1630501877625,0.90625,-0.265625,0.359375
1630501877656,0.90625,-0.265625,0.359375
1630501877687,0.90625,-0.265625,0.359375
1630501877718,0.90625,-0.25,0.34375
1630501877750,0.90625,-0.25,0.359375
1630501877781,0.90625,-0.265625,0.359375
1630501877812,0.90625,-0.25,0.359375
1630501877843,0.90625,-0.25,0.34375
1630501877875,0.90625,-0.25,0.359375
1630501877906,0.90625,-0.265625,0.359375
1630501877937,0.90625,-0.25,0.34375
1630501877968,0.90625,-0.265625,0.34375
1630501878000,0.90625,-0.25,0.359375
1630501878031,0.90625,-0.265625,0.359375
1630501878062,0.90625,-0.265625,0.359375
1630501878093,0.90625,-0.25,0.359375
1630501878125,0.890625,-0.265625,0.34375
1630501878156,0.90625,-0.25,0.359375
1630501878187,0.90625,-0.265625,0.359375
1630501878218,0.90625,-0.265625,0.375
1630501878250,0.90625,-0.265625,0.359375
1630501878281,0.921875,-0.25,0.34375
1630501878312,0.90625,-0.25,0.34375
1630501878343,0.90625,-0.25,0.34375
1630501878375,0.890625,-0.265625,0.34375
1630501878406,0.890625,-0.265625,0.34375
1630501878437,0.921875,-0.28125,0.359375
1630501878468,0.921875,-0.25,0.34375
1630501878500,0.90625,-0.25,0.328125
1630501878531,0.90625,-0.25,0.34375
1630501878562,0.90625,-0.25,0.359375
1630501878593,0.90625,-0.25,0.34375
1630501878625,0.921875,-0.25,0.34375
1630501878656,0.90625,-0.25,0.359375
1630501878687,0.90625,-0.25,0.34375
1630501878718,0.90625,-0.25,0.34375
1630501878750,0.90625,-0.25,0.328125
1630501878781,0.90625,-0.25,0.328125
1630501878812,0.921875,-0.25,0.34375
1630501878843,0.921875,-0.25,0.359375
1630501878875,0.90625,-0.265625,0.359375
1630501878906,0.90625,-0.25,0.328125
1630501878937,0.90625,-0.265625,0.328125
1630501878968,0.921875,-0.25,0.328125
1630501879000,0.921875,-0.25,0.34375
1630501879031,0.921875,-0.25,0.34375
1630501879062,0.90625,-0.25,0.34375
1630501879093,0.90625,-0.25,0.359375
1630501879125,0.90625,-0.25,0.359375
1630501879156,0.875,-0.234375,0.34375
1630501879187,0.90625,-0.265625,0.328125
1630501879218,0.921875,-0.265625,0.359375
1630501879250,0.890625,-0.265625,0.359375
1630501879281,0.890625,-0.265625,0.359375
1630501879312,0.921875,-0.28125,0.375
1630501879343,0.921875,-0.28125,0.375
1630501879375,0.90625,-0.28125,0.359375
1630501879406,0.921875,-0.265625,0.375
1630501879437,0.921875,-0.25,0.375
1630501879468,0.90625,-0.21875,0.34375
1630501879500,0.890625,-0.234375,0.359375
1630501879531,0.890625,-0.25,0.375
1630501879562,0.890625,-0.265625,0.375
1630501879593,0.875,-0.265625,0.375
1630501879625,0.890625,-0.265625,0.375
1630501879656,0.890625,-0.265625,0.390625
1630501879687,0.890625,-0.28125,0.390625
1630501879718,0.890625,-0.265625,0.375
1630501879750,0.90625,-0.25,0.375
1630501879781,0.90625,-0.25,0.359375
1630501879812,0.90625,-0.25,0.359375
1630501879843,0.90625,-0.25,0.375
1630501879875,0.90625,-0.265625,0.375
1630501879906,0.890625,-0.265625,0.375
1630501879937,0.890625,-0.265625,0.375
1630501879968,0.90625,-0.265625,0.375
1630501880000,0.890625,-0.265625,0.375
1630501880031,0.890625,-0.265625,0.375
1630501880062,0.890625,-0.265625,0.375
1630501880093,0.890625,-0.265625,0.375
1630501880125,0.90625,-0.25,0.375
1630501880156,0.90625,-0.25,0.375
1630501880187,0.890625,-0.265625,0.375
1630501880218,0.890625,-0.265625,0.375
1630501880250,0.890625,-0.265625,0.375
1630501880281,0.890625,-0.265625,0.375
1630501880312,0.890625,-0.25,0.375
1630501880343,0.890625,-0.265625,0.375
1630501880375,0.890625,-0.25,0.375
1630501880406,0.890625,-0.25,0.375
1630501880437,0.890625,-0.25,0.375
1630501880468,0.890625,-0.265625,0.375
1630501880500,0.890625,-0.265625,0.375
1630501880531,0.890625,-0.265625,0.375
1630501880562,0.890625,-0.265625,0.375
1630501880593,0.90625,-0.265625,0.375
1630501880625,0.890625,-0.265625,0.375
1630501880656,0.890625,-0.265625,0.375
1630501880687,0.890625,-0.265625,0.375
1630501880718,0.890625,-0.265625,0.375
1630501880750,0.890625,-0.25,0.375
1630501880781,0.890625,-0.265625,0.375
1630501880812,0.890625,-0.265625,0.375
1630501880843,0.890625,-0.265625,0.375
1630501880875,0.90625,-0.265625,0.375
1630501880906,0.890625,-0.265625,0.375
1630501880937,0.890625,-0.265625,0.375
1630501880968,0.90625,-0.265625,0.375
1630501881000,0.890625,-0.265625,0.375
1630501881031,0.90625,-0.265625,0.375
1630501881062,0.890625,-0.265625,0.375
1630501881093,0.890625,-0.265625,0.375
1630501881125,0.890625,-0.265625,0.375
1630501881156,0.890625,-0.265625,0.375
1630501881187,0.890625,-0.265625,0.375
1630501881218,0.890625,-0.265625,0.375
1630501881250,0.90625,-0.265625,0.375
1630501881281,0.890625,-0.265625,0.359375
1630501881312,0.90625,-0.265625,0.375
1630501881343,0.890625,-0.265625,0.375
1630501881375,0.890625,-0.265625,0.375
1630501881406,0.890625,-0.265625,0.375
1630501881437,0.890625,-0.265625,0.375
1630501881468,0.90625,-0.265625,0.375
1630501881500,0.890625,-0.265625,0.375
1630501881531,0.890625,-0.265625,0.375
1630501881562,0.90625,-0.265625,0.359375
1630501881593,0.890625,-0.265625,0.375
1630501881625,0.890625,-0.265625,0.375
1630501881656,0.890625,-0.265625,0.375
1630501881687,0.890625,-0.265625,0.375
1630501881718,0.890625,-0.265625,0.375
1630501881750,0.890625,-0.265625,0.375
1630501881781,0.890625,-0.25,0.375
1630501881812,0.890625,-0.25,0.375
1630501881843,0.890625,-0.265625,0.375
1630501881875,0.890625,-0.265625,0.375
1630501881906,0.90625,-0.25,0.375
1630501881937,0.890625,-0.265625,0.375
1630501881968,0.890625,-0.265625,0.375
1630501882000,0.890625,-0.265625,0.375
1630501882031,0.90625,-0.265625,0.375
1630501882062,0.890625,-0.265625,0.375
1630501882093,0.890625,-0.265625,0.375
1630501882125,0.90625,-0.265625,0.375
1630501882156,0.890625,-0.265625,0.375
1630501882187,0.890625,-0.265625,0.375
1630501882218,0.890625,-0.265625,0.375
1630501882250,0.890625,-0.265625,0.375
1630501882281,0.890625,-0.265625,0.375
1630501882312,0.890625,-0.265625,0.375
1630501882343,0.890625,-0.25,0.375
1630501882375,0.890625,-0.265625,0.375
1630501882406,0.890625,-0.25,0.375
1630501882437,0.890625,-0.265625,0.375
1630501882468,0.90625,-0.265625,0.375
1630501882500,0.890625,-0.265625,0.375
1630501882531,0.890625,-0.265625,0.375
1630501882562,0.890625,-0.265625,0.375
1630501882593,0.890625,-0.265625,0.375
1630501882625,0.90625,-0.25,0.375
1630501882656,0.890625,-0.265625,0.375
1630501882687,0.890625,-0.265625,0.375
1630501882718,0.890625,-0.265625,0.375
1630501882750,0.890625,-0.265625,0.375
1630501882781,0.890625,-0.265625,0.375
1630501882812,0.890625,-0.265625,0.375
1630501882843,0.890625,-0.265625,0.375
1630501882875,0.890625,-0.265625,0.375
1630501882906,0.890625,-0.265625,0.375
1630501882937,0.890625,-0.265625,0.375
1630501882968,0.890625,-0.265625,0.375
1630501883000,0.890625,-0.265625,0.375
1630501883031,0.890625,-0.25,0.375
1630501883062,0.890625,-0.265625,0.375
1630501883093,0.890625,-0.265625,0.375
1630501883125,0.890625,-0.265625,0.375
1630501883156,0.890625,-0.265625,0.375
1630501883187,0.890625,-0.265625,0.375
1630501883218,0.890625,-0.265625,0.375
1630501883250,0.890625,-0.265625,0.375
1630501883281,0.890625,-0.265625,0.375
1630501883312,0.90625,-0.265625,0.375
1630501883343,0.890625,-0.265625,0.375
1630501883375,0.890625,-0.265625,0.375
1630501883406,0.890625,-0.265625,0.375
1630501883437,0.890625,-0.265625,0.375
1630501883468,0.890625,-0.265625,0.375
1630501883500,0.90625,-0.265625,0.375
1630501883531,0.890625,-0.265625,0.375
1630501883562,0.890625,-0.265625,0.375
1630501883593,0.890625,-0.265625,0.375
1630501883625,0.890625,-0.265625,0.375
1630501883656,0.90625,-0.265625,0.375
1630501883687,0.890625,-0.265625,0.375
1630501883718,0.890625,-0.265625,0.375
1630501883750,0.890625,-0.25,0.375
1630501883781,0.890625,-0.265625,0.375
1630501883812,0.890625,-0.265625,0.375
1630501883843,0.90625,-0.265625,0.375
1630501883875,0.90625,-0.265625,0.375
1630501883906,0.890625,-0.265625,0.375
1630501883937,0.890625,-0.265625,0.375
1630501883968,0.90625,-0.265625,0.375
1630501884000,0.890625,-0.265625,0.375
1630501884031,0.90625,-0.265625,0.375
1630501884062,0.890625,-0.265625,0.375
1630501884093,0.890625,-0.265625,0.375
1630501884125,0.890625,-0.265625,0.375
1630501884156,0.890625,-0.265625,0.375
1630501884187,0.90625,-0.265625,0.375
1630501884218,0.890625,-0.265625,0.359375
1630501884250,0.890625,-0.265625,0.359375
1630501884281,0.90625,-0.265625,0.375
1630501884312,0.90625,-0.265625,0.375
1630501884343,0.890625,-0.265625,0.375
1630501884375,0.890625,-0.265625,0.375
1630501884406,0.890625,-0.265625,0.375
1630501884437,0.890625,-0.265625,0.375
1630501884468,0.890625,-0.265625,0.375
1630501884500,0.890625,-0.265625,0.375
1630501884531,0.890625,-0.265625,0.375
1630501884562,0.890625,-0.265625,0.375
1630501884593,0.890625,-0.265625,0.375
1630501884625,0.890625,-0.265625,0.375
1630501884656,0.890625,-0.265625,0.375
1630501884687,0.890625,-0.265625,0.375
1630501884718,0.890625,-0.265625,0.375
1630501884750,0.890625,-0.265625,0.375
1630501884781,0.890625,-0.265625,0.375
1630501884812,0.890625,-0.265625,0.375
1630501884843,0.890625,-0.265625,0.375
1630501884875,0.890625,-0.265625,0.375
1630501884906,0.890625,-0.265625,0.375
1630501884937,0.890625,-0.265625,0.375
1630501884968,0.90625,-0.265625,0.375
1630501885000,0.90625,-0.265625,0.375
1630501885031,0.890625,-0.265625,0.375
1630501885062,0.890625,-0.265625,0.375
1630501885093,0.890625,-0.265625,0.375
1630501885125,0.890625,-0.265625,0.375
1630501885156,0.890625,-0.265625,0.375
1630501885187,0.890625,-0.265625,0.375
1630501885218,0.890625,-0.265625,0.375
1630501885250,0.890625,-0.265625,0.375
1630501885281,0.890625,-0.265625,0.375
1630501885312,0.890625,-0.265625,0.375
1630501885343,0.890625,-0.265625,0.375
1630501885375,0.890625,-0.265625,0.375
1630501885406,0.890625,-0.265625,0.375
1630501885437,0.890625,-0.265625,0.375
1630501885468,0.890625,-0.265625,0.375
1630501885500,0.890625,-0.265625,0.375
1630501885531,0.890625,-0.265625,0.375
1630501885562,0.890625,-0.265625,0.375
1630501885593,0.890625,-0.265625,0.375
1630501885625,0.890625,-0.265625,0.375
1630501885656,0.890625,-0.265625,0.375
1630501885687,0.890625,-0.265625,0.375
1630501885718,0.890625,-0.265625,0.375
1630501885750,0.890625,-0.265625,0.375
1630501885781,0.890625,-0.265625,0.375
1630501885812,0.890625,-0.265625,0.375
1630501885843,0.890625,-0.25,0.375
1630501885875,0.890625,-0.265625,0.375
1630501885906,0.890625,-0.265625,0.375
1630501885937,0.890625,-0.265625,0.375
1630501885968,0.890625,-0.265625,0.375
1630501886000,0.890625,-0.265625,0.375
1630501886031,0.890625,-0.265625,0.375
1630501886062,0.890625,-0.265625,0.375
1630501886093,0.890625,-0.265625,0.375
1630501886125,0.890625,-0.265625,0.375
1630501886156,0.890625,-0.265625,0.375
1630501886187,0.890625,-0.265625,0.375
1630501886218,0.90625,-0.265625,0.375
1630501886250,0.890625,-0.265625,0.375
1630501886281,0.90625,-0.265625,0.375
1630501886312,0.890625,-0.265625,0.375
1630501886343,0.890625,-0.265625,0.375
1630501886375,0.890625,-0.265625,0.375
1630501886406,0.890625,-0.265625,0.375
1630501886437,0.90625,-0.265625,0.375
1630501886468,0.890625,-0.265625,0.375
1630501886500,0.890625,-0.265625,0.375
1630501886531,0.90625,-0.265625,0.375
1630501886562,0.90625,-0.265625,0.375
1630501886593,0.890625,-0.265625,0.359375
1630501886625,0.90625,-0.265625,0.375
1630501886656,0.890625,-0.265625,0.375
1630501886687,0.890625,-0.265625,0.375
1630501886718,0.90625,-0.265625,0.375
1630501886750,0.90625,-0.265625,0.375
1630501886781,0.890625,-0.265625,0.375
1630501886812,0.90625,-0.265625,0.359375
1630501886843,0.890625,-0.265625,0.375
1630501886875,0.890625,-0.265625,0.375
1630501886906,0.890625,-0.265625,0.375
1630501886937,0.890625,-0.265625,0.375
1630501886968,0.890625,-0.265625,0.375
1630501887000,0.890625,-0.265625,0.375
1630501887031,0.890625,-0.265625,0.375
1630501887062,0.90625,-0.265625,0.375
1630501887093,0.890625,-0.265625,0.375
1630501887125,0.890625,-0.265625,0.375
1630501887156,0.90625,-0.265625,0.375
1630501887187,0.890625,-0.265625,0.375
1630501887218,0.890625,-0.265625,0.375
1630501887250,0.890625,-0.265625,0.375
1630501887281,0.890625,-0.265625,0.375
1630501887312,0.890625,-0.265625,0.375
1630501887343,0.890625,-0.265625,0.375
1630501887375,0.890625,-0.265625,0.375
1630501887406,0.890625,-0.265625,0.375
1630501887437,0.90625,-0.265625,0.375
1630501887468,0.890625,-0.265625,0.375
1630501887500,0.890625,-0.265625,0.375
1630501887531,0.890625,-0.25,0.375
1630501887562,0.890625,-0.265625,0.375
1630501887593,0.90625,-0.265625,0.375
1630501887625,0.890625,-0.265625,0.375
1630501887656,0.90625,-0.265625,0.375
1630501887687,0.890625,-0.265625,0.375
1630501887718,0.890625,-0.265625,0.375
1630501887750,0.890625,-0.265625,0.375
1630501887781,0.890625,-0.265625,0.375
1630501887812,0.890625,-0.265625,0.375
1630501887843,0.890625,-0.265625,0.375
1630501887875,0.890625,-0.265625,0.375
1630501887906,0.890625,-0.265625,0.375
1630501887937,0.90625,-0.265625,0.375
1630501887968,0.890625,-0.265625,0.375
1630501888000,0.890625,-0.265625,0.375
1630501888031,0.890625,-0.265625,0.375
1630501888062,0.890625,-0.265625,0.375
1630501888093,0.890625,-0.265625,0.375
1630501888125,0.890625,-0.265625,0.375
1630501888156,0.890625,-0.265625,0.375
1630501888187,0.890625,-0.265625,0.375
1630501888218,0.890625,-0.265625,0.375
1630501888250,0.890625,-0.265625,0.375
1630501888281,0.890625,-0.265625,0.375
1630501888312,0.890625,-0.265625,0.375
1630501888343,0.890625,-0.265625,0.375
1630501888375,0.890625,-0.265625,0.375
1630501888406,0.890625,-0.265625,0.375
1630501888437,0.90625,-0.265625,0.375
1630501888468,0.890625,-0.265625,0.375
1630501888500,0.890625,-0.265625,0.375
1630501888531,0.890625,-0.265625,0.375
1630501888562,0.890625,-0.265625,0.375
1630501888593,0.890625,-0.265625,0.375
1630501888625,0.890625,-0.265625,0.375
1630501888656,0.90625,-0.265625,0.375
1630501888687,0.890625,-0.265625,0.375
1630501888718,0.890625,-0.265625,0.375
1630501888750,0.890625,-0.265625,0.375
1630501888781,0.890625,-0.265625,0.375
1630501888812,0.890625,-0.265625,0.375
1630501888843,0.890625,-0.265625,0.375
1630501888875,0.890625,-0.265625,0.375
1630501888906,0.90625,-0.265625,0.375
1630501888937,0.90625,-0.265625,0.375
1630501888968,0.90625,-0.265625,0.375
1630501889000,0.890625,-0.265625,0.375
1630501889031,0.890625,-0.265625,0.375
1630501889062,0.890625,-0.265625,0.375
1630501889093,0.890625,-0.265625,0.375
1630501889125,0.890625,-0.265625,0.375
1630501889156,0.890625,-0.265625,0.375
1630501889187,0.890625,-0.265625,0.375
1630501889218,0.890625,-0.265625,0.375
1630501889250,0.890625,-0.265625,0.375
1630501889281,0.890625,-0.265625,0.375
1630501889312,0.90625,-0.265625,0.375
1630501889343,0.90625,-0.265625,0.375
1630501889375,0.890625,-0.265625,0.375
1630501889406,0.890625,-0.265625,0.375
1630501889437,0.890625,-0.265625,0.375
1630501889468,0.890625,-0.265625,0.375
1630501889500,0.890625,-0.265625,0.375
1630501889531,0.890625,-0.265625,0.375
1630501889562,0.890625,-0.265625,0.375
1630501889593,0.890625,-0.265625,0.375
1630501889625,0.890625,-0.265625,0.375
1630501889656,0.90625,-0.265625,0.375
1630501889687,0.890625,-0.265625,0.375
1630501889718,0.890625,-0.265625,0.375
1630501889750,0.890625,-0.265625,0.375
1630501889781,0.890625,-0.265625,0.375
1630501889812,0.890625,-0.265625,0.375
1630501889843,0.890625,-0.265625,0.375
1630501889875,0.890625,-0.265625,0.375
1630501889906,0.890625,-0.265625,0.375
1630501889937,0.890625,-0.265625,0.375
1630501889968,0.890625,-0.265625,0.375
1630501890000,0.890625,-0.265625,0.375
1630501890031,0.890625,-0.265625,0.375
1630501890062,0.890625,-0.265625,0.375
1630501890093,0.890625,-0.265625,0.375
1630501890125,0.890625,-0.265625,0.375
1630501890156,0.890625,-0.265625,0.375
1630501890187,0.890625,-0.265625,0.375
1630501890218,0.890625,-0.265625,0.375
1630501890250,0.890625,-0.265625,0.375
1630501890281,0.890625,-0.265625,0.375
1630501890312,0.890625,-0.265625,0.375
1630501890343,0.890625,-0.265625,0.375
1630501890375,0.890625,-0.265625,0.375
1630501890406,0.890625,-0.265625,0.375
1630501890437,0.890625,-0.265625,0.375
1630501890468,0.890625,-0.265625,0.375
1630501890500,0.890625,-0.265625,0.375
1630501890531,0.890625,-0.265625,0.375
1630501890562,0.890625,-0.265625,0.375
1630501890593,0.890625,-0.265625,0.375
1630501890625,0.890625,-0.265625,0.375
1630501890656,0.890625,-0.265625,0.375
1630501890687,0.890625,-0.265625,0.375
1630501890718,0.890625,-0.265625,0.375
1630501890750,0.890625,-0.265625,0.375
1630501890781,0.890625,-0.265625,0.375
1630501890812,0.890625,-0.265625,0.375
1630501890843,0.890625,-0.265625,0.375
1630501890875,0.890625,-0.265625,0.375
1630501890906,0.890625,-0.265625,0.375
1630501890937,0.890625,-0.265625,0.375
1630501890968,0.890625,-0.265625,0.375
1630501891000,0.890625,-0.265625,0.375
1630501891031,0.90625,-0.265625,0.375
1630501891062,0.890625,-0.265625,0.375
1630501891093,0.890625,-0.265625,0.375
1630501891125,0.890625,-0.265625,0.375
1630501891156,0.890625,-0.265625,0.375
1630501891187,0.890625,-0.265625,0.375
1630501891218,0.890625,-0.265625,0.375
1630501891250,0.890625,-0.265625,0.375
1630501891281,0.890625,-0.265625,0.375
1630501891312,0.890625,-0.265625,0.375
1630501891343,0.890625,-0.265625,0.375
1630501891375,0.890625,-0.265625,0.375
1630501891406,0.890625,-0.265625,0.375
1630501891437,0.890625,-0.265625,0.375
1630501891468,0.890625,-0.265625,0.375
1630501891500,0.90625,-0.265625,0.375
1630501891531,0.890625,-0.265625,0.375
1630501891562,0.890625,-0.265625,0.375
1630501891593,0.90625,-0.265625,0.359375
1630501891625,0.890625,-0.265625,0.375
1630501891656,0.90625,-0.265625,0.375
1630501891687,0.90625,-0.265625,0.375
1630501891718,0.890625,-0.265625,0.375
1630501891750,0.890625,-0.265625,0.359375
1630501891781,0.90625,-0.265625,0.375
1630501891812,0.890625,-0.265625,0.375
1630501891843,0.890625,-0.265625,0.375
1630501891875,0.890625,-0.265625,0.359375
1630501891906,0.890625,-0.265625,0.375
1630501891937,0.890625,-0.265625,0.375
1630501891968,0.890625,-0.265625,0.375
1630501892000,0.890625,-0.265625,0.375
1630501892031,0.890625,-0.265625,0.375
1630501892062,0.90625,-0.265625,0.375
1630501892093,0.890625,-0.265625,0.375
1630501892125,0.90625,-0.265625,0.375
1630501892156,0.890625,-0.265625,0.375
1630501892187,0.890625,-0.265625,0.375
1630501892218,0.890625,-0.265625,0.375
1630501892250,0.890625,-0.265625,0.375
1630501892281,0.890625,-0.265625,0.375
1630501892312,0.890625,-0.265625,0.375
1630501892343,0.890625,-0.265625,0.375
1630501892375,0.90625,-0.265625,0.375
1630501892406,0.890625,-0.265625,0.375
1630501892437,0.890625,-0.265625,0.375
1630501892468,0.890625,-0.265625,0.375
1630501892500,0.890625,-0.265625,0.375
1630501892531,0.90625,-0.265625,0.375
1630501892562,0.890625,-0.265625,0.375
1630501892593,0.890625,-0.265625,0.375
1630501892625,0.890625,-0.265625,0.375
1630501892656,0.890625,-0.265625,0.375
1630501892687,0.890625,-0.265625,0.375
1630501892718,0.890625,-0.265625,0.375
1630501892750,0.890625,-0.265625,0.375
1630501892781,0.890625,-0.265625,0.375
1630501892812,0.890625,-0.265625,0.375
1630501892843,0.890625,-0.265625,0.375
1630501892875,0.890625,-0.265625,0.375
1630501892906,0.890625,-0.265625,0.375
1630501892937,0.890625,-0.265625,0.375
1630501892968,0.890625,-0.265625,0.375
1630501893000,0.890625,-0.265625,0.375
1630501893031,0.890625,-0.265625,0.375
1630501893062,0.890625,-0.265625,0.375
1630501893093,0.890625,-0.265625,0.375
1630501893125,0.890625,-0.265625,0.375
1630501893156,0.890625,-0.25,0.375
1630501893187,0.890625,-0.265625,0.375
1630501893218,0.890625,-0.265625,0.375
1630501893250,0.890625,-0.265625,0.375
1630501893281,0.890625,-0.265625,0.375
1630501893312,0.890625,-0.265625,0.375
1630501893343,0.890625,-0.265625,0.375
1630501893375,0.890625,-0.265625,0.375
1630501893406,0.90625,-0.265625,0.375
1630501893437,0.890625,-0.265625,0.375
1630501893468,0.890625,-0.265625,0.375
1630501893500,0.890625,-0.265625,0.375
1630501893531,0.890625,-0.265625,0.375
1630501893562,0.890625,-0.265625,0.375
1630501893593,0.890625,-0.265625,0.375
1630501893625,0.890625,-0.265625,0.375
1630501893656,0.890625,-0.265625,0.375
1630501893687,0.890625,-0.265625,0.375
1630501893718,0.890625,-0.265625,0.375
1630501893750,0.890625,-0.265625,0.375
1630501893781,0.890625,-0.265625,0.375
1630501893812,0.890625,-0.265625,0.375
1630501893843,0.890625,-0.265625,0.375
1630501893875,0.890625,-0.265625,0.375
1630501893906,0.890625,-0.265625,0.375
1630501893937,0.890625,-0.265625,0.375
1630501893968,0.90625,-0.265625,0.375
1630501894000,0.890625,-0.25,0.375
1630501894031,0.890625,-0.265625,0.375
1630501894062,0.890625,-0.265625,0.375
1630501894093,0.890625,-0.265625,0.375
1630501894125,0.90625,-0.265625,0.375
1630501894156,0.890625,-0.265625,0.375
1630501894187,0.890625,-0.265625,0.375
1630501894218,0.890625,-0.265625,0.375
1630501894250,0.890625,-0.265625,0.375
1630501894281,0.890625,-0.265625,0.359375
1630501894312,0.90625,-0.265625,0.375
1630501894343,0.890625,-0.265625,0.375
1630501894375,0.890625,-0.265625,0.375
1630501894406,0.890625,-0.265625,0.375
1630501894437,0.90625,-0.265625,0.375
1630501894468,0.90625,-0.265625,0.375
1630501894500,0.890625,-0.265625,0.375
1630501894531,0.890625,-0.265625,0.359375
1630501894562,0.890625,-0.265625,0.375
1630501894593,0.90625,-0.265625,0.375
1630501894625,0.890625,-0.265625,0.375
1630501894656,0.890625,-0.265625,0.375
1630501894687,0.890625,-0.265625,0.375
1630501894718,0.890625,-0.265625,0.375
1630501894750,0.890625,-0.265625,0.375
1630501894781,0.890625,-0.265625,0.375
1630501894812,0.890625,-0.265625,0.375
1630501894843,0.890625,-0.265625,0.375
1630501894875,0.890625,-0.265625,0.375
1630501894906,0.890625,-0.28125,0.375
1630501894937,0.90625,-0.28125,0.359375
1630501894968,0.890625,-0.28125,0.359375
1630501895000,0.890625,-0.296875,0.375
1630501895031,0.9375,-0.3125,0.359375
1630501895062,0.859375,-0.234375,0.3125
1630501895093,0.984375,-0.296875,0.34375
1630501895125,0.875,-0.34375,0.421875
1630501895156,0.890625,-0.1875,0.34375
1630501895187,1.09375,-0.21875,0.359375
1630501895218,1.015625,-0.21875,0.34375
1630501895250,0.890625,-0.140625,0.28125
1630501895281,0.953125,-0.15625,0.28125
1630501895312,0.96875,-0.140625,0.25
1630501895343,0.953125,-0.125,0.21875
1630501895375,0.9375,-0.09375,0.203125
1630501895406,0.90625,-0.09375,0.21875
1630501895437,0.875,-0.140625,0.234375
1630501895468,0.890625,-0.1875,0.1875
1630501895500,0.828125,-0.125,0.171875
1630501895531,0.703125,-0.125,-0.015625
1630501895562,0.8125,-0.109375,-0.109375
1630501895593,0.796875,-0.15625,-0.1875
1630501895625,0.828125,-0.15625,-0.21875
1630501895656,0.890625,-0.21875,-0.15625
1630501895687,1.203125,-0.25,-0.03125
1630501895718,1.625,-0.234375,-0.03125
1630501895750,1.34375,-0.203125,-0.171875
1630501895781,0.953125,-0.28125,-0.25
1630501895812,0.859375,-0.296875,-0.125
1630501895843,0.921875,-0.28125,-0.09375
1630501895875,1.0625,-0.21875,-0.109375
1630501895906,1.03125,-0.21875,-0.15625
1630501895937,0.96875,-0.234375,-0.140625
1630501895968,0.890625,-0.234375,-0.140625
1630501896000,0.875,-0.234375,-0.140625
1630501896031,0.890625,-0.25,-0.140625
1630501896062,0.9375,-0.25,-0.15625
1630501896093,0.96875,-0.25,-0.15625
1630501896125,1.015625,-0.234375,-0.125
1630501896156,1.015625,-0.234375,-0.140625
1630501896187,1.015625,-0.21875,-0.125
1630501896218,0.984375,-0.203125,-0.125
1630501896250,0.984375,-0.203125,-0.125
1630501896281,0.984375,-0.21875,-0.140625
1630501896312,0.984375,-0.21875,-0.15625
1630501896343,0.96875,-0.234375,-0.171875
1630501896375,0.96875,-0.25,-0.171875
1630501896406,0.96875,-0.25,-0.171875
1630501896437,0.96875,-0.25,-0.171875
1630501896468,0.96875,-0.234375,-0.171875
1630501896500,0.96875,-0.25,-0.15625
1630501896531,0.984375,-0.234375,-0.171875
1630501896562,0.96875,-0.234375,-0.15625
1630501896593,0.96875,-0.234375,-0.171875
1630501896625,0.96875,-0.21875,-0.171875
1630501896656,0.96875,-0.21875,-0.171875
1630501896687,0.984375,-0.21875,-0.15625
1630501896718,0.984375,-0.234375,-0.15625
1630501896750,0.96875,-0.234375,-0.140625
1630501896781,0.96875,-0.21875,-0.15625
1630501896812,0.96875,-0.21875,-0.15625
1630501896843,0.96875,-0.21875,-0.15625
1630501896875,0.96875,-0.21875,-0.171875
1630501896906,0.96875,-0.234375,-0.15625
1630501896937,0.96875,-0.234375,-0.15625
1630501896968,0.96875,-0.234375,-0.15625
1630501897000,0.96875,-0.234375,-0.15625
1630501897031,0.96875,-0.234375,-0.15625
1630501897062,0.96875,-0.234375,-0.15625
1630501897093,0.96875,-0.234375,-0.171875
1630501897125,0.96875,-0.234375,-0.171875
1630501897156,0.96875,-0.234375,-0.171875
1630501897187,0.96875,-0.234375,-0.171875
1630501897218,0.96875,-0.21875,-0.171875
1630501897250,0.96875,-0.234375,-0.171875
1630501897281,0.96875,-0.234375,-0.171875
1630501897312,0.96875,-0.234375,-0.171875
1630501897343,0.96875,-0.234375,-0.171875
1630501897375,0.96875,-0.234375,-0.171875
1630501897406,0.96875,-0.234375,-0.171875
1630501897437,0.96875,-0.21875,-0.171875
1630501897468,0.96875,-0.21875,-0.171875
1630501897500,0.96875,-0.21875,-0.171875
1630501897531,0.96875,-0.234375,-0.171875
1630501897562,0.96875,-0.234375,-0.171875
1630501897593,0.96875,-0.234375,-0.171875
1630501897625,0.96875,-0.234375,-0.171875
1630501897656,0.984375,-0.21875,-0.171875
1630501897687,0.96875,-0.21875,-0.171875
1630501897718,0.96875,-0.234375,-0.171875
1630501897750,0.96875,-0.234375,-0.171875
1630501897781,0.96875,-0.234375,-0.171875
1630501897812,0.96875,-0.21875,-0.171875
1630501897843,0.96875,-0.21875,-0.171875
1630501897875,0.96875,-0.234375,-0.171875
1630501897906,0.96875,-0.234375,-0.171875
1630501897937,0.96875,-0.234375,-0.171875
1630501897968,0.96875,-0.234375,-0.171875
1630501898000,0.96875,-0.234375,-0.171875
1630501898031,0.96875,-0.234375,-0.171875
1630501898062,0.96875,-0.21875,-0.171875
1630501898093,0.96875,-0.234375,-0.171875
1630501898125,0.96875,-0.21875,-0.171875
1630501898156,0.96875,-0.21875,-0.171875
1630501898187,0.96875,-0.234375,-0.171875
1630501898218,0.96875,-0.21875,-0.171875
1630501898250,0.96875,-0.234375,-0.171875
1630501898281,0.96875,-0.234375,-0.171875
1630501898312,0.96875,-0.234375,-0.171875
1630501898343,0.96875,-0.234375,-0.1875
1630501898375,0.96875,-0.234375,-0.171875
1630501898406,0.96875,-0.234375,-0.171875
1630501898437,0.96875,-0.234375,-0.1875
1630501898468,0.96875,-0.21875,-0.1875
1630501898500,0.96875,-0.21875,-0.171875
1630501898531,0.96875,-0.234375,-0.1875
1630501898562,0.96875,-0.21875,-0.1875
1630501898593,0.96875,-0.234375,-0.171875
1630501898625,0.96875,-0.234375,-0.171875
1630501898656,0.96875,-0.234375,-0.171875
1630501898687,0.96875,-0.21875,-0.171875
1630501898718,0.96875,-0.234375,-0.171875
1630501898750,0.96875,-0.21875,-0.1875
1630501898781,0.96875,-0.21875,-0.171875
1630501898812,0.96875,-0.234375,-0.171875
1630501898843,0.96875,-0.21875,-0.1875
1630501898875,0.96875,-0.21875,-0.1875
1630501898906,0.96875,-0.21875,-0.1875
1630501898937,0.96875,-0.21875,-0.1875
1630501898968,0.96875,-0.21875,-0.1875
1630501899000,0.96875,-0.21875,-0.171875
1630501899031,0.96875,-0.21875,-0.1875
1630501899062,0.96875,-0.21875,-0.171875
1630501899093,0.96875,-0.21875,-0.1875
1630501899125,0.96875,-0.21875,-0.1875
1630501899156,0.96875,-0.21875,-0.1875
1630501899187,0.96875,-0.21875,-0.1875
1630501899218,0.96875,-0.21875,-0.1875
1630501899250,0.96875,-0.234375,-0.1875
1630501899281,0.96875,-0.234375,-0.1875
1630501899312,0.96875,-0.21875,-0.1875
1630501899343,0.96875,-0.21875,-0.171875
1630501899375,0.96875,-0.21875,-0.1875
1630501899406,0.96875,-0.234375,-0.1875
1630501899437,0.96875,-0.234375,-0.1875
1630501899468,0.96875,-0.234375,-0.1875
1630501899500,0.96875,-0.234375,-0.1875
1630501899531,0.96875,-0.234375,-0.1875
1630501899562,0.96875,-0.234375,-0.1875
1630501899593,0.96875,-0.21875,-0.1875
1630501899625,0.96875,-0.21875,-0.1875
1630501899656,0.96875,-0.21875,-0.1875
1630501899687,0.96875,-0.21875,-0.171875
1630501899718,0.96875,-0.21875,-0.1875
1630501899750,0.96875,-0.21875,-0.1875
1630501899781,0.96875,-0.21875,-0.1875
1630501899812,0.96875,-0.21875,-0.1875
1630501899843,0.96875,-0.21875,-0.1875
1630501899875,0.96875,-0.21875,-0.1875
1630501899906,0.96875,-0.21875,-0.1875
1630501899937,0.96875,-0.21875,-0.1875
1630501899968,0.96875,-0.21875,-0.1875
1630501900000,0.96875,-0.21875,-0.1875
1630501900031,0.96875,-0.234375,-0.1875
1630501900062,0.96875,-0.21875,-0.1875
1630501900093,0.96875,-0.21875,-0.1875
1630501900125,0.96875,-0.234375,-0.1875
1630501900156,0.96875,-0.234375,-0.1875
1630501900187,0.96875,-0.21875,-0.1875
1630501900218,0.96875,-0.21875,-0.1875
1630501900250,0.96875,-0.21875,-0.1875
1630501900281,0.96875,-0.234375,-0.1875
1630501900312,0.96875,-0.234375,-0.1875
1630501900343,0.96875,-0.21875,-0.1875
1630501900375,0.96875,-0.21875,-0.1875
1630501900406,0.96875,-0.21875,-0.203125
1630501900437,0.96875,-0.234375,-0.1875
1630501900468,0.96875,-0.21875,-0.1875
1630501900500,0.96875,-0.234375,-0.203125
1630501900531,0.96875,-0.234375,-0.1875
1630501900562,0.96875,-0.21875,-0.1875
1630501900593,0.96875,-0.21875,-0.1875
1630501900625,0.96875,-0.21875,-0.1875
1630501900656,0.96875,-0.21875,-0.1875
1630501900687,0.96875,-0.21875,-0.203125
1630501900718,0.96875,-0.21875,-0.1875
1630501900750,0.96875,-0.21875,-0.1875
1630501900781,0.96875,-0.21875,-0.1875
1630501900812,0.96875,-0.21875,-0.1875
1630501900843,0.96875,-0.234375,-0.1875
1630501900875,0.96875,-0.21875,-0.1875
1630501900906,0.96875,-0.21875,-0.1875
1630501900937,0.96875,-0.21875,-0.1875
1630501900968,0.96875,-0.21875,-0.1875
1630501901000,0.96875,-0.21875,-0.1875
1630501901031,0.96875,-0.21875,-0.203125
1630501901062,0.96875,-0.234375,-0.1875
1630501901093,0.96875,-0.21875,-0.1875
1630501901125,0.96875,-0.21875,-0.1875
1630501901156,0.96875,-0.21875,-0.1875
1630501901187,0.96875,-0.21875,-0.1875
1630501901218,0.96875,-0.21875,-0.1875
1630501901250,0.96875,-0.21875,-0.1875
1630501901281,0.96875,-0.21875,-0.1875
1630501901312,0.96875,-0.21875,-0.1875
1630501901343,0.984375,-0.21875,-0.1875
1630501901375,0.96875,-0.21875,-0.1875
1630501901406,0.96875,-0.21875,-0.171875
1630501901437,0.96875,-0.21875,-0.1875
1630501901468,0.96875,-0.234375,-0.1875
1630501901500,0.984375,-0.21875,-0.1875
1630501901531,0.96875,-0.21875,-0.1875
1630501901562,0.96875,-0.21875,-0.1875
1630501901593,0.96875,-0.21875,-0.1875
1630501901625,0.96875,-0.21875,-0.171875
1630501901656,0.96875,-0.21875,-0.1875
1630501901687,0.984375,-0.234375,-0.1875
1630501901718,0.96875,-0.21875,-0.1875
1630501901750,0.96875,-0.21875,-0.1875
1630501901781,0.96875,-0.21875,-0.1875
1630501901812,0.96875,-0.234375,-0.1875
1630501901843,0.96875,-0.21875,-0.1875
1630501901875,0.96875,-0.21875,-0.1875
1630501901906,0.96875,-0.21875,-0.1875
1630501901937,0.96875,-0.21875,-0.1875
1630501901968,0.96875,-0.21875,-0.203125
1630501902000,0.984375,-0.21875,-0.21875
1630501902031,0.96875,-0.21875,-0.203125
1630501902062,0.96875,-0.21875,-0.203125
1630501902093,0.96875,-0.234375,-0.203125
1630501902125,0.96875,-0.21875,-0.203125
1630501902156,0.96875,-0.21875,-0.203125
1630501902187,0.96875,-0.21875,-0.203125
1630501902218,0.96875,-0.21875,-0.203125
1630501902250,0.96875,-0.21875,-0.203125
1630501902281,0.96875,-0.21875,-0.203125
1630501902312,0.953125,-0.234375,-0.203125
1630501902343,0.96875,-0.21875,-0.203125
1630501902375,0.953125,-0.21875,-0.203125
1630501902406,0.96875,-0.234375,-0.203125
1630501902437,0.96875,-0.21875,-0.203125
1630501902468,0.96875,-0.21875,-0.203125
1630501902500,0.96875,-0.234375,-0.203125
1630501902531,0.96875,-0.21875,-0.203125
1630501902562,0.96875,-0.21875,-0.203125
1630501902593,0.96875,-0.21875,-0.203125
1630501902625,0.96875,-0.234375,-0.203125
1630501902656,0.96875,-0.21875,-0.203125
1630501902687,0.96875,-0.21875,-0.203125
1630501902718,0.96875,-0.21875,-0.203125
1630501902750,0.96875,-0.21875,-0.203125
1630501902781,0.96875,-0.21875,-0.203125
1630501902812,0.96875,-0.234375,-0.203125
1630501902843,0.96875,-0.234375,-0.203125
1630501902875,0.953125,-0.21875,-0.203125
1630501902906,0.984375,-0.21875,-0.21875
1630501902937,0.96875,-0.21875,-0.203125
1630501902968,0.953125,-0.21875,-0.1875
1630501903000,0.96875,-0.21875,-0.203125
1630501903031,0.96875,-0.21875,-0.203125
1630501903062,0.953125,-0.21875,-0.1875
1630501903093,0.96875,-0.21875,-0.203125
1630501903125,0.96875,-0.21875,-0.203125
1630501903156,0.96875,-0.21875,-0.203125
1630501903187,0.96875,-0.21875,-0.203125
1630501903218,0.96875,-0.21875,-0.203125
1630501903250,0.96875,-0.21875,-0.203125
1630501903281,0.96875,-0.21875,-0.203125
1630501903312,0.96875,-0.21875,-0.203125
1630501903343,0.96875,-0.21875,-0.203125
1630501903375,0.96875,-0.21875,-0.203125
1630501903406,0.96875,-0.21875,-0.203125
1630501903437,0.96875,-0.21875,-0.203125
1630501903468,0.96875,-0.21875,-0.203125
1630501903500,0.96875,-0.21875,-0.203125
1630501903531,0.96875,-0.21875,-0.203125
1630501903562,0.96875,-0.21875,-0.203125
1630501903593,0.96875,-0.21875,-0.203125
1630501903625,0.96875,-0.21875,-0.203125
1630501903656,0.96875,-0.21875,-0.203125
1630501903687,0.96875,-0.21875,-0.203125
1630501903718,0.96875,-0.21875,-0.21875
1630501903750,0.96875,-0.21875,-0.203125
1630501903781,0.96875,-0.21875,-0.203125
1630501903812,0.96875,-0.21875,-0.203125
1630501903843,0.96875,-0.21875,-0.203125
1630501903875,0.96875,-0.21875,-0.203125
1630501903906,0.984375,-0.21875,-0.203125
1630501903937,0.96875,-0.21875,-0.203125
1630501903968,0.96875,-0.21875,-0.1875
1630501904000,0.96875,-0.21875,-0.1875
1630501904031,0.96875,-0.21875,-0.203125
1630501904062,0.96875,-0.21875,-0.203125
1630501904093,0.96875,-0.21875,-0.203125
1630501904125,0.96875,-0.21875,-0.203125
1630501904156,0.96875,-0.21875,-0.203125
1630501904187,0.96875,-0.21875,-0.203125
1630501904218,0.96875,-0.21875,-0.203125
1630501904250,0.96875,-0.21875,-0.203125
1630501904281,0.96875,-0.21875,-0.203125
1630501904312,0.96875,-0.21875,-0.203125
1630501904343,0.96875,-0.21875,-0.203125
1630501904375,0.96875,-0.21875,-0.203125
1630501904406,0.96875,-0.21875,-0.203125
1630501904437,0.96875,-0.21875,-0.203125
1630501904468,0.96875,-0.21875,-0.203125
1630501904500,0.953125,-0.21875,-0.1875
1630501904531,0.96875,-0.21875,-0.203125
1630501904562,0.96875,-0.21875,-0.203125
1630501904593,0.96875,-0.21875,-0.203125
1630501904625,0.96875,-0.21875,-0.203125
1630501904656,0.96875,-0.21875,-0.203125
1630501904687,0.96875,-0.21875,-0.203125
1630501904718,0.96875,-0.21875,-0.203125
1630501904750,0.96875,-0.21875,-0.203125
1630501904781,0.96875,-0.21875,-0.203125
1630501904812,0.96875,-0.21875,-0.203125
1630501904843,0.96875,-0.21875,-0.203125
1630501904875,0.96875,-0.21875,-0.203125
1630501904906,0.96875,-0.21875,-0.203125
1630501904937,0.96875,-0.21875,-0.203125
1630501904968,0.96875,-0.21875,-0.203125
1630501905000,0.96875,-0.21875,-0.203125
1630501905031,0.96875,-0.21875,-0.203125
1630501905062,0.953125,-0.21875,-0.203125
1630501905093,0.96875,-0.21875,-0.203125
1630501905125,0.96875,-0.21875,-0.203125
1630501905156,0.96875,-0.234375,-0.203125
1630501905187,0.96875,-0.21875,-0.203125
1630501905218,0.96875,-0.21875,-0.203125
1630501905250,0.953125,-0.21875,-0.21875
1630501905281,0.953125,-0.21875,-0.203125
1630501905312,0.96875,-0.21875,-0.203125
1630501905343,0.96875,-0.21875,-0.203125
1630501905375,0.984375,-0.21875,-0.21875
1630501905406,0.96875,-0.21875,-0.203125
1630501905437,0.96875,-0.21875,-0.203125
1630501905468,0.953125,-0.234375,-0.203125
1630501905500,0.96875,-0.21875,-0.203125
1630501905531,0.96875,-0.21875,-0.203125
1630501905562,0.96875,-0.21875,-0.203125
1630501905593,0.96875,-0.21875,-0.203125
1630501905625,0.96875,-0.21875,-0.203125
1630501905656,0.96875,-0.21875,-0.203125
1630501905687,0.96875,-0.21875,-0.203125
1630501905718,0.96875,-0.21875,-0.203125
1630501905750,0.96875,-0.21875,-0.203125
1630501905781,0.96875,-0.21875,-0.203125
1630501905812,0.96875,-0.21875,-0.203125
1630501905843,0.953125,-0.21875,-0.203125
1630501905875,0.953125,-0.21875,-0.21875
1630501905906,0.953125,-0.21875,-0.21875
1630501905937,0.9375,-0.234375,-0.203125
1630501905968,0.984375,-0.234375,-0.234375
1630501906000,1.0,-0.203125,-0.25
1630501906031,0.953125,-0.21875,-0.203125
1630501906062,0.921875,-0.203125,-0.25
1630501906093,0.9375,-0.1875,-0.21875
1630501906125,0.984375,-0.203125,-0.25
1630501906156,1.0,-0.203125,-0.296875
1630501906187,0.96875,-0.234375,-0.296875
1630501906218,0.9375,-0.25,-0.25
1630501906250,0.9375,-0.25,-0.25
1630501906281,0.953125,-0.234375,-0.25
1630501906312,0.9375,-0.234375,-0.25
1630501906343,0.953125,-0.234375,-0.28125
1630501906375,0.953125,-0.234375,-0.28125
1630501906406,0.953125,-0.234375,-0.28125
1630501906437,0.9375,-0.234375,-0.28125
1630501906468,0.953125,-0.234375,-0.265625
1630501906500,0.9375,-0.234375,-0.265625
1630501906531,0.953125,-0.234375,-0.265625
1630501906562,0.953125,-0.234375,-0.28125
1630501906593,0.953125,-0.234375,-0.28125
1630501906625,0.953125,-0.234375,-0.265625
1630501906656,0.9375,-0.234375,-0.265625
1630501906687,0.9375,-0.21875,-0.265625
1630501906718,0.9375,-0.21875,-0.265625
1630501906750,0.9375,-0.21875,-0.265625
1630501906781,0.953125,-0.21875,-0.265625
1630501906812,0.953125,-0.234375,-0.265625
1630501906843,0.953125,-0.234375,-0.265625
1630501906875,0.953125,-0.234375,-0.265625
1630501906906,0.953125,-0.234375,-0.265625
1630501906937,0.9375,-0.25,-0.265625
1630501906968,0.9375,-0.234375,-0.28125
1630501907000,0.953125,-0.21875,-0.28125
1630501907031,0.953125,-0.21875,-0.28125
1630501907062,0.9375,-0.21875,-0.28125
1630501907093,0.953125,-0.234375,-0.265625
1630501907125,0.953125,-0.234375,-0.265625
1630501907156,0.953125,-0.234375,-0.265625
1630501907187,0.953125,-0.234375,-0.28125
1630501907218,0.9375,-0.234375,-0.28125
1630501907250,0.953125,-0.234375,-0.265625
1630501907281,0.953125,-0.234375,-0.265625
1630501907312,0.9375,-0.21875,-0.28125
1630501907343,0.9375,-0.234375,-0.28125
1630501907375,0.953125,-0.234375,-0.265625
1630501907406,0.96875,-0.21875,-0.265625
1630501907437,0.96875,-0.21875,-0.265625
1630501907468,1.0,-0.21875,-0.234375
1630501907500,0.953125,-0.21875,-0.265625
1630501907531,0.953125,-0.21875,-0.21875
1630501907562,1.015625,-0.21875,-0.140625
1630501907593,0.953125,-0.21875,-0.15625
1630501907625,0.953125,-0.203125,-0.234375
1630501907656,1.0,-0.21875,-0.171875
1630501907687,1.015625,-0.21875,-0.140625
1630501907718,0.90625,-0.234375,-0.140625
1630501907750,0.9375,-0.234375,-0.109375
1630501907781,1.015625,-0.234375,-0.171875
1630501907812,0.984375,-0.171875,-0.28125
1630501907843,1.0625,-0.140625,-0.28125
1630501907875,0.984375,-0.140625,-0.234375
1630501907906,0.953125,-0.15625,-0.140625
1630501907937,0.984375,-0.140625,-0.203125
1630501907968,0.953125,-0.140625,-0.046875
1630501908000,1.015625,-0.171875,-0.03125
1630501908031,1.015625,-0.171875,-0.046875
1630501908062,1.015625,-0.15625,-0.0625
1630501908093,1.015625,-0.203125,-0.078125
1630501908125,0.765625,-0.140625,-0.078125
1630501908156,0.78125,-0.125,-0.125
1630501908187,1.109375,-0.125,0.0625
1630501908218,1.0,-0.21875,0.015625
1630501908250,0.96875,-0.234375,-0.03125
1630501908281,0.96875,-0.265625,-0.078125
1630501908312,0.984375,-0.28125,-0.09375
1630501908343,1.046875,-0.265625,-0.109375
1630501908375,1.0,-0.21875,-0.109375
1630501908406,0.984375,-0.21875,-0.09375
1630501908437,0.984375,-0.203125,-0.078125
1630501908468,0.984375,-0.1875,-0.078125
1630501908500,0.984375,-0.203125,-0.078125
1630501908531,0.984375,-0.21875,-0.09375
1630501908562,0.984375,-0.21875,-0.09375
1630501908593,0.984375,-0.21875,-0.078125
1630501908625,0.984375,-0.21875,-0.09375
1630501908656,0.984375,-0.21875,-0.09375
1630501908687,0.984375,-0.21875,-0.09375
1630501908718,0.984375,-0.21875,-0.09375
1630501908750,0.984375,-0.21875,-0.09375
1630501908781,0.984375,-0.21875,-0.09375
1630501908812,0.984375,-0.21875,-0.09375
1630501908843,0.984375,-0.21875,-0.09375
1630501908875,0.984375,-0.203125,-0.09375
1630501908906,0.984375,-0.21875,-0.09375
1630501908937,0.984375,-0.21875,-0.09375
1630501908968,0.984375,-0.21875,-0.109375
1630501909000,0.984375,-0.21875,-0.09375
1630501909031,0.984375,-0.21875,-0.109375
1630501909062,0.984375,-0.21875,-0.109375
1630501909093,0.984375,-0.21875,-0.09375
1630501909125,0.984375,-0.21875,-0.09375
1630501909156,0.984375,-0.21875,-0.109375
1630501909187,0.984375,-0.21875,-0.109375
1630501909218,0.984375,-0.21875,-0.109375
1630501909250,0.984375,-0.21875,-0.109375
1630501909281,0.984375,-0.21875,-0.109375
1630501909312,0.984375,-0.21875,-0.109375
1630501909343,0.984375,-0.21875,-0.109375
1630501909375,0.984375,-0.21875,-0.109375
1630501909406,0.984375,-0.21875,-0.109375
1630501909437,0.984375,-0.21875,-0.109375
1630501909468,0.984375,-0.21875,-0.109375
1630501909500,0.984375,-0.21875,-0.109375
1630501909531,0.984375,-0.21875,-0.109375
1630501909562,0.984375,-0.21875,-0.109375
1630501909593,0.984375,-0.21875,-0.109375
1630501909625,0.984375,-0.21875,-0.109375
1630501909656,0.984375,-0.21875,-0.109375
1630501909687,0.984375,-0.21875,-0.109375
1630501909718,0.984375,-0.21875,-0.109375
1630501909750,0.984375,-0.21875,-0.109375
1630501909781,0.984375,-0.21875,-0.109375
1630501909812,0.984375,-0.21875,-0.109375
1630501909843,0.984375,-0.21875,-0.109375
1630501909875,0.984375,-0.21875,-0.109375
1630501909906,0.984375,-0.21875,-0.109375
1630501909937,0.984375,-0.21875,-0.109375
1630501909968,0.984375,-0.21875,-0.109375
1630501910000,0.984375,-0.21875,-0.109375
1630501910031,0.984375,-0.21875,-0.109375
1630501910062,0.984375,-0.21875,-0.109375
1630501910093,0.984375,-0.21875,-0.109375
1630501910125,0.984375,-0.21875,-0.109375
1630501910156,0.984375,-0.21875,-0.109375
1630501910187,0.984375,-0.21875,-0.109375
1630501910218,0.984375,-0.21875,-0.109375
1630501910250,0.984375,-0.21875,-0.109375
1630501910281,0.984375,-0.21875,-0.109375
1630501910312,0.984375,-0.21875,-0.109375
1630501910343,0.984375,-0.203125,-0.109375
1630501910375,0.984375,-0.21875,-0.109375
1630501910406,0.984375,-0.21875,-0.109375
1630501910437,0.984375,-0.21875,-0.109375
1630501910468,0.984375,-0.203125,-0.109375
1630501910500,0.984375,-0.21875,-0.109375
1630501910531,0.984375,-0.21875,-0.109375
1630501910562,0.984375,-0.21875,-0.109375
1630501910593,0.984375,-0.21875,-0.109375
1630501910625,0.984375,-0.21875,-0.109375
1630501910656,0.984375,-0.21875,-0.109375
1630501910687,0.984375,-0.21875,-0.109375
1630501910718,0.984375,-0.21875,-0.109375
1630501910750,0.984375,-0.21875,-0.109375
1630501910781,0.984375,-0.21875,-0.109375
1630501910812,0.984375,-0.21875,-0.109375
1630501910843,0.984375,-0.21875,-0.109375
1630501910875,0.984375,-0.21875,-0.109375
1630501910906,0.984375,-0.21875,-0.109375
1630501910937,0.984375,-0.21875,-0.109375
1630501910968,0.984375,-0.21875,-0.109375
1630501911000,0.984375,-0.21875,-0.109375
1630501911031,0.984375,-0.21875,-0.109375
1630501911062,0.984375,-0.21875,-0.109375
1630501911093,0.984375,-0.21875,-0.109375
1630501911125,0.984375,-0.21875,-0.109375
1630501911156,0.984375,-0.21875,-0.109375
1630501911187,0.984375,-0.21875,-0.109375
1630501911218,0.96875,-0.21875,-0.09375
1630501911250,1.0,-0.21875,-0.09375
1630501911281,0.96875,-0.21875,-0.09375
1630501911312,0.984375,-0.21875,-0.109375
1630501911343,0.984375,-0.21875,-0.09375
1630501911375,1.0,-0.21875,-0.109375
1630501911406,0.984375,-0.21875,-0.109375
1630501911437,0.984375,-0.21875,-0.09375
1630501911468,0.984375,-0.21875,-0.109375
1630501911500,0.984375,-0.21875,-0.09375
1630501911531,0.984375,-0.21875,-0.078125
1630501911562,0.984375,-0.203125,-0.125
1630501911593,0.9375,-0.21875,-0.09375
1630501911625,1.0,-0.21875,-0.109375
1630501911656,0.96875,-0.21875,-0.09375
1630501911687,0.984375,-0.21875,-0.109375
1630501911718,0.984375,-0.203125,-0.109375
1630501911750,0.984375,-0.21875,-0.109375
1630501911781,0.984375,-0.21875,-0.109375
1630501911812,0.984375,-0.21875,-0.125
1630501911843,0.984375,-0.21875,-0.109375
1630501911875,0.984375,-0.21875,-0.109375
1630501911906,0.984375,-0.21875,-0.109375
1630501911937,0.984375,-0.21875,-0.109375
1630501911968,0.984375,-0.21875,-0.125
1630501912000,0.984375,-0.21875,-0.125
1630501912031,0.984375,-0.21875,-0.109375
1630501912062,0.984375,-0.21875,-0.125
1630501912093,0.984375,-0.21875,-0.109375
1630501912125,0.984375,-0.21875,-0.109375
1630501912156,0.984375,-0.21875,-0.109375
1630501912187,0.984375,-0.21875,-0.109375
1630501912218,0.984375,-0.21875,-0.109375
1630501912250,0.984375,-0.21875,-0.109375
1630501912281,0.984375,-0.21875,-0.109375
1630501912312,0.984375,-0.21875,-0.109375
1630501912343,0.984375,-0.21875,-0.109375
1630501912375,0.984375,-0.21875,-0.109375
1630501912406,0.984375,-0.21875,-0.109375
1630501912437,0.984375,-0.21875,-0.109375
1630501912468,0.984375,-0.21875,-0.109375
1630501912500,0.984375,-0.21875,-0.109375
1630501912531,0.984375,-0.21875,-0.109375
1630501912562,0.984375,-0.21875,-0.109375
1630501912593,0.984375,-0.21875,-0.109375
1630501912625,0.984375,-0.21875,-0.109375
1630501912656,0.984375,-0.21875,-0.109375
1630501912687,0.984375,-0.21875,-0.109375
1630501912718,0.984375,-0.21875,-0.109375
1630501912750,0.984375,-0.21875,-0.109375
1630501912781,0.984375,-0.21875,-0.109375
1630501912812,0.984375,-0.21875,-0.109375
1630501912843,0.984375,-0.21875,-0.109375
1630501912875,0.984375,-0.21875,-0.109375
1630501912906,0.984375,-0.21875,-0.109375
1630501912937,0.984375,-0.21875,-0.109375
1630501912968,0.984375,-0.21875,-0.109375
1630501913000,0.984375,-0.21875,-0.109375
1630501913031,0.984375,-0.21875,-0.109375
1630501913062,0.984375,-0.21875,-0.109375
1630501913093,0.984375,-0.21875,-0.109375
1630501913125,0.984375,-0.21875,-0.109375
1630501913156,0.984375,-0.21875,-0.109375
1630501913187,0.984375,-0.21875,-0.109375
1630501913218,0.984375,-0.21875,-0.109375
1630501913250,0.984375,-0.21875,-0.109375
1630501913281,0.984375,-0.21875,-0.109375
1630501913312,0.984375,-0.21875,-0.109375
1630501913343,0.984375,-0.21875,-0.109375
1630501913375,0.984375,-0.21875,-0.109375
1630501913406,0.984375,-0.21875,-0.109375
1630501913437,0.984375,-0.21875,-0.109375
1630501913468,0.984375,-0.21875,-0.109375
1630501913500,0.984375,-0.21875,-0.109375
1630501913531,0.984375,-0.21875,-0.109375
1630501913562,0.984375,-0.21875,-0.109375
1630501913593,0.984375,-0.21875,-0.109375
1630501913625,0.984375,-0.21875,-0.109375
1630501913656,0.984375,-0.21875,-0.109375
1630501913687,0.984375,-0.21875,-0.109375
1630501913718,0.984375,-0.21875,-0.109375
1630501913750,0.984375,-0.21875,-0.109375
1630501913781,0.984375,-0.21875,-0.109375
1630501913812,0.984375,-0.21875,-0.109375
1630501913843,0.984375,-0.21875,-0.109375
1630501913875,0.984375,-0.21875,-0.109375
1630501913906,0.984375,-0.21875,-0.109375
1630501913937,0.984375,-0.21875,-0.109375
1630501913968,0.984375,-0.21875,-0.109375
1630501914000,0.984375,-0.21875,-0.109375
1630501914031,0.984375,-0.21875,-0.109375
1630501914062,0.984375,-0.21875,-0.109375
1630501914093,0.984375,-0.21875,-0.109375
1630501914125,0.984375,-0.21875,-0.125
1630501914156,0.984375,-0.21875,-0.109375
1630501914187,0.984375,-0.21875,-0.109375
1630501914218,0.984375,-0.21875,-0.109375
1630501914250,0.984375,-0.21875,-0.109375
1630501914281,0.984375,-0.21875,-0.109375
1630501914312,0.984375,-0.21875,-0.109375
1630501914343,0.984375,-0.21875,-0.109375
1630501914375,0.984375,-0.21875,-0.109375
1630501914406,0.984375,-0.21875,-0.109375
1630501914437,0.984375,-0.21875,-0.109375
1630501914468,0.984375,-0.21875,-0.109375
1630501914500,0.984375,-0.21875,-0.109375
1630501914531,0.984375,-0.21875,-0.109375
1630501914562,0.984375,-0.21875,-0.109375
1630501914593,0.984375,-0.21875,-0.109375
1630501914625,0.984375,-0.21875,-0.109375
1630501914656,0.984375,-0.21875,-0.109375
1630501914687,0.984375,-0.21875,-0.109375
1630501914718,0.984375,-0.21875,-0.109375
1630501914750,0.984375,-0.21875,-0.109375
1630501914781,0.984375,-0.21875,-0.109375
1630501914812,0.984375,-0.21875,-0.109375
1630501914843,0.984375,-0.21875,-0.109375
1630501914875,0.984375,-0.21875,-0.109375
1630501914906,0.984375,-0.21875,-0.109375
1630501914937,0.984375,-0.21875,-0.109375
1630501914968,0.984375,-0.21875,-0.109375
1630501915000,0.984375,-0.21875,-0.109375
1630501915031,0.984375,-0.21875,-0.109375
1630501915062,0.984375,-0.21875,-0.109375
1630501915093,0.984375,-0.21875,-0.109375
1630501915125,0.984375,-0.21875,-0.109375
1630501915156,0.984375,-0.21875,-0.109375
1630501915187,0.984375,-0.21875,-0.109375
1630501915218,0.984375,-0.21875,-0.109375
1630501915250,0.984375,-0.21875,-0.109375
1630501915281,0.984375,-0.21875,-0.109375
1630501915312,0.984375,-0.21875,-0.109375
1630501915343,0.984375,-0.21875,-0.109375
1630501915375,0.984375,-0.21875,-0.109375
1630501915406,0.984375,-0.21875,-0.109375
1630501915437,0.984375,-0.21875,-0.109375
1630501915468,0.984375,-0.21875,-0.109375
1630501915500,0.984375,-0.21875,-0.109375
1630501915531,0.984375,-0.21875,-0.109375
1630501915562,0.984375,-0.21875,-0.109375
1630501915593,0.984375,-0.21875,-0.109375
1630501915625,0.984375,-0.21875,-0.109375
1630501915656,0.984375,-0.21875,-0.109375
1630501915687,0.984375,-0.21875,-0.109375
1630501915718,0.984375,-0.21875,-0.109375
1630501915750,0.984375,-0.21875,-0.109375
1630501915781,0.984375,-0.21875,-0.109375
1630501915812,0.984375,-0.21875,-0.109375
1630501915843,0.984375,-0.21875,-0.109375
1630501915875,0.984375,-0.21875,-0.109375
1630501915906,0.984375,-0.21875,-0.109375
1630501915937,0.984375,-0.21875,-0.109375
1630501915968,0.984375,-0.21875,-0.109375
1630501916000,0.984375,-0.21875,-0.109375
1630501916031,0.984375,-0.21875,-0.109375
1630501916062,0.984375,-0.21875,-0.109375
1630501916093,0.984375,-0.21875,-0.109375
1630501916125,0.984375,-0.21875,-0.109375
1630501916156,0.984375,-0.21875,-0.109375
1630501916187,0.984375,-0.21875,-0.109375
1630501916218,0.984375,-0.21875,-0.109375
1630501916250,0.984375,-0.21875,-0.109375
1630501916281,0.984375,-0.21875,-0.109375
1630501916312,0.984375,-0.21875,-0.109375
1630501916343,0.984375,-0.21875,-0.109375
1630501916375,0.984375,-0.21875,-0.109375
1630501916406,0.984375,-0.21875,-0.109375
1630501916437,0.984375,-0.21875,-0.109375
1630501916468,0.984375,-0.21875,-0.109375
1630501916500,0.984375,-0.21875,-0.109375
1630501916531,0.984375,-0.21875,-0.109375
1630501916562,0.984375,-0.21875,-0.109375
1630501916593,0.984375,-0.21875,-0.109375
1630501916625,0.984375,-0.21875,-0.109375
1630501916656,0.984375,-0.21875,-0.109375
1630501916687,0.984375,-0.21875,-0.109375
1630501916718,0.984375,-0.21875,-0.109375
1630501916750,0.984375,-0.21875,-0.109375
1630501916781,0.984375,-0.21875,-0.109375
1630501916812,0.984375,-0.21875,-0.109375
1630501916843,0.984375,-0.21875,-0.109375
1630501916875,0.984375,-0.21875,-0.109375
1630501916906,0.984375,-0.21875,-0.109375
1630501916937,0.984375,-0.21875,-0.109375
1630501916968,0.984375,-0.21875,-0.109375
1630501917000,0.984375,-0.21875,-0.109375
1630501917031,0.984375,-0.21875,-0.109375
1630501917062,0.984375,-0.21875,-0.109375
1630501917093,0.984375,-0.21875,-0.109375
1630501917125,0.984375,-0.21875,-0.109375
1630501917156,0.984375,-0.21875,-0.109375
1630501917187,0.984375,-0.21875,-0.109375
1630501917218,0.984375,-0.21875,-0.109375
1630501917250,0.984375,-0.21875,-0.109375
1630501917281,0.984375,-0.21875,-0.109375
1630501917312,0.984375,-0.21875,-0.109375
1630501917343,0.984375,-0.21875,-0.109375
1630501917375,0.984375,-0.21875,-0.109375
1630501917406,0.984375,-0.21875,-0.109375
1630501917437,0.984375,-0.21875,-0.109375
1630501917468,0.984375,-0.21875,-0.109375
