timestamp,ax,ay,az
1629708999000,-0.921875,0.28125,-0.140625
1629708999031,-0.953125,0.28125,-0.1875
1629708999062,-0.953125,0.28125,-0.1875
1629708999093,-0.9375,0.28125,-0.171875
1629708999125,-0.9375,0.28125,-0.1875
1629708999156,-0.9375,0.28125,-0.1875
1629708999187,-0.9375,0.28125,-0.1875
1629708999218,-0.9375,0.28125,-0.1875
1629708999250,-0.9375,0.28125,-0.1875
1629708999281,-0.9375,0.28125,-0.1875
1629708999312,-0.9375,0.28125,-0.1875
1629708999343,-0.9375,0.28125,-0.1875
1629708999375,-0.953125,0.28125,-0.1875
1629708999406,-0.9375,0.28125,-0.171875
1629708999437,-0.9375,0.265625,-0.1875
1629708999468,-0.9375,0.28125,-0.171875
1629708999500,-0.9375,0.28125,-0.171875
1629708999531,-0.9375,0.28125,-0.1875
1629708999562,-0.9375,0.28125,-0.171875
1629708999593,-0.9375,0.28125,-0.171875
1629708999625,-0.9375,0.28125,-0.1875
1629708999656,-0.9375,0.28125,-0.171875
1629708999687,-0.9375,0.28125,-0.1875
1629708999718,-0.9375,0.28125,-0.1875
1629708999750,-0.9375,0.28125,-0.171875
1629708999781,-0.9375,0.28125,-0.1875
1629708999812,-0.953125,0.28125,-0.1875
1629708999843,-0.9375,0.28125,-0.1875
1629708999875,-0.9375,0.28125,-0.1875
1629708999906,-0.9375,0.28125,-0.171875
1629708999937,-0.9375,0.28125,-0.1875
1629708999968,-0.9375,0.28125,-0.171875
1629709000000,-0.953125,0.28125,-0.1875
1629709000031,-0.9375,0.28125,-0.171875
1629709000062,-0.953125,0.28125,-0.1875
1629709000093,-0.9375,0.28125,-0.1875
1629709000125,-0.9375,0.28125,-0.171875
1629709000156,-0.9375,0.28125,-0.1875
1629709000187,-0.9375,0.28125,-0.1875
1629709000218,-0.9375,0.28125,-0.171875
1629709000250,-0.9375,0.28125,-0.171875
1629709000281,-0.9375,0.28125,-0.1875
1629709000312,-0.9375,0.28125,-0.1875
1629709000343,-0.953125,0.28125,-0.1875
1629709000375,-0.9375,0.28125,-0.1875
1629709000406,-0.9375,0.28125,-0.171875
1629709000437,-0.9375,0.28125,-0.171875
1629709000468,-0.9375,0.28125,-0.1875
1629709000500,-0.9375,0.28125,-0.171875
1629709000531,-0.953125,0.28125,-0.1875
1629709000562,-0.9375,0.28125,-0.171875
1629709000593,-0.9375,0.28125,-0.171875
1629709000625,-0.9375,0.28125,-0.1875
1629709000656,-0.921875,0.28125,-0.171875
1629709000687,-0.9375,0.28125,-0.1875
1629709000718,-0.9375,0.28125,-0.1875
1629709000750,-0.953125,0.28125,-0.1875
1629709000781,-0.9375,0.28125,-0.171875
1629709000812,-0.9375,0.28125,-0.1875
1629709000843,-0.9375,0.28125,-0.1875
1629709000875,-0.9375,0.28125,-0.1875
1629709000906,-0.9375,0.28125,-0.1875
1629709000937,-0.9375,0.28125,-0.171875
1629709000968,-0.9375,0.28125,-0.171875
1629709001000,-0.9375,0.28125,-0.171875
1629709001031,-0.9375,0.28125,-0.1875
1629709001062,-0.9375,0.28125,-0.1875
1629709001093,-0.9375,0.28125,-0.171875
1629709001125,-0.9375,0.28125,-0.1875
1629709001156,-0.9375,0.28125,-0.1875
1629709001187,-0.9375,0.28125,-0.171875
1629709001218,-0.9375,0.28125,-0.1875
1629709001250,-0.9375,0.28125,-0.1875
1629709001281,-0.9375,0.28125,-0.1875
1629709001312,-0.9375,0.28125,-0.1875
1629709001343,-0.9375,0.296875,-0.1875
1629709001375,-0.9375,0.28125,-0.1875
1629709001406,-0.9375,0.28125,-0.1875
1629709001437,-0.9375,0.28125,-0.1875
1629709001468,-0.9375,0.28125,-0.171875
1629709001500,-0.9375,0.28125,-0.1875
1629709001531,-0.9375,0.28125,-0.171875
1629709001562,-0.9375,0.28125,-0.1875
1629709001593,-0.9375,0.28125,-0.1875
1629709001625,-0.9375,0.28125,-0.1875
1629709001656,-0.9375,0.28125,-0.1875
1629709001687,-0.9375,0.28125,-0.1875
1629709001718,-0.9375,0.28125,-0.171875
1629709001750,-0.9375,0.28125,-0.1875
1629709001781,-0.9375,0.296875,-0.1875
1629709001812,-0.9375,0.28125,-0.171875
1629709001843,-0.9375,0.296875,-0.1875
1629709001875,-0.9375,0.296875,-0.1875
1629709001906,-0.9375,0.28125,-0.1875
1629709001937,-0.9375,0.28125,-0.1875
1629709001968,-0.9375,0.28125,-0.1875
1629709002000,-0.9375,0.28125,-0.1875
1629709002031,-0.9375,0.28125,-0.1875
1629709002062,-0.9375,0.28125,-0.1875
1629709002093,-0.9375,0.28125,-0.1875
1629709002125,-0.9375,0.296875,-0.171875
1629709002156,-0.9375,0.28125,-0.1875
1629709002187,-0.9375,0.28125,-0.1875
1629709002218,-0.9375,0.28125,-0.1875
1629709002250,-0.9375,0.28125,-0.1875
1629709002281,-0.9375,0.28125,-0.1875
1629709002312,-0.9375,0.296875,-0.1875
1629709002343,-0.9375,0.28125,-0.1875
1629709002375,-0.9375,0.28125,-0.1875
1629709002406,-0.9375,0.28125,-0.1875
1629709002437,-0.9375,0.28125,-0.1875
1629709002468,-0.9375,0.28125,-0.1875
1629709002500,-0.9375,0.28125,-0.171875
1629709002531,-0.9375,0.28125,-0.1875
1629709002562,-0.9375,0.28125,-0.1875
1629709002593,-0.9375,0.28125,-0.1875
1629709002625,-0.9375,0.28125,-0.1875
1629709002656,-0.9375,0.28125,-0.1875
1629709002687,-0.9375,0.28125,-0.171875
1629709002718,-0.9375,0.28125,-0.1875
1629709002750,-0.9375,0.28125,-0.1875
1629709002781,-0.9375,0.28125,-0.171875
1629709002812,-0.9375,0.28125,-0.171875
1629709002843,-0.9375,0.28125,-0.1875
1629709002875,-0.9375,0.28125,-0.1875
1629709002906,-0.9375,0.28125,-0.1875
1629709002937,-0.9375,0.28125,-0.1875
1629709002968,-0.9375,0.28125,-0.1875
1629709003000,-0.9375,0.28125,-0.1875
1629709003031,-0.9375,0.28125,-0.171875
1629709003062,-0.9375,0.28125,-0.171875
1629709003093,-0.9375,0.296875,-0.1875
1629709003125,-0.9375,0.28125,-0.1875
1629709003156,-0.9375,0.28125,-0.1875
1629709003187,-0.9375,0.28125,-0.171875
1629709003218,-0.9375,0.28125,-0.171875
1629709003250,-0.9375,0.296875,-0.1875
1629709003281,-0.9375,0.28125,-0.1875
1629709003312,-0.9375,0.28125,-0.171875
1629709003343,-0.9375,0.28125,-0.1875
1629709003375,-0.9375,0.28125,-0.1875
1629709003406,-0.9375,0.28125,-0.171875
1629709003437,-0.9375,0.28125,-0.1875
1629709003468,-0.953125,0.28125,-0.1875
1629709003500,-0.9375,0.28125,-0.171875
1629709003531,-0.9375,0.28125,-0.171875
1629709003562,-0.9375,0.28125,-0.1875
1629709003593,-0.9375,0.28125,-0.1875
1629709003625,-0.9375,0.28125,-0.1875
1629709003656,-0.9375,0.296875,-0.1875
1629709003687,-0.9375,0.28125,-0.171875
1629709003718,-0.9375,0.28125,-0.171875
1629709003750,-0.9375,0.28125,-0.1875
1629709003781,-0.9375,0.28125,-0.171875
1629709003812,-0.9375,0.28125,-0.171875
1629709003843,-0.9375,0.28125,-0.171875
1629709003875,-0.9375,0.28125,-0.1875
1629709003906,-0.9375,0.28125,-0.171875
1629709003937,-0.9375,0.28125,-0.171875
1629709003968,-0.9375,0.28125,-0.1875
1629709004000,-0.9375,0.28125,-0.171875
1629709004031,-0.9375,0.28125,-0.171875
1629709004062,-0.9375,0.28125,-0.1875
1629709004093,-0.9375,0.28125,-0.171875
1629709004125,-0.9375,0.28125,-0.171875
1629709004156,-0.9375,0.28125,-0.171875
1629709004187,-0.9375,0.28125,-0.171875
1629709004218,-0.9375,0.28125,-0.171875
1629709004250,-0.9375,0.28125,-0.171875
1629709004281,-0.9375,0.28125,-0.171875
1629709004312,-0.9375,0.28125,-0.171875
1629709004343,-0.9375,0.28125,-0.1875
1629709004375,-0.9375,0.28125,-0.171875
1629709004406,-0.9375,0.28125,-0.171875
1629709004437,-0.953125,0.28125,-0.171875
1629709004468,-0.9375,0.28125,-0.171875
1629709004500,-0.953125,0.28125,-0.1875
1629709004531,-0.9375,0.28125,-0.171875
1629709004562,-0.953125,0.28125,-0.1875
1629709004593,-0.9375,0.28125,-0.1875
1629709004625,-0.9375,0.296875,-0.1875
1629709004656,-0.9375,0.296875,-0.171875
1629709004687,-0.9375,0.28125,-0.1875
1629709004718,-0.953125,0.28125,-0.1875
1629709004750,-0.9375,0.28125,-0.171875
1629709004781,-0.9375,0.296875,-0.171875
1629709004812,-0.9375,0.296875,-0.171875
1629709004843,-0.9375,0.296875,-0.171875
1629709004875,-0.9375,0.296875,-0.171875
1629709004906,-0.9375,0.296875,-0.171875
1629709004937,-0.9375,0.296875,-0.171875
1629709004968,-0.9375,0.28125,-0.171875
1629709005000,-0.9375,0.296875,-0.171875
1629709005031,-0.9375,0.296875,-0.171875
1629709005062,-0.9375,0.296875,-0.171875
1629709005093,-0.9375,0.296875,-0.15625
1629709005125,-0.9375,0.296875,-0.171875
1629709005156,-0.9375,0.296875,-0.171875
1629709005187,-0.9375,0.296875,-0.171875
1629709005218,-0.9375,0.296875,-0.171875
1629709005250,-0.9375,0.296875,-0.171875
1629709005281,-0.9375,0.296875,-0.171875
1629709005312,-0.9375,0.296875,-0.171875
1629709005343,-0.9375,0.296875,-0.171875
1629709005375,-0.9375,0.296875,-0.171875
1629709005406,-0.9375,0.296875,-0.15625
1629709005437,-0.9375,0.296875,-0.15625
1629709005468,-0.9375,0.296875,-0.171875
1629709005500,-0.9375,0.3125,-0.15625
1629709005531,-0.9375,0.3125,-0.15625
1629709005562,-0.9375,0.3125,-0.15625
1629709005593,-0.9375,0.296875,-0.15625
1629709005625,-0.9375,0.296875,-0.15625
1629709005656,-0.9375,0.3125,-0.15625
1629709005687,-0.9375,0.3125,-0.15625
1629709005718,-0.9375,0.3125,-0.15625
1629709005750,-0.9375,0.3125,-0.15625
1629709005781,-0.9375,0.3125,-0.15625
1629709005812,-0.9375,0.3125,-0.15625
1629709005843,-0.9375,0.3125,-0.15625
1629709005875,-0.9375,0.3125,-0.15625
1629709005906,-0.9375,0.3125,-0.15625
1629709005937,-0.9375,0.3125,-0.171875
1629709005968,-0.9375,0.3125,-0.15625
1629709006000,-0.9375,0.3125,-0.15625
1629709006031,-0.9375,0.3125,-0.15625
1629709006062,-0.9375,0.3125,-0.15625
1629709006093,-0.9375,0.3125,-0.15625
1629709006125,-0.9375,0.3125,-0.15625
1629709006156,-0.9375,0.3125,-0.15625
1629709006187,-0.9375,0.3125,-0.15625
1629709006218,-0.9375,0.3125,-0.15625
1629709006250,-0.9375,0.296875,-0.15625
1629709006281,-0.9375,0.3125,-0.15625
1629709006312,-0.9375,0.3125,-0.15625
1629709006343,-0.9375,0.3125,-0.15625
1629709006375,-0.9375,0.3125,-0.15625
1629709006406,-0.9375,0.296875,-0.15625
1629709006437,-0.9375,0.296875,-0.15625
1629709006468,-0.9375,0.296875,-0.15625
1629709006500,-0.9375,0.296875,-0.15625
1629709006531,-0.9375,0.296875,-0.15625
1629709006562,-0.9375,0.296875,-0.15625
1629709006593,-0.9375,0.3125,-0.171875
1629709006625,-0.9375,0.3125,-0.171875
1629709006656,-0.9375,0.3125,-0.171875
1629709006687,-0.9375,0.296875,-0.15625
1629709006718,-0.9375,0.296875,-0.171875
1629709006750,-0.9375,0.296875,-0.171875
1629709006781,-0.9375,0.296875,-0.171875
1629709006812,-0.9375,0.296875,-0.171875
1629709006843,-0.9375,0.296875,-0.171875
1629709006875,-0.9375,0.296875,-0.171875
1629709006906,-0.9375,0.296875,-0.15625
1629709006937,-0.9375,0.296875,-0.15625
1629709006968,-0.9375,0.296875,-0.171875
1629709007000,-0.9375,0.296875,-0.171875
1629709007031,-0.9375,0.3125,-0.171875
1629709007062,-0.9375,0.3125,-0.171875
1629709007093,-0.9375,0.296875,-0.171875
1629709007125,-0.9375,0.296875,-0.15625
1629709007156,-0.9375,0.296875,-0.171875
1629709007187,-0.9375,0.296875,-0.171875
1629709007218,-0.9375,0.296875,-0.15625
1629709007250,-0.9375,0.296875,-0.15625
1629709007281,-0.9375,0.296875,-0.15625
1629709007312,-0.9375,0.296875,-0.15625
1629709007343,-0.9375,0.296875,-0.171875
1629709007375,-0.9375,0.296875,-0.171875
1629709007406,-0.9375,0.296875,-0.171875
1629709007437,-0.9375,0.296875,-0.171875
1629709007468,-0.9375,0.3125,-0.171875
1629709007500,-0.9375,0.296875,-0.171875
1629709007531,-0.9375,0.296875,-0.171875
1629709007562,-0.9375,0.296875,-0.171875
1629709007593,-0.9375,0.296875,-0.171875
1629709007625,-0.9375,0.296875,-0.171875
1629709007656,-0.9375,0.296875,-0.171875
1629709007687,-0.9375,0.296875,-0.171875
1629709007718,-0.9375,0.296875,-0.171875
1629709007750,-0.9375,0.296875,-0.171875
1629709007781,-0.9375,0.296875,-0.171875
1629709007812,-0.9375,0.296875,-0.171875
1629709007843,-0.9375,0.296875,-0.171875
1629709007875,-0.9375,0.296875,-0.171875
1629709007906,-0.9375,0.296875,-0.171875
1629709007937,-0.9375,0.296875,-0.171875
1629709007968,-0.9375,0.296875,-0.171875
1629709008000,-0.9375,0.296875,-0.171875
1629709008031,-0.9375,0.296875,-0.1875
1629709008062,-0.9375,0.296875,-0.1875
1629709008093,-0.9375,0.296875,-0.1875
1629709008125,-0.9375,0.296875,-0.171875
1629709008156,-0.9375,0.296875,-0.1875
1629709008187,-0.9375,0.296875,-0.1875
1629709008218,-0.9375,0.296875,-0.171875
1629709008250,-0.9375,0.296875,-0.1875
1629709008281,-0.9375,0.296875,-0.171875
1629709008312,-0.9375,0.28125,-0.1875
1629709008343,-0.9375,0.296875,-0.1875
1629709008375,-0.9375,0.296875,-0.1875
1629709008406,-0.9375,0.296875,-0.1875
1629709008437,-0.9375,0.296875,-0.1875
1629709008468,-0.9375,0.296875,-0.1875
1629709008500,-0.9375,0.296875,-0.171875
1629709008531,-0.9375,0.296875,-0.171875
1629709008562,-0.9375,0.296875,-0.1875
1629709008593,-0.9375,0.296875,-0.1875
1629709008625,-0.9375,0.296875,-0.1875
1629709008656,-0.9375,0.296875,-0.1875
1629709008687,-0.9375,0.296875,-0.1875
1629709008718,-0.9375,0.296875,-0.1875
1629709008750,-0.9375,0.296875,-0.1875
1629709008781,-0.9375,0.296875,-0.1875
1629709008812,-0.9375,0.296875,-0.1875
1629709008843,-0.9375,0.296875,-0.1875
1629709008875,-0.9375,0.296875,-0.1875
1629709008906,-0.9375,0.296875,-0.171875
1629709008937,-0.9375,0.296875,-0.171875
1629709008968,-0.9375,0.296875,-0.1875
1629709009000,-0.9375,0.28125,-0.171875
1629709009031,-0.9375,0.296875,-0.1875
1629709009062,-0.9375,0.296875,-0.1875
1629709009093,-0.9375,0.296875,-0.1875
1629709009125,-0.9375,0.296875,-0.1875
1629709009156,-0.9375,0.296875,-0.1875
1629709009187,-0.9375,0.296875,-0.1875
1629709009218,-0.9375,0.296875,-0.1875
1629709009250,-0.9375,0.296875,-0.1875
1629709009281,-0.9375,0.296875,-0.1875
1629709009312,-0.9375,0.296875,-0.1875
1629709009343,-0.9375,0.296875,-0.1875
1629709009375,-0.9375,0.296875,-0.1875
1629709009406,-0.9375,0.28125,-0.1875
1629709009437,-0.9375,0.296875,-0.1875
1629709009468,-0.9375,0.296875,-0.171875
1629709009500,-0.9375,0.28125,-0.171875
1629709009531,-0.9375,0.296875,-0.1875
1629709009562,-0.9375,0.296875,-0.1875
1629709009593,-0.9375,0.28125,-0.1875
1629709009625,-0.9375,0.296875,-0.1875
1629709009656,-0.9375,0.296875,-0.171875
1629709009687,-0.9375,0.296875,-0.1875
1629709009718,-0.9375,0.296875,-0.1875
1629709009750,-0.9375,0.296875,-0.171875
1629709009781,-0.9375,0.296875,-0.1875
1629709009812,-0.9375,0.296875,-0.1875
1629709009843,-0.9375,0.28125,-0.1875
1629709009875,-0.9375,0.296875,-0.1875
1629709009906,-0.9375,0.28125,-0.171875
1629709009937,-0.9375,0.28125,-0.1875
1629709009968,-0.9375,0.28125,-0.1875
1629709010000,-0.9375,0.296875,-0.1875
1629709010031,-0.9375,0.296875,-0.1875
1629709010062,-0.9375,0.296875,-0.171875
1629709010093,-0.921875,0.296875,-0.171875
1629709010125,-0.9375,0.296875,-0.1875
1629709010156,-0.9375,0.296875,-0.1875
1629709010187,-0.9375,0.296875,-0.1875
1629709010218,-0.9375,0.296875,-0.1875
1629709010250,-0.9375,0.296875,-0.1875
1629709010281,-0.9375,0.28125,-0.1875
1629709010312,-0.9375,0.296875,-0.1875
1629709010343,-0.9375,0.296875,-0.1875
1629709010375,-0.9375,0.296875,-0.1875
1629709010406,-0.9375,0.28125,-0.1875
1629709010437,-0.9375,0.296875,-0.1875
1629709010468,-0.9375,0.296875,-0.1875
1629709010500,-0.9375,0.296875,-0.1875
1629709010531,-0.9375,0.296875,-0.1875
1629709010562,-0.9375,0.296875,-0.1875
1629709010593,-0.9375,0.296875,-0.1875
1629709010625,-0.9375,0.296875,-0.1875
1629709010656,-0.9375,0.296875,-0.1875
1629709010687,-0.9375,0.296875,-0.1875
1629709010718,-0.9375,0.296875,-0.171875
1629709010750,-0.9375,0.28125,-0.1875
1629709010781,-0.9375,0.296875,-0.1875
1629709010812,-0.9375,0.296875,-0.1875
1629709010843,-0.9375,0.296875,-0.1875
1629709010875,-0.9375,0.296875,-0.1875
1629709010906,-0.9375,0.296875,-0.1875
1629709010937,-0.9375,0.296875,-0.1875
1629709010968,-0.9375,0.296875,-0.1875
1629709011000,-0.9375,0.296875,-0.1875
1629709011031,-0.9375,0.296875,-0.171875
1629709011062,-0.9375,0.296875,-0.1875
1629709011093,-0.9375,0.296875,-0.1875
1629709011125,-0.9375,0.296875,-0.171875
1629709011156,-0.9375,0.296875,-0.1875
1629709011187,-0.9375,0.296875,-0.1875
1629709011218,-0.9375,0.28125,-0.1875
1629709011250,-0.9375,0.296875,-0.1875
1629709011281,-0.9375,0.296875,-0.1875
1629709011312,-0.9375,0.28125,-0.1875
1629709011343,-0.9375,0.296875,-0.1875
1629709011375,-0.9375,0.296875,-0.1875
1629709011406,-0.9375,0.296875,-0.171875
1629709011437,-0.9375,0.296875,-0.1875
1629709011468,-0.9375,0.296875,-0.1875
1629709011500,-0.9375,0.28125,-0.1875
1629709011531,-0.9375,0.28125,-0.171875
1629709011562,-0.9375,0.296875,-0.1875
1629709011593,-0.9375,0.28125,-0.1875
1629709011625,-0.9375,0.296875,-0.1875
1629709011656,-0.9375,0.296875,-0.1875
1629709011687,-0.9375,0.296875,-0.1875
1629709011718,-0.9375,0.296875,-0.1875
1629709011750,-0.9375,0.296875,-0.1875
1629709011781,-0.9375,0.28125,-0.1875
1629709011812,-0.9375,0.28125,-0.1875
1629709011843,-0.9375,0.296875,-0.1875
1629709011875,-0.9375,0.296875,-0.171875
1629709011906,-0.9375,0.28125,-0.1875
1629709011937,-0.9375,0.296875,-0.1875
1629709011968,-0.9375,0.296875,-0.1875
1629709012000,-0.9375,0.296875,-0.1875
1629709012031,-0.9375,0.296875,-0.1875
1629709012062,-0.9375,0.296875,-0.1875
1629709012093,-0.9375,0.296875,-0.1875
1629709012125,-0.9375,0.28125,-0.1875
1629709012156,-0.9375,0.28125,-0.171875
1629709012187,-0.9375,0.296875,-0.1875
1629709012218,-0.9375,0.28125,-0.1875
1629709012250,-0.9375,0.296875,-0.1875
1629709012281,-0.9375,0.296875,-0.1875
1629709012312,-0.9375,0.296875,-0.171875
1629709012343,-0.9375,0.28125,-0.171875
1629709012375,-0.9375,0.296875,-0.1875
1629709012406,-0.9375,0.28125,-0.1875
1629709012437,-0.9375,0.28125,-0.1875
1629709012468,-0.9375,0.296875,-0.171875
1629709012500,-0.9375,0.28125,-0.171875
1629709012531,-0.9375,0.296875,-0.171875
1629709012562,-0.9375,0.296875,-0.171875
1629709012593,-0.9375,0.296875,-0.171875
1629709012625,-0.9375,0.28125,-0.171875
1629709012656,-0.9375,0.296875,-0.171875
1629709012687,-0.9375,0.296875,-0.171875
1629709012718,-0.9375,0.296875,-0.171875
1629709012750,-0.9375,0.296875,-0.171875
1629709012781,-0.9375,0.296875,-0.1875
1629709012812,-0.9375,0.296875,-0.171875
1629709012843,-0.9375,0.296875,-0.171875
1629709012875,-0.9375,0.296875,-0.171875
1629709012906,-0.9375,0.296875,-0.171875
1629709012937,-0.9375,0.296875,-0.171875
1629709012968,-0.9375,0.296875,-0.171875
1629709013000,-0.9375,0.296875,-0.1875
1629709013031,-0.9375,0.296875,-0.171875
1629709013062,-0.9375,0.296875,-0.171875
1629709013093,-0.9375,0.296875,-0.171875
1629709013125,-0.9375,0.296875,-0.171875
1629709013156,-0.9375,0.296875,-0.171875
1629709013187,-0.9375,0.296875,-0.171875
1629709013218,-0.9375,0.296875,-0.171875
1629709013250,-0.9375,0.296875,-0.171875
1629709013281,-0.9375,0.296875,-0.171875
1629709013312,-0.9375,0.296875,-0.171875
1629709013343,-0.9375,0.296875,-0.171875
1629709013375,-0.9375,0.296875,-0.171875
1629709013406,-0.9375,0.296875,-0.171875
1629709013437,-0.9375,0.296875,-0.171875
1629709013468,-0.9375,0.296875,-0.171875
1629709013500,-0.9375,0.296875,-0.171875
1629709013531,-0.9375,0.296875,-0.171875
1629709013562,-0.9375,0.296875,-0.171875
1629709013593,-0.9375,0.296875,-0.171875
1629709013625,-0.9375,0.296875,-0.1875
1629709013656,-0.9375,0.296875,-0.1875
1629709013687,-0.9375,0.296875,-0.171875
1629709013718,-0.9375,0.296875,-0.1875
1629709013750,-0.9375,0.296875,-0.171875
1629709013781,-0.9375,0.296875,-0.171875
1629709013812,-0.9375,0.296875,-0.171875
1629709013843,-0.9375,0.296875,-0.171875
1629709013875,-0.9375,0.296875,-0.1875
1629709013906,-0.9375,0.296875,-0.171875
1629709013937,-0.9375,0.296875,-0.1875
1629709013968,-0.9375,0.296875,-0.1875
1629709014000,-0.9375,0.296875,-0.1875
1629709014031,-0.9375,0.296875,-0.1875
1629709014062,-0.9375,0.296875,-0.171875
1629709014093,-0.9375,0.28125,-0.1875
1629709014125,-0.9375,0.296875,-0.1875
1629709014156,-0.9375,0.296875,-0.171875
1629709014187,-0.9375,0.296875,-0.1875
1629709014218,-0.9375,0.296875,-0.1875
1629709014250,-0.9375,0.296875,-0.1875
1629709014281,-0.9375,0.296875,-0.1875
1629709014312,-0.9375,0.296875,-0.171875
1629709014343,-0.9375,0.296875,-0.171875
1629709014375,-0.9375,0.296875,-0.1875
1629709014406,-0.9375,0.296875,-0.171875
1629709014437,-0.9375,0.296875,-0.171875
1629709014468,-0.9375,0.296875,-0.171875
1629709014500,-0.9375,0.296875,-0.1875
1629709014531,-0.9375,0.296875,-0.171875
1629709014562,-0.9375,0.296875,-0.171875
1629709014593,-0.9375,0.296875,-0.171875
1629709014625,-0.9375,0.296875,-0.171875
1629709014656,-0.9375,0.296875,-0.171875
1629709014687,-0.9375,0.296875,-0.1875
1629709014718,-0.9375,0.296875,-0.1875
1629709014750,-0.9375,0.296875,-0.1875
1629709014781,-0.9375,0.28125,-0.1875
1629709014812,-0.9375,0.296875,-0.1875
1629709014843,-0.9375,0.296875,-0.1875
1629709014875,-0.9375,0.296875,-0.171875
1629709014906,-0.9375,0.296875,-0.1875
1629709014937,-0.9375,0.296875,-0.1875
1629709014968,-0.9375,0.28125,-0.1875
1629709015000,-0.9375,0.28125,-0.1875
1629709015031,-0.9375,0.296875,-0.1875
1629709015062,-0.9375,0.296875,-0.1875
1629709015093,-0.9375,0.296875,-0.1875
1629709015125,-0.9375,0.296875,-0.1875
1629709015156,-0.9375,0.28125,-0.1875
1629709015187,-0.9375,0.296875,-0.171875
1629709015218,-0.9375,0.296875,-0.1875
1629709015250,-0.9375,0.296875,-0.1875
1629709015281,-0.9375,0.28125,-0.171875
1629709015312,-0.9375,0.296875,-0.1875
1629709015343,-0.9375,0.296875,-0.1875
1629709015375,-0.9375,0.296875,-0.1875
1629709015406,-0.9375,0.28125,-0.1875
1629709015437,-0.9375,0.28125,-0.1875
1629709015468,-0.9375,0.296875,-0.1875
1629709015500,-0.9375,0.296875,-0.1875
1629709015531,-0.9375,0.296875,-0.1875
1629709015562,-0.9375,0.28125,-0.1875
1629709015593,-0.9375,0.296875,-0.1875
1629709015625,-0.9375,0.28125,-0.1875
1629709015656,-0.9375,0.28125,-0.1875
1629709015687,-0.9375,0.296875,-0.1875
1629709015718,-0.9375,0.296875,-0.1875
1629709015750,-0.9375,0.296875,-0.1875
1629709015781,-0.9375,0.296875,-0.1875
1629709015812,-0.9375,0.296875,-0.1875
1629709015843,-0.9375,0.296875,-0.1875
1629709015875,-0.9375,0.296875,-0.1875
1629709015906,-0.9375,0.296875,-0.1875
1629709015937,-0.9375,0.28125,-0.1875
1629709015968,-0.9375,0.296875,-0.1875
1629709016000,-0.9375,0.296875,-0.1875
1629709016031,-0.9375,0.28125,-0.1875
1629709016062,-0.9375,0.296875,-0.1875
1629709016093,-0.9375,0.296875,-0.1875
1629709016125,-0.9375,0.28125,-0.1875
1629709016156,-0.9375,0.296875,-0.1875
1629709016187,-0.9375,0.296875,-0.1875
1629709016218,-0.9375,0.296875,-0.1875
1629709016250,-0.9375,0.296875,-0.1875
1629709016281,-0.9375,0.296875,-0.1875
1629709016312,-0.9375,0.296875,-0.1875
1629709016343,-0.9375,0.28125,-0.1875
1629709016375,-0.9375,0.28125,-0.1875
1629709016406,-0.9375,0.28125,-0.1875
1629709016437,-0.9375,0.296875,-0.1875
1629709016468,-0.9375,0.296875,-0.1875
1629709016500,-0.9375,0.28125,-0.1875
1629709016531,-0.9375,0.296875,-0.1875
1629709016562,-0.9375,0.296875,-0.1875
1629709016593,-0.9375,0.296875,-0.1875
1629709016625,-0.9375,0.296875,-0.1875
1629709016656,-0.9375,0.296875,-0.1875
1629709016687,-0.9375,0.296875,-0.1875
1629709016718,-0.9375,0.296875,-0.1875
1629709016750,-0.9375,0.296875,-0.1875
1629709016781,-0.9375,0.28125,-0.1875
1629709016812,-0.9375,0.28125,-0.1875
1629709016843,-0.9375,0.28125,-0.1875
1629709016875,-0.9375,0.296875,-0.1875
1629709016906,-0.9375,0.28125,-0.1875
1629709016937,-0.921875,0.28125,-0.171875
1629709016968,-0.9375,0.296875,-0.1875
1629709017000,-0.9375,0.296875,-0.1875
1629709017031,-0.9375,0.28125,-0.1875
1629709017062,-0.9375,0.296875,-0.1875
1629709017093,-0.9375,0.296875,-0.1875
1629709017125,-0.9375,0.28125,-0.1875
1629709017156,-0.9375,0.28125,-0.1875
1629709017187,-0.9375,0.296875,-0.1875
1629709017218,-0.9375,0.28125,-0.1875
1629709017250,-0.9375,0.296875,-0.1875
1629709017281,-0.9375,0.296875,-0.1875
1629709017312,-0.9375,0.296875,-0.171875
1629709017343,-0.9375,0.296875,-0.1875
1629709017375,-0.9375,0.28125,-0.1875
1629709017406,-0.9375,0.296875,-0.1875
1629709017437,-0.9375,0.296875,-0.203125
1629709017468,-0.921875,0.296875,-0.171875
1629709017500,-0.9375,0.296875,-0.1875
1629709017531,-0.9375,0.28125,-0.1875
1629709017562,-0.9375,0.296875,-0.1875
1629709017593,-0.9375,0.28125,-0.1875
1629709017625,-0.9375,0.296875,-0.1875
1629709017656,-0.9375,0.296875,-0.1875
1629709017687,-0.9375,0.28125,-0.1875
1629709017718,-0.9375,0.296875,-0.1875
1629709017750,-0.9375,0.296875,-0.1875
1629709017781,-0.9375,0.28125,-0.1875
1629709017812,-0.9375,0.28125,-0.1875
1629709017843,-0.9375,0.296875,-0.1875
1629709017875,-0.9375,0.296875,-0.1875
1629709017906,-0.9375,0.296875,-0.1875
1629709017937,-0.9375,0.296875,-0.1875
1629709017968,-0.9375,0.296875,-0.1875
1629709018000,-0.9375,0.296875,-0.1875
1629709018031,-0.9375,0.28125,-0.1875
1629709018062,-0.9375,0.296875,-0.1875
1629709018093,-0.9375,0.296875,-0.1875
1629709018125,-0.9375,0.28125,-0.1875
1629709018156,-0.9375,0.296875,-0.1875
1629709018187,-0.9375,0.296875,-0.1875
1629709018218,-0.9375,0.296875,-0.1875
1629709018250,-0.9375,0.296875,-0.1875
1629709018281,-0.9375,0.296875,-0.1875
1629709018312,-0.9375,0.296875,-0.1875
1629709018343,-0.9375,0.296875,-0.1875
1629709018375,-0.9375,0.28125,-0.1875
1629709018406,-0.9375,0.296875,-0.1875
1629709018437,-0.9375,0.296875,-0.1875
1629709018468,-0.9375,0.296875,-0.1875
1629709018500,-0.9375,0.296875,-0.1875
1629709018531,-0.9375,0.296875,-0.1875
1629709018562,-0.9375,0.296875,-0.1875
1629709018593,-0.9375,0.296875,-0.1875
1629709018625,-0.9375,0.296875,-0.171875
1629709018656,-0.9375,0.296875,-0.171875
1629709018687,-0.9375,0.296875,-0.1875
1629709018718,-0.9375,0.296875,-0.1875
1629709018750,-0.9375,0.28125,-0.1875
1629709018781,-0.9375,0.296875,-0.1875
1629709018812,-0.9375,0.296875,-0.171875
1629709018843,-0.9375,0.28125,-0.1875
1629709018875,-0.9375,0.296875,-0.1875
1629709018906,-0.9375,0.296875,-0.171875
1629709018937,-0.921875,0.296875,-0.171875
1629709018968,-0.9375,0.296875,-0.1875
1629709019000,-0.9375,0.296875,-0.1875
1629709019031,-0.9375,0.296875,-0.1875
1629709019062,-0.9375,0.296875,-0.1875
1629709019093,-0.9375,0.296875,-0.171875
1629709019125,-0.9375,0.296875,-0.1875
1629709019156,-0.9375,0.296875,-0.1875
1629709019187,-0.9375,0.296875,-0.1875
1629709019218,-0.9375,0.296875,-0.1875
1629709019250,-0.9375,0.296875,-0.1875
1629709019281,-0.9375,0.296875,-0.1875
1629709019312,-0.9375,0.296875,-0.1875
1629709019343,-0.9375,0.296875,-0.1875
1629709019375,-0.9375,0.28125,-0.1875
1629709019406,-0.9375,0.296875,-0.1875
1629709019437,-0.9375,0.296875,-0.1875
1629709019468,-0.9375,0.296875,-0.1875
1629709019500,-0.9375,0.296875,-0.1875
1629709019531,-0.9375,0.296875,-0.171875
1629709019562,-0.9375,0.296875,-0.1875
1629709019593,-0.9375,0.296875,-0.1875
1629709019625,-0.9375,0.296875,-0.1875
1629709019656,-0.9375,0.296875,-0.1875
1629709019687,-0.9375,0.296875,-0.1875
1629709019718,-0.9375,0.296875,-0.1875
1629709019750,-0.9375,0.296875,-0.1875
1629709019781,-0.9375,0.296875,-0.1875
1629709019812,-0.9375,0.296875,-0.1875
1629709019843,-0.9375,0.296875,-0.1875
1629709019875,-0.9375,0.296875,-0.1875
1629709019906,-0.9375,0.296875,-0.1875
1629709019937,-0.9375,0.296875,-0.1875
1629709019968,-0.9375,0.296875,-0.1875
1629709020000,-0.9375,0.28125,-0.1875
1629709020031,-0.9375,0.28125,-0.1875
1629709020062,-0.9375,0.296875,-0.1875
1629709020093,-0.9375,0.296875,-0.1875
1629709020125,-0.9375,0.296875,-0.1875
1629709020156,-0.9375,0.296875,-0.1875
1629709020187,-0.9375,0.296875,-0.1875
1629709020218,-0.9375,0.296875,-0.1875
1629709020250,-0.9375,0.296875,-0.1875
1629709020281,-0.9375,0.28125,-0.1875
1629709020312,-0.9375,0.296875,-0.1875
1629709020343,-0.9375,0.296875,-0.1875
1629709020375,-0.9375,0.296875,-0.1875
1629709020406,-0.9375,0.296875,-0.1875
1629709020437,-0.9375,0.296875,-0.1875
1629709020468,-0.9375,0.296875,-0.1875
1629709020500,-0.9375,0.296875,-0.1875
1629709020531,-0.9375,0.28125,-0.1875
1629709020562,-0.9375,0.296875,-0.1875
1629709020593,-0.9375,0.296875,-0.1875
1629709020625,-0.9375,0.28125,-0.1875
1629709020656,-0.9375,0.296875,-0.1875
1629709020687,-0.9375,0.28125,-0.1875
1629709020718,-0.9375,0.28125,-0.1875
1629709020750,-0.9375,0.28125,-0.1875
1629709020781,-0.9375,0.28125,-0.1875
1629709020812,-0.9375,0.296875,-0.1875
1629709020843,-0.9375,0.28125,-0.1875
1629709020875,-0.9375,0.28125,-0.1875
1629709020906,-0.9375,0.296875,-0.1875
1629709020937,-0.9375,0.296875,-0.1875
1629709020968,-0.9375,0.296875,-0.1875
1629709021000,-0.9375,0.296875,-0.1875
1629709021031,-0.9375,0.296875,-0.1875
1629709021062,-0.9375,0.296875,-0.1875
1629709021093,-0.9375,0.296875,-0.1875
1629709021125,-0.9375,0.296875,-0.1875
1629709021156,-0.9375,0.296875,-0.1875
1629709021187,-0.9375,0.296875,-0.1875
1629709021218,-0.9375,0.296875,-0.1875
1629709021250,-0.9375,0.296875,-0.1875
1629709021281,-0.9375,0.296875,-0.1875
1629709021312,-0.9375,0.296875,-0.1875
1629709021343,-0.9375,0.296875,-0.1875
1629709021375,-0.9375,0.296875,-0.1875
1629709021406,-0.9375,0.28125,-0.1875
1629709021437,-0.9375,0.296875,-0.1875
1629709021468,-0.9375,0.28125,-0.1875
1629709021500,-0.9375,0.296875,-0.1875
1629709021531,-0.9375,0.296875,-0.1875
1629709021562,-0.9375,0.296875,-0.1875
1629709021593,-0.9375,0.28125,-0.1875
1629709021625,-0.9375,0.28125,-0.1875
1629709021656,-0.9375,0.296875,-0.1875
1629709021687,-0.9375,0.296875,-0.1875
1629709021718,-0.9375,0.28125,-0.1875
1629709021750,-0.9375,0.28125,-0.1875
1629709021781,-0.9375,0.296875,-0.1875
1629709021812,-0.9375,0.28125,-0.1875
1629709021843,-0.9375,0.28125,-0.1875
1629709021875,-0.9375,0.296875,-0.1875
1629709021906,-0.9375,0.28125,-0.1875
1629709021937,-0.9375,0.28125,-0.1875
1629709021968,-0.9375,0.28125,-0.1875
1629709022000,-0.9375,0.296875,-0.1875
1629709022031,-0.9375,0.28125,-0.1875
1629709022062,-0.9375,0.296875,-0.1875
1629709022093,-0.9375,0.296875,-0.1875
1629709022125,-0.9375,0.296875,-0.1875
1629709022156,-0.9375,0.28125,-0.1875
1629709022187,-0.9375,0.296875,-0.1875
1629709022218,-0.9375,0.296875,-0.203125
1629709022250,-0.9375,0.296875,-0.1875
1629709022281,-0.9375,0.296875,-0.1875
1629709022312,-0.9375,0.296875,-0.1875
1629709022343,-0.9375,0.296875,-0.1875
1629709022375,-0.9375,0.28125,-0.1875
1629709022406,-0.9375,0.28125,-0.1875
1629709022437,-0.9375,0.296875,-0.1875
1629709022468,-0.9375,0.296875,-0.1875
1629709022500,-0.9375,0.296875,-0.1875
1629709022531,-0.9375,0.296875,-0.1875
1629709022562,-0.9375,0.28125,-0.1875
1629709022593,-0.9375,0.28125,-0.1875
1629709022625,-0.9375,0.296875,-0.1875
1629709022656,-0.9375,0.296875,-0.203125
1629709022687,-0.9375,0.296875,-0.1875
1629709022718,-0.9375,0.28125,-0.171875
1629709022750,-0.9375,0.28125,-0.1875
1629709022781,-0.9375,0.296875,-0.203125
1629709022812,-0.9375,0.296875,-0.21875
1629709022843,-0.9375,0.296875,-0.203125
1629709022875,-0.9375,0.296875,-0.1875
1629709022906,-0.9375,0.296875,-0.203125
1629709022937,-0.9375,0.296875,-0.203125
1629709022968,-0.9375,0.296875,-0.1875
1629709023000,-0.9375,0.296875,-0.1875
1629709023031,-0.9375,0.296875,-0.1875
1629709023062,-0.9375,0.296875,-0.1875
1629709023093,-0.9375,0.296875,-0.1875
1629709023125,-0.9375,0.296875,-0.1875
1629709023156,-0.9375,0.28125,-0.1875
1629709023187,-0.9375,0.28125,-0.203125
1629709023218,-0.9375,0.296875,-0.1875
1629709023250,-0.9375,0.296875,-0.1875
1629709023281,-0.9375,0.296875,-0.1875
1629709023312,-0.9375,0.296875,-0.1875
1629709023343,-0.9375,0.296875,-0.1875
1629709023375,-0.9375,0.296875,-0.1875
1629709023406,-0.9375,0.296875,-0.1875
1629709023437,-0.9375,0.296875,-0.1875
1629709023468,-0.9375,0.296875,-0.1875
1629709023500,-0.9375,0.296875,-0.1875
1629709023531,-0.9375,0.296875,-0.1875
1629709023562,-0.9375,0.296875,-0.1875
1629709023593,-0.9375,0.296875,-0.1875
1629709023625,-0.9375,0.296875,-0.1875
1629709023656,-0.9375,0.296875,-0.1875
1629709023687,-0.9375,0.296875,-0.1875
1629709023718,-0.9375,0.296875,-0.1875
1629709023750,-0.9375,0.296875,-0.1875
1629709023781,-0.9375,0.296875,-0.1875
1629709023812,-0.9375,0.296875,-0.1875
1629709023843,-0.9375,0.296875,-0.1875
1629709023875,-0.9375,0.296875,-0.171875
1629709023906,-0.9375,0.28125,-0.1875
1629709023937,-0.9375,0.296875,-0.1875
1629709023968,-0.9375,0.296875,-0.1875
1629709024000,-0.9375,0.296875,-0.1875
1629709024031,-0.9375,0.296875,-0.1875
1629709024062,-0.9375,0.296875,-0.1875
1629709024093,-0.9375,0.296875,-0.1875
1629709024125,-0.9375,0.296875,-0.1875
1629709024156,-0.9375,0.296875,-0.1875
1629709024187,-0.9375,0.296875,-0.1875
1629709024218,-0.9375,0.296875,-0.1875
1629709024250,-0.9375,0.28125,-0.171875
1629709024281,-0.9375,0.28125,-0.15625
1629709024312,-1.0,0.28125,-0.265625
1629709024343,-0.9375,0.296875,-0.171875
1629709024375,-0.9375,0.28125,-0.1875
1629709024406,-0.9375,0.296875,-0.171875
1629709024437,-0.9375,0.28125,-0.1875
1629709024468,-0.9375,0.296875,-0.171875
1629709024500,-0.9375,0.296875,-0.1875
1629709024531,-0.9375,0.28125,-0.171875
1629709024562,-0.9375,0.296875,-0.171875
1629709024593,-0.9375,0.296875,-0.1875
1629709024625,-0.953125,0.296875,-0.1875
1629709024656,-0.9375,0.296875,-0.1875
1629709024687,-0.9375,0.28125,-0.1875
1629709024718,-0.9375,0.28125,-0.1875
1629709024750,-0.9375,0.296875,-0.1875
1629709024781,-0.9375,0.296875,-0.1875
1629709024812,-0.9375,0.296875,-0.1875
1629709024843,-0.9375,0.28125,-0.1875
1629709024875,-0.9375,0.296875,-0.1875
1629709024906,-0.9375,0.296875,-0.1875
1629709024937,-0.9375,0.296875,-0.1875
1629709024968,-0.9375,0.296875,-0.1875
1629709025000,-0.9375,0.296875,-0.1875
1629709025031,-0.921875,0.296875,-0.1875
1629709025062,-0.9375,0.296875,-0.171875
1629709025093,-0.921875,0.296875,-0.171875
1629709025125,-0.9375,0.296875,-0.1875
1629709025156,-0.9375,0.296875,-0.1875
1629709025187,-0.9375,0.296875,-0.1875
1629709025218,-0.9375,0.296875,-0.1875
1629709025250,-0.9375,0.28125,-0.1875
1629709025281,-0.9375,0.28125,-0.1875
1629709025312,-0.9375,0.28125,-0.1875
1629709025343,-0.9375,0.296875,-0.1875
1629709025375,-0.9375,0.28125,-0.1875
1629709025406,-0.9375,0.296875,-0.1875
1629709025437,-0.9375,0.28125,-0.203125
1629709025468,-0.9375,0.296875,-0.1875
1629709025500,-0.9375,0.296875,-0.1875
1629709025531,-0.9375,0.28125,-0.1875
1629709025562,-0.9375,0.296875,-0.1875
1629709025593,-0.9375,0.28125,-0.1875
1629709025625,-0.9375,0.28125,-0.1875
1629709025656,-0.9375,0.28125,-0.1875
1629709025687,-0.921875,0.28125,-0.171875
1629709025718,-0.953125,0.296875,-0.1875
1629709025750,-0.9375,0.296875,-0.1875
1629709025781,-0.9375,0.296875,-0.1875
1629709025812,-0.9375,0.296875,-0.171875
1629709025843,-0.9375,0.296875,-0.1875
1629709025875,-0.9375,0.296875,-0.1875
1629709025906,-0.9375,0.28125,-0.1875
1629709025937,-0.9375,0.296875,-0.1875
1629709025968,-0.9375,0.296875,-0.1875
1629709026000,-0.9375,0.28125,-0.1875
1629709026031,-0.9375,0.28125,-0.1875
1629709026062,-0.9375,0.28125,-0.1875
1629709026093,-0.9375,0.28125,-0.1875
1629709026125,-0.9375,0.28125,-0.1875
1629709026156,-0.9375,0.296875,-0.1875
1629709026187,-0.9375,0.296875,-0.1875
1629709026218,-0.9375,0.296875,-0.1875
1629709026250,-0.9375,0.296875,-0.1875
1629709026281,-0.9375,0.28125,-0.1875
1629709026312,-0.9375,0.28125,-0.1875
1629709026343,-0.9375,0.296875,-0.1875
1629709026375,-0.9375,0.296875,-0.1875
1629709026406,-0.9375,0.296875,-0.1875
1629709026437,-0.9375,0.28125,-0.1875
1629709026468,-0.9375,0.296875,-0.1875
1629709026500,-0.9375,0.296875,-0.1875
1629709026531,-0.9375,0.296875,-0.1875
1629709026562,-0.9375,0.296875,-0.1875
1629709026593,-0.9375,0.296875,-0.1875
1629709026625,-0.9375,0.296875,-0.1875
1629709026656,-0.9375,0.296875,-0.1875
1629709026687,-0.9375,0.296875,-0.1875
1629709026718,-0.9375,0.28125,-0.1875
1629709026750,-0.9375,0.296875,-0.1875
1629709026781,-0.9375,0.28125,-0.1875
1629709026812,-0.9375,0.296875,-0.1875
1629709026843,-0.9375,0.296875,-0.1875
1629709026875,-0.9375,0.296875,-0.1875
1629709026906,-0.9375,0.296875,-0.1875
1629709026937,-0.9375,0.28125,-0.1875
1629709026968,-0.9375,0.28125,-0.1875
1629709027000,-0.9375,0.28125,-0.1875
1629709027031,-0.9375,0.296875,-0.1875
1629709027062,-0.9375,0.296875,-0.1875
1629709027093,-0.9375,0.28125,-0.203125
1629709027125,-0.953125,0.28125,-0.1875
1629709027156,-0.90625,0.28125,-0.140625
1629709027187,-0.953125,0.28125,-0.21875
1629709027218,-0.9375,0.28125,-0.1875
1629709027250,-0.9375,0.28125,-0.1875
1629709027281,-0.9375,0.28125,-0.1875
1629709027312,-0.9375,0.28125,-0.1875
1629709027343,-0.9375,0.28125,-0.1875
1629709027375,-0.953125,0.296875,-0.203125
1629709027406,-0.9375,0.265625,-0.1875
1629709027437,-0.9375,0.28125,-0.1875
1629709027468,-0.953125,0.265625,-0.203125
1629709027500,-0.9375,0.265625,-0.1875
1629709027531,-0.9375,0.28125,-0.1875
1629709027562,-0.9375,0.28125,-0.1875
1629709027593,-0.953125,0.28125,-0.203125
1629709027625,-0.9375,0.28125,-0.1875
1629709027656,-0.9375,0.28125,-0.1875
1629709027687,-0.9375,0.28125,-0.203125
1629709027718,-0.9375,0.265625,-0.1875
1629709027750,-0.9375,0.28125,-0.1875
1629709027781,-0.9375,0.28125,-0.1875
1629709027812,-0.9375,0.28125,-0.1875
1629709027843,-0.9375,0.28125,-0.203125
1629709027875,-0.9375,0.28125,-0.1875
1629709027906,-0.9375,0.28125,-0.1875
1629709027937,-0.9375,0.28125,-0.1875
1629709027968,-0.9375,0.28125,-0.1875
1629709028000,-0.9375,0.265625,-0.1875
1629709028031,-0.9375,0.28125,-0.1875
1629709028062,-0.953125,0.28125,-0.203125
1629709028093,-0.9375,0.28125,-0.1875
1629709028125,-0.921875,0.28125,-0.171875
1629709028156,-0.953125,0.296875,-0.203125
1629709028187,-0.9375,0.296875,-0.171875
1629709028218,-0.9375,0.28125,-0.1875
1629709028250,-0.9375,0.28125,-0.203125
1629709028281,-0.9375,0.296875,-0.1875
1629709028312,-0.9375,0.28125,-0.1875
1629709028343,-0.9375,0.296875,-0.1875
1629709028375,-0.921875,0.296875,-0.1875
1629709028406,-0.9375,0.296875,-0.1875
1629709028437,-0.9375,0.296875,-0.1875
1629709028468,-0.921875,0.28125,-0.1875
1629709028500,-0.9375,0.296875,-0.1875
1629709028531,-0.9375,0.296875,-0.1875
1629709028562,-0.9375,0.28125,-0.1875
1629709028593,-0.9375,0.296875,-0.1875
1629709028625,-0.9375,0.28125,-0.1875
1629709028656,-0.9375,0.28125,-0.1875
1629709028687,-0.9375,0.296875,-0.203125
1629709028718,-0.9375,0.28125,-0.1875
1629709028750,-0.9375,0.296875,-0.1875
1629709028781,-0.9375,0.28125,-0.1875
1629709028812,-0.9375,0.28125,-0.1875
1629709028843,-0.9375,0.28125,-0.203125
1629709028875,-0.9375,0.28125,-0.203125
1629709028906,-0.9375,0.28125,-0.203125
1629709028937,-0.9375,0.296875,-0.1875
1629709028968,-0.9375,0.296875,-0.1875
1629709029000,-0.9375,0.296875,-0.203125
1629709029031,-0.9375,0.28125,-0.1875
1629709029062,-0.9375,0.28125,-0.203125
1629709029093,-0.9375,0.28125,-0.1875
1629709029125,-0.9375,0.28125,-0.1875
1629709029156,-0.9375,0.28125,-0.1875
1629709029187,-0.9375,0.28125,-0.1875
1629709029218,-0.9375,0.28125,-0.1875
1629709029250,-0.9375,0.28125,-0.1875
1629709029281,-0.9375,0.28125,-0.203125
1629709029312,-0.9375,0.28125,-0.203125
1629709029343,-0.9375,0.28125,-0.203125
1629709029375,-0.9375,0.28125,-0.1875
1629709029406,-0.9375,0.28125,-0.203125
1629709029437,-0.9375,0.28125,-0.203125
1629709029468,-0.9375,0.28125,-0.203125
1629709029500,-0.9375,0.28125,-0.1875
1629709029531,-0.9375,0.28125,-0.1875
1629709029562,-0.9375,0.28125,-0.203125
1629709029593,-0.921875,0.28125,-0.1875
1629709029625,-0.9375,0.296875,-0.203125
1629709029656,-0.9375,0.28125,-0.1875
1629709029687,-0.9375,0.28125,-0.203125
1629709029718,-0.9375,0.28125,-0.203125
1629709029750,-0.9375,0.28125,-0.1875
1629709029781,-0.9375,0.28125,-0.203125
1629709029812,-0.9375,0.28125,-0.203125
1629709029843,-0.9375,0.28125,-0.203125
1629709029875,-0.9375,0.28125,-0.203125
1629709029906,-0.9375,0.28125,-0.1875
1629709029937,-0.9375,0.28125,-0.203125
1629709029968,-0.9375,0.28125,-0.1875
1629709030000,-0.9375,0.28125,-0.21875
1629709030031,-0.9375,0.28125,-0.203125
1629709030062,-0.9375,0.28125,-0.203125
1629709030093,-0.9375,0.28125,-0.203125
1629709030125,-0.9375,0.28125,-0.203125
1629709030156,-0.9375,0.28125,-0.203125
1629709030187,-0.9375,0.28125,-0.203125
1629709030218,-0.9375,0.28125,-0.203125
1629709030250,-0.9375,0.28125,-0.203125
1629709030281,-0.9375,0.28125,-0.203125
1629709030312,-0.9375,0.28125,-0.203125
1629709030343,-0.921875,0.28125,-0.1875
1629709030375,-0.9375,0.28125,-0.203125
1629709030406,-0.9375,0.28125,-0.203125
1629709030437,-0.9375,0.28125,-0.203125
1629709030468,-0.9375,0.28125,-0.203125
1629709030500,-0.9375,0.28125,-0.203125
1629709030531,-0.9375,0.28125,-0.203125
1629709030562,-0.9375,0.28125,-0.21875
1629709030593,-0.9375,0.28125,-0.203125
1629709030625,-0.9375,0.28125,-0.203125
1629709030656,-0.9375,0.296875,-0.203125
1629709030687,-0.9375,0.28125,-0.203125
1629709030718,-0.9375,0.28125,-0.1875
1629709030750,-0.9375,0.28125,-0.203125
1629709030781,-0.9375,0.28125,-0.203125
1629709030812,-0.9375,0.28125,-0.203125
1629709030843,-0.9375,0.28125,-0.203125
1629709030875,-0.9375,0.28125,-0.203125
1629709030906,-0.9375,0.28125,-0.203125
1629709030937,-0.9375,0.28125,-0.203125
1629709030968,-0.9375,0.28125,-0.203125
1629709031000,-0.9375,0.28125,-0.203125
1629709031031,-0.921875,0.28125,-0.1875
1629709031062,-0.9375,0.28125,-0.203125
1629709031093,-0.9375,0.28125,-0.203125
1629709031125,-0.9375,0.28125,-0.1875
1629709031156,-0.9375,0.28125,-0.203125
1629709031187,-0.9375,0.28125,-0.1875
1629709031218,-0.9375,0.28125,-0.203125
1629709031250,-0.9375,0.28125,-0.203125
1629709031281,-0.9375,0.28125,-0.1875
1629709031312,-0.9375,0.28125,-0.203125
1629709031343,-0.9375,0.28125,-0.203125
1629709031375,-0.953125,0.28125,-0.203125
1629709031406,-0.921875,0.28125,-0.203125
1629709031437,-0.9375,0.28125,-0.203125
1629709031468,-0.953125,0.28125,-0.234375
1629709031500,-0.9375,0.28125,-0.21875
1629709031531,-0.9375,0.28125,-0.21875
1629709031562,-0.9375,0.28125,-0.203125
1629709031593,-0.9375,0.28125,-0.203125
1629709031625,-0.921875,0.28125,-0.203125
1629709031656,-0.9375,0.28125,-0.21875
1629709031687,-0.9375,0.28125,-0.21875
1629709031718,-0.921875,0.28125,-0.203125
1629709031750,-0.9375,0.28125,-0.203125
1629709031781,-0.9375,0.28125,-0.203125
1629709031812,-0.9375,0.28125,-0.203125
1629709031843,-0.921875,0.28125,-0.203125
1629709031875,-0.9375,0.28125,-0.203125
1629709031906,-0.9375,0.28125,-0.203125
1629709031937,-0.9375,0.28125,-0.203125
1629709031968,-0.9375,0.28125,-0.203125
1629709032000,-0.9375,0.28125,-0.203125
1629709032031,-0.9375,0.28125,-0.203125
1629709032062,-0.9375,0.28125,-0.203125
1629709032093,-0.9375,0.28125,-0.203125
1629709032125,-0.9375,0.296875,-0.203125
1629709032156,-0.9375,0.28125,-0.203125
1629709032187,-0.9375,0.28125,-0.203125
1629709032218,-0.9375,0.28125,-0.203125
1629709032250,-0.9375,0.28125,-0.203125
1629709032281,-0.9375,0.296875,-0.203125
1629709032312,-0.9375,0.296875,-0.203125
1629709032343,-0.9375,0.28125,-0.203125
1629709032375,-0.9375,0.296875,-0.203125
1629709032406,-0.9375,0.28125,-0.203125
1629709032437,-0.9375,0.296875,-0.203125
1629709032468,-0.9375,0.28125,-0.203125
1629709032500,-0.921875,0.296875,-0.203125
1629709032531,-0.921875,0.28125,-0.203125
1629709032562,-0.9375,0.296875,-0.203125
1629709032593,-0.9375,0.296875,-0.203125
1629709032625,-0.9375,0.296875,-0.203125
1629709032656,-0.9375,0.296875,-0.203125
1629709032687,-0.9375,0.296875,-0.203125
1629709032718,-0.9375,0.296875,-0.203125
1629709032750,-0.9375,0.296875,-0.203125
1629709032781,-0.9375,0.296875,-0.203125
1629709032812,-0.9375,0.296875,-0.203125
1629709032843,-0.9375,0.296875,-0.203125
1629709032875,-0.9375,0.28125,-0.203125
1629709032906,-0.9375,0.28125,-0.203125
1629709032937,-0.9375,0.28125,-0.203125
1629709032968,-0.9375,0.28125,-0.203125
1629709033000,-0.9375,0.28125,-0.203125
1629709033031,-0.921875,0.296875,-0.203125
1629709033062,-0.9375,0.296875,-0.203125
1629709033093,-0.9375,0.296875,-0.203125
1629709033125,-0.9375,0.28125,-0.203125
1629709033156,-0.9375,0.28125,-0.203125
1629709033187,-0.921875,0.296875,-0.203125
1629709033218,-0.9375,0.296875,-0.203125
1629709033250,-0.9375,0.28125,-0.203125
1629709033281,-0.9375,0.28125,-0.203125
1629709033312,-0.9375,0.28125,-0.203125
1629709033343,-0.9375,0.296875,-0.203125
1629709033375,-0.9375,0.296875,-0.203125
1629709033406,-0.9375,0.28125,-0.203125
1629709033437,-0.9375,0.28125,-0.203125
1629709033468,-0.9375,0.296875,-0.203125
1629709033500,-0.9375,0.28125,-0.203125
1629709033531,-0.9375,0.28125,-0.203125
1629709033562,-0.9375,0.28125,-0.203125
1629709033593,-0.9375,0.28125,-0.203125
1629709033625,-0.9375,0.28125,-0.203125
1629709033656,-0.9375,0.28125,-0.203125
1629709033687,-0.9375,0.28125,-0.203125
1629709033718,-0.9375,0.28125,-0.203125
1629709033750,-0.9375,0.28125,-0.21875
1629709033781,-0.9375,0.28125,-0.203125
1629709033812,-0.9375,0.28125,-0.203125
1629709033843,-0.9375,0.296875,-0.203125
1629709033875,-0.9375,0.28125,-0.21875
1629709033906,-0.9375,0.28125,-0.203125
1629709033937,-0.9375,0.28125,-0.203125
1629709033968,-0.921875,0.28125,-0.203125
1629709034000,-0.9375,0.28125,-0.203125
1629709034031,-0.9375,0.28125,-0.203125
1629709034062,-0.921875,0.28125,-0.203125
1629709034093,-0.9375,0.28125,-0.203125
1629709034125,-0.9375,0.28125,-0.21875
1629709034156,-0.9375,0.28125,-0.203125
1629709034187,-0.9375,0.28125,-0.21875
1629709034218,-0.9375,0.28125,-0.203125
1629709034250,-0.9375,0.296875,-0.203125
1629709034281,-0.9375,0.296875,-0.21875
1629709034312,-0.9375,0.28125,-0.203125
1629709034343,-0.9375,0.28125,-0.203125
1629709034375,-0.9375,0.296875,-0.21875
1629709034406,-0.9375,0.28125,-0.21875
1629709034437,-0.9375,0.28125,-0.203125
1629709034468,-0.9375,0.28125,-0.203125
1629709034500,-0.9375,0.28125,-0.203125
1629709034531,-0.9375,0.28125,-0.203125
1629709034562,-0.9375,0.28125,-0.21875
1629709034593,-0.9375,0.28125,-0.203125
1629709034625,-0.921875,0.28125,-0.203125
1629709034656,-0.9375,0.28125,-0.203125
1629709034687,-0.9375,0.28125,-0.21875
1629709034718,-0.9375,0.28125,-0.203125
1629709034750,-0.921875,0.28125,-0.203125
1629709034781,-0.921875,0.28125,-0.203125
1629709034812,-0.9375,0.28125,-0.21875
1629709034843,-0.9375,0.28125,-0.203125
1629709034875,-0.9375,0.28125,-0.203125
1629709034906,-0.9375,0.296875,-0.203125
1629709034937,-0.9375,0.28125,-0.203125
1629709034968,-0.921875,0.28125,-0.203125
1629709035000,-0.9375,0.28125,-0.21875
1629709035031,-0.9375,0.28125,-0.203125
1629709035062,-0.9375,0.28125,-0.203125
1629709035093,-0.9375,0.296875,-0.203125
1629709035125,-0.921875,0.28125,-0.203125
1629709035156,-0.9375,0.28125,-0.203125
1629709035187,-0.9375,0.296875,-0.21875
1629709035218,-0.9375,0.28125,-0.21875
1629709035250,-0.9375,0.28125,-0.203125
1629709035281,-0.9375,0.28125,-0.203125
1629709035312,-0.9375,0.28125,-0.21875
1629709035343,-0.9375,0.28125,-0.21875
1629709035375,-0.9375,0.28125,-0.21875
1629709035406,-0.9375,0.28125,-0.203125
1629709035437,-0.9375,0.28125,-0.203125
1629709035468,-0.9375,0.296875,-0.203125
1629709035500,-0.921875,0.28125,-0.203125
1629709035531,-0.9375,0.28125,-0.21875
1629709035562,-0.9375,0.28125,-0.203125
1629709035593,-0.921875,0.296875,-0.1875
1629709035625,-0.9375,0.296875,-0.1875
1629709035656,-0.9375,0.28125,-0.203125
1629709035687,-0.9375,0.28125,-0.203125
1629709035718,-0.9375,0.28125,-0.203125
1629709035750,-0.9375,0.28125,-0.203125
1629709035781,-0.9375,0.28125,-0.1875
1629709035812,-0.9375,0.28125,-0.1875
1629709035843,-0.953125,0.296875,-0.203125
1629709035875,-0.9375,0.28125,-0.1875
1629709035906,-0.921875,0.28125,-0.1875
1629709035937,-0.9375,0.28125,-0.1875
1629709035968,-0.953125,0.28125,-0.203125
1629709036000,-0.9375,0.28125,-0.1875
1629709036031,-0.9375,0.28125,-0.1875
1629709036062,-0.9375,0.28125,-0.1875
1629709036093,-0.953125,0.28125,-0.21875
1629709036125,-0.953125,0.28125,-0.1875
1629709036156,-0.9375,0.296875,-0.203125
1629709036187,-0.9375,0.28125,-0.1875
1629709036218,-0.9375,0.28125,-0.203125
1629709036250,-0.9375,0.28125,-0.203125
1629709036281,-0.9375,0.28125,-0.203125
1629709036312,-0.9375,0.28125,-0.1875
1629709036343,-0.9375,0.28125,-0.1875
1629709036375,-0.9375,0.28125,-0.203125
1629709036406,-0.9375,0.28125,-0.203125
1629709036437,-0.9375,0.28125,-0.203125
1629709036468,-0.9375,0.296875,-0.203125
1629709036500,-0.9375,0.28125,-0.203125
1629709036531,-0.9375,0.28125,-0.203125
1629709036562,-0.9375,0.28125,-0.1875
1629709036593,-0.9375,0.28125,-0.203125
1629709036625,-0.921875,0.28125,-0.1875
1629709036656,-0.9375,0.296875,-0.1875
1629709036687,-0.9375,0.28125,-0.203125
1629709036718,-0.9375,0.28125,-0.203125
1629709036750,-0.9375,0.28125,-0.203125
1629709036781,-0.9375,0.28125,-0.203125
1629709036812,-0.9375,0.28125,-0.203125
1629709036843,-0.9375,0.28125,-0.203125
1629709036875,-0.9375,0.28125,-0.203125
1629709036906,-0.9375,0.28125,-0.203125
1629709036937,-0.9375,0.28125,-0.203125
1629709036968,-0.9375,0.28125,-0.203125
1629709037000,-0.9375,0.28125,-0.203125
1629709037031,-0.9375,0.28125,-0.203125
1629709037062,-0.9375,0.28125,-0.203125
1629709037093,-0.9375,0.28125,-0.1875
1629709037125,-0.921875,0.28125,-0.203125
1629709037156,-0.9375,0.28125,-0.203125
1629709037187,-0.9375,0.28125,-0.203125
1629709037218,-0.9375,0.28125,-0.203125
1629709037250,-0.9375,0.28125,-0.1875
1629709037281,-0.9375,0.28125,-0.1875
1629709037312,-0.9375,0.28125,-0.1875
1629709037343,-0.9375,0.28125,-0.203125
1629709037375,-0.9375,0.28125,-0.203125
1629709037406,-0.9375,0.28125,-0.1875
1629709037437,-0.9375,0.28125,-0.203125
1629709037468,-0.9375,0.28125,-0.203125
1629709037500,-0.9375,0.28125,-0.203125
1629709037531,-0.9375,0.296875,-0.1875
1629709037562,-0.9375,0.296875,-0.1875
1629709037593,-0.9375,0.28125,-0.203125
1629709037625,-0.9375,0.28125,-0.203125
1629709037656,-0.9375,0.296875,-0.203125
1629709037687,-0.9375,0.28125,-0.1875
1629709037718,-0.9375,0.28125,-0.1875
1629709037750,-0.921875,0.296875,-0.15625
1629709037781,-0.90625,0.296875,-0.171875
1629709037812,-0.90625,0.296875,-0.203125
1629709037843,-0.953125,0.265625,-0.265625
1629709037875,-0.96875,0.265625,-0.28125
1629709037906,-0.9375,0.265625,-0.28125
1629709037937,-0.921875,0.265625,-0.296875
1629709037968,-0.9375,0.28125,-0.265625
1629709038000,-0.921875,0.296875,-0.25
1629709038031,-0.921875,0.28125,-0.265625
1629709038062,-0.921875,0.28125,-0.25
1629709038093,-0.921875,0.28125,-0.234375
1629709038125,-0.921875,0.28125,-0.25
1629709038156,-0.921875,0.28125,-0.25
1629709038187,-0.921875,0.28125,-0.25
1629709038218,-0.9375,0.28125,-0.25
1629709038250,-0.9375,0.28125,-0.234375
1629709038281,-0.921875,0.28125,-0.234375
1629709038312,-0.9375,0.296875,-0.21875
1629709038343,-0.921875,0.296875,-0.21875
1629709038375,-0.921875,0.296875,-0.21875
1629709038406,-0.921875,0.296875,-0.21875
1629709038437,-0.921875,0.296875,-0.21875
1629709038468,-0.9375,0.296875,-0.21875
1629709038500,-0.9375,0.28125,-0.21875
1629709038531,-0.9375,0.28125,-0.21875
1629709038562,-0.9375,0.28125,-0.21875
1629709038593,-0.9375,0.28125,-0.21875
1629709038625,-0.921875,0.28125,-0.21875
1629709038656,-0.9375,0.28125,-0.21875
1629709038687,-0.9375,0.28125,-0.21875
1629709038718,-0.921875,0.28125,-0.21875
1629709038750,-0.9375,0.28125,-0.21875
1629709038781,-0.9375,0.28125,-0.21875
1629709038812,-0.9375,0.28125,-0.21875
1629709038843,-0.921875,0.28125,-0.21875
1629709038875,-0.9375,0.28125,-0.21875
1629709038906,-0.9375,0.28125,-0.21875
1629709038937,-0.9375,0.28125,-0.21875
1629709038968,-0.9375,0.28125,-0.21875
1629709039000,-0.9375,0.28125,-0.21875
1629709039031,-0.9375,0.28125,-0.21875
1629709039062,-0.9375,0.28125,-0.21875
1629709039093,-0.9375,0.28125,-0.21875
1629709039125,-0.9375,0.28125,-0.21875
1629709039156,-0.9375,0.28125,-0.21875
1629709039187,-0.9375,0.28125,-0.21875
1629709039218,-0.921875,0.28125,-0.21875
1629709039250,-0.9375,0.28125,-0.21875
1629709039281,-0.9375,0.28125,-0.21875
1629709039312,-0.921875,0.28125,-0.21875
1629709039343,-0.921875,0.296875,-0.21875
1629709039375,-0.9375,0.28125,-0.21875
1629709039406,-0.9375,0.28125,-0.21875
1629709039437,-0.921875,0.28125,-0.21875
1629709039468,-0.9375,0.28125,-0.21875
1629709039500,-0.9375,0.28125,-0.203125
1629709039531,-0.921875,0.28125,-0.21875
1629709039562,-0.9375,0.28125,-0.21875
1629709039593,-0.9375,0.28125,-0.21875
1629709039625,-0.9375,0.28125,-0.234375
1629709039656,-0.9375,0.296875,-0.21875
1629709039687,-0.921875,0.28125,-0.203125
1629709039718,-0.9375,0.28125,-0.234375
1629709039750,-0.9375,0.28125,-0.234375
1629709039781,-0.9375,0.28125,-0.234375
1629709039812,-0.9375,0.265625,-0.234375
1629709039843,-0.9375,0.265625,-0.21875
1629709039875,-0.9375,0.28125,-0.234375
1629709039906,-0.9375,0.28125,-0.21875
1629709039937,-0.9375,0.28125,-0.21875
1629709039968,-0.9375,0.265625,-0.234375
1629709040000,-0.9375,0.28125,-0.234375
1629709040031,-0.953125,0.28125,-0.21875
1629709040062,-0.953125,0.296875,-0.21875
1629709040093,-0.921875,0.265625,-0.203125
1629709040125,-0.921875,0.28125,-0.21875
1629709040156,-0.9375,0.28125,-0.21875
1629709040187,-0.9375,0.28125,-0.21875
1629709040218,-0.9375,0.28125,-0.21875
1629709040250,-0.9375,0.28125,-0.21875
1629709040281,-0.9375,0.28125,-0.21875
1629709040312,-0.9375,0.28125,-0.21875
1629709040343,-0.921875,0.28125,-0.234375
1629709040375,-0.9375,0.28125,-0.21875
1629709040406,-0.9375,0.28125,-0.21875
1629709040437,-0.921875,0.28125,-0.21875
1629709040468,-0.9375,0.28125,-0.21875
1629709040500,-0.9375,0.28125,-0.21875
1629709040531,-0.9375,0.28125,-0.21875
1629709040562,-0.9375,0.28125,-0.21875
1629709040593,-0.9375,0.28125,-0.21875
1629709040625,-0.9375,0.28125,-0.21875
1629709040656,-0.9375,0.28125,-0.21875
1629709040687,-0.9375,0.28125,-0.21875
1629709040718,-0.9375,0.28125,-0.21875
1629709040750,-0.9375,0.28125,-0.21875
1629709040781,-0.9375,0.28125,-0.21875
1629709040812,-0.9375,0.28125,-0.21875
1629709040843,-0.9375,0.28125,-0.21875
1629709040875,-0.9375,0.28125,-0.21875
1629709040906,-0.9375,0.28125,-0.21875
1629709040937,-0.9375,0.28125,-0.21875
1629709040968,-0.921875,0.28125,-0.203125
1629709041000,-0.9375,0.28125,-0.21875
1629709041031,-0.9375,0.28125,-0.21875
1629709041062,-0.9375,0.28125,-0.21875
1629709041093,-0.921875,0.28125,-0.21875
1629709041125,-0.9375,0.28125,-0.21875
1629709041156,-0.9375,0.28125,-0.203125
1629709041187,-0.9375,0.28125,-0.21875
1629709041218,-0.9375,0.28125,-0.203125
1629709041250,-0.921875,0.28125,-0.203125
1629709041281,-0.953125,0.28125,-0.203125
1629709041312,-0.921875,0.296875,-0.203125
1629709041343,-0.921875,0.28125,-0.203125
1629709041375,-0.9375,0.28125,-0.203125
1629709041406,-0.9375,0.28125,-0.203125
1629709041437,-0.9375,0.28125,-0.203125
1629709041468,-0.9375,0.296875,-0.203125
1629709041500,-0.9375,0.28125,-0.203125
1629709041531,-0.9375,0.28125,-0.203125
1629709041562,-0.9375,0.28125,-0.203125
1629709041593,-0.9375,0.28125,-0.203125
1629709041625,-0.921875,0.28125,-0.203125
1629709041656,-0.9375,0.28125,-0.203125
1629709041687,-0.9375,0.28125,-0.203125
1629709041718,-0.9375,0.28125,-0.203125
1629709041750,-0.9375,0.28125,-0.203125
1629709041781,-0.9375,0.28125,-0.203125
1629709041812,-0.9375,0.28125,-0.203125
1629709041843,-0.9375,0.28125,-0.203125
1629709041875,-0.9375,0.28125,-0.1875
1629709041906,-0.9375,0.296875,-0.203125
1629709041937,-0.9375,0.296875,-0.203125
1629709041968,-0.9375,0.28125,-0.203125
1629709042000,-0.9375,0.28125,-0.203125
1629709042031,-0.9375,0.296875,-0.1875
1629709042062,-0.9375,0.296875,-0.1875
1629709042093,-0.9375,0.28125,-0.203125
1629709042125,-0.9375,0.296875,-0.1875
1629709042156,-0.9375,0.28125,-0.203125
1629709042187,-0.9375,0.296875,-0.1875
1629709042218,-0.9375,0.296875,-0.1875
1629709042250,-0.9375,0.296875,-0.1875
1629709042281,-0.9375,0.296875,-0.1875
1629709042312,-0.9375,0.296875,-0.1875
1629709042343,-0.9375,0.296875,-0.1875
1629709042375,-0.9375,0.296875,-0.1875
1629709042406,-0.9375,0.296875,-0.1875
1629709042437,-0.921875,0.296875,-0.171875
1629709042468,-0.9375,0.296875,-0.1875
1629709042500,-0.9375,0.296875,-0.171875
1629709042531,-0.9375,0.296875,-0.1875
1629709042562,-0.9375,0.3125,-0.1875
1629709042593,-0.9375,0.3125,-0.171875
1629709042625,-0.9375,0.3125,-0.171875
1629709042656,-0.9375,0.3125,-0.171875
1629709042687,-0.9375,0.3125,-0.171875
1629709042718,-0.9375,0.3125,-0.171875
1629709042750,-0.921875,0.3125,-0.171875
1629709042781,-0.9375,0.3125,-0.171875
1629709042812,-0.9375,0.3125,-0.171875
1629709042843,-0.9375,0.3125,-0.171875
1629709042875,-0.9375,0.3125,-0.171875
1629709042906,-0.9375,0.3125,-0.171875
1629709042937,-0.9375,0.3125,-0.171875
1629709042968,-0.9375,0.328125,-0.171875
1629709043000,-0.9375,0.328125,-0.171875
1629709043031,-0.921875,0.328125,-0.15625
1629709043062,-0.921875,0.328125,-0.15625
1629709043093,-0.9375,0.328125,-0.15625
1629709043125,-0.921875,0.328125,-0.15625
1629709043156,-0.921875,0.328125,-0.15625
1629709043187,-0.921875,0.3125,-0.15625
1629709043218,-0.90625,0.328125,-0.15625
1629709043250,-0.921875,0.328125,-0.171875
1629709043281,-0.9375,0.328125,-0.15625
1629709043312,-0.9375,0.328125,-0.171875
1629709043343,-0.9375,0.328125,-0.171875
1629709043375,-0.921875,0.328125,-0.15625
1629709043406,-0.921875,0.328125,-0.171875
1629709043437,-0.921875,0.328125,-0.171875
1629709043468,-0.921875,0.328125,-0.171875
1629709043500,-0.9375,0.328125,-0.171875
1629709043531,-0.9375,0.328125,-0.171875
1629709043562,-0.9375,0.328125,-0.171875
1629709043593,-0.921875,0.3125,-0.171875
1629709043625,-0.9375,0.3125,-0.171875
1629709043656,-0.921875,0.328125,-0.171875
1629709043687,-0.921875,0.328125,-0.171875
1629709043718,-0.921875,0.328125,-0.171875
1629709043750,-0.921875,0.328125,-0.171875
1629709043781,-0.921875,0.328125,-0.171875
1629709043812,-0.921875,0.328125,-0.171875
1629709043843,-0.953125,0.328125,-0.171875
1629709043875,-0.9375,0.328125,-0.1875
1629709043906,-0.9375,0.3125,-0.171875
1629709043937,-0.921875,0.328125,-0.171875
1629709043968,-0.921875,0.328125,-0.171875
1629709044000,-0.9375,0.3125,-0.1875
1629709044031,-0.921875,0.328125,-0.171875
1629709044062,-0.9375,0.3125,-0.171875
1629709044093,-0.921875,0.3125,-0.171875
1629709044125,-0.921875,0.3125,-0.171875
1629709044156,-0.9375,0.3125,-0.1875
1629709044187,-0.9375,0.3125,-0.1875
1629709044218,-0.921875,0.328125,-0.1875
1629709044250,-0.921875,0.328125,-0.1875
1629709044281,-0.921875,0.3125,-0.1875
1629709044312,-0.921875,0.3125,-0.171875
1629709044343,-0.9375,0.3125,-0.1875
1629709044375,-0.9375,0.3125,-0.1875
1629709044406,-0.921875,0.3125,-0.1875
1629709044437,-0.921875,0.3125,-0.1875
1629709044468,-0.9375,0.3125,-0.1875
1629709044500,-0.9375,0.3125,-0.1875
1629709044531,-0.921875,0.3125,-0.1875
1629709044562,-0.921875,0.3125,-0.1875
1629709044593,-0.921875,0.3125,-0.1875
1629709044625,-0.9375,0.3125,-0.1875
1629709044656,-0.9375,0.3125,-0.1875
1629709044687,-0.921875,0.3125,-0.1875
1629709044718,-0.921875,0.3125,-0.1875
1629709044750,-0.921875,0.3125,-0.1875
1629709044781,-0.9375,0.3125,-0.1875
1629709044812,-0.921875,0.3125,-0.203125
1629709044843,-0.921875,0.3125,-0.203125
1629709044875,-0.921875,0.3125,-0.1875
1629709044906,-0.9375,0.3125,-0.1875
1629709044937,-0.9375,0.3125,-0.1875
1629709044968,-0.9375,0.3125,-0.203125
1629709045000,-0.921875,0.3125,-0.1875
1629709045031,-0.9375,0.3125,-0.1875
1629709045062,-0.9375,0.3125,-0.1875
1629709045093,-0.921875,0.3125,-0.203125
1629709045125,-0.921875,0.3125,-0.203125
1629709045156,-0.921875,0.3125,-0.203125
1629709045187,-0.921875,0.3125,-0.203125
1629709045218,-0.9375,0.3125,-0.203125
1629709045250,-0.921875,0.3125,-0.203125
1629709045281,-0.9375,0.3125,-0.203125
1629709045312,-0.921875,0.296875,-0.203125
1629709045343,-0.9375,0.3125,-0.203125
1629709045375,-0.9375,0.3125,-0.203125
1629709045406,-0.9375,0.296875,-0.203125
1629709045437,-0.921875,0.296875,-0.203125
1629709045468,-0.921875,0.296875,-0.1875
1629709045500,-0.921875,0.3125,-0.203125
1629709045531,-0.921875,0.296875,-0.203125
1629709045562,-0.921875,0.3125,-0.203125
1629709045593,-0.921875,0.3125,-0.203125
1629709045625,-0.9375,0.3125,-0.203125
1629709045656,-0.9375,0.3125,-0.203125
1629709045687,-0.9375,0.3125,-0.203125
1629709045718,-0.921875,0.296875,-0.203125
1629709045750,-0.921875,0.296875,-0.203125
1629709045781,-0.921875,0.296875,-0.203125
1629709045812,-0.921875,0.3125,-0.203125
1629709045843,-0.921875,0.296875,-0.203125
1629709045875,-0.9375,0.296875,-0.203125
1629709045906,-0.9375,0.296875,-0.203125
1629709045937,-0.9375,0.3125,-0.203125
1629709045968,-0.921875,0.296875,-0.1875
1629709046000,-0.9375,0.296875,-0.203125
1629709046031,-0.9375,0.296875,-0.203125
1629709046062,-0.9375,0.296875,-0.203125
1629709046093,-0.9375,0.296875,-0.203125
1629709046125,-0.921875,0.296875,-0.203125
1629709046156,-0.921875,0.296875,-0.203125
1629709046187,-0.9375,0.296875,-0.203125
1629709046218,-0.921875,0.296875,-0.203125
1629709046250,-0.921875,0.296875,-0.203125
1629709046281,-0.9375,0.296875,-0.203125
1629709046312,-0.9375,0.296875,-0.203125
1629709046343,-0.9375,0.296875,-0.203125
1629709046375,-0.9375,0.296875,-0.203125
1629709046406,-0.9375,0.296875,-0.203125
1629709046437,-0.921875,0.296875,-0.203125
1629709046468,-0.9375,0.296875,-0.203125
1629709046500,-0.9375,0.296875,-0.203125
1629709046531,-0.921875,0.296875,-0.203125
1629709046562,-0.921875,0.3125,-0.203125
1629709046593,-0.9375,0.296875,-0.203125
1629709046625,-0.921875,0.296875,-0.203125
1629709046656,-0.921875,0.296875,-0.203125
1629709046687,-0.9375,0.296875,-0.203125
1629709046718,-0.921875,0.296875,-0.203125
1629709046750,-0.921875,0.296875,-0.203125
1629709046781,-0.921875,0.296875,-0.203125
1629709046812,-0.9375,0.296875,-0.203125
1629709046843,-0.9375,0.296875,-0.203125
1629709046875,-0.9375,0.296875,-0.203125
1629709046906,-0.921875,0.296875,-0.203125
1629709046937,-0.921875,0.296875,-0.203125
1629709046968,-0.921875,0.296875,-0.203125
1629709047000,-0.9375,0.296875,-0.203125
1629709047031,-0.921875,0.296875,-0.203125
1629709047062,-0.921875,0.296875,-0.203125
1629709047093,-0.921875,0.296875,-0.203125
1629709047125,-0.9375,0.3125,-0.203125
1629709047156,-0.921875,0.296875,-0.203125
1629709047187,-0.921875,0.296875,-0.203125
1629709047218,-0.921875,0.296875,-0.203125
1629709047250,-0.9375,0.296875,-0.203125
1629709047281,-0.9375,0.296875,-0.203125
1629709047312,-0.921875,0.296875,-0.203125
1629709047343,-0.9375,0.296875,-0.203125
1629709047375,-0.921875,0.296875,-0.21875
1629709047406,-0.921875,0.296875,-0.203125
1629709047437,-0.9375,0.296875,-0.203125
1629709047468,-0.921875,0.3125,-0.203125
1629709047500,-0.9375,0.3125,-0.203125
1629709047531,-0.9375,0.296875,-0.203125
1629709047562,-0.921875,0.296875,-0.203125
1629709047593,-0.921875,0.296875,-0.203125
1629709047625,-0.9375,0.296875,-0.203125
1629709047656,-0.921875,0.296875,-0.203125
1629709047687,-0.9375,0.3125,-0.203125
1629709047718,-0.921875,0.296875,-0.203125
1629709047750,-0.921875,0.296875,-0.203125
1629709047781,-0.9375,0.296875,-0.203125
1629709047812,-0.921875,0.296875,-0.203125
1629709047843,-0.921875,0.296875,-0.203125
1629709047875,-0.9375,0.296875,-0.203125
1629709047906,-0.9375,0.296875,-0.203125
1629709047937,-0.921875,0.296875,-0.203125
1629709047968,-0.921875,0.296875,-0.203125
1629709048000,-0.9375,0.296875,-0.203125
1629709048031,-0.9375,0.296875,-0.203125
1629709048062,-0.9375,0.296875,-0.203125
1629709048093,-0.9375,0.296875,-0.203125
1629709048125,-0.9375,0.296875,-0.203125
1629709048156,-0.921875,0.296875,-0.203125
1629709048187,-0.921875,0.296875,-0.203125
1629709048218,-0.921875,0.296875,-0.203125
1629709048250,-0.9375,0.296875,-0.203125
1629709048281,-0.9375,0.296875,-0.203125
1629709048312,-0.921875,0.296875,-0.203125
1629709048343,-0.9375,0.296875,-0.203125
1629709048375,-0.9375,0.296875,-0.203125
1629709048406,-0.9375,0.296875,-0.203125
1629709048437,-0.9375,0.296875,-0.203125
1629709048468,-0.921875,0.296875,-0.203125
1629709048500,-0.921875,0.296875,-0.203125
1629709048531,-0.9375,0.296875,-0.203125
1629709048562,-0.9375,0.296875,-0.203125
1629709048593,-0.9375,0.296875,-0.203125
1629709048625,-0.921875,0.296875,-0.203125
1629709048656,-0.921875,0.296875,-0.203125
1629709048687,-0.9375,0.296875,-0.203125
1629709048718,-0.9375,0.296875,-0.203125
1629709048750,-0.921875,0.296875,-0.203125
1629709048781,-0.921875,0.296875,-0.203125
1629709048812,-0.9375,0.296875,-0.203125
1629709048843,-0.9375,0.296875,-0.203125
1629709048875,-0.921875,0.296875,-0.203125
1629709048906,-0.9375,0.296875,-0.203125
1629709048937,-0.9375,0.296875,-0.203125
1629709048968,-0.9375,0.296875,-0.203125
1629709049000,-0.9375,0.296875,-0.203125
1629709049031,-0.921875,0.3125,-0.203125
1629709049062,-0.9375,0.296875,-0.203125
1629709049093,-0.9375,0.296875,-0.203125
1629709049125,-0.921875,0.296875,-0.203125
1629709049156,-0.921875,0.296875,-0.203125
1629709049187,-0.921875,0.296875,-0.203125
1629709049218,-0.9375,0.296875,-0.203125
1629709049250,-0.921875,0.296875,-0.203125
1629709049281,-0.921875,0.296875,-0.203125
1629709049312,-0.9375,0.296875,-0.203125
1629709049343,-0.9375,0.296875,-0.203125
1629709049375,-0.921875,0.296875,-0.203125
1629709049406,-0.9375,0.296875,-0.203125
1629709049437,-0.9375,0.296875,-0.203125
1629709049468,-0.9375,0.296875,-0.203125
1629709049500,-0.9375,0.296875,-0.203125
1629709049531,-0.921875,0.296875,-0.203125
1629709049562,-0.9375,0.296875,-0.203125
1629709049593,-0.9375,0.296875,-0.203125
1629709049625,-0.9375,0.296875,-0.203125
1629709049656,-0.921875,0.296875,-0.203125
1629709049687,-0.9375,0.296875,-0.203125
1629709049718,-0.9375,0.296875,-0.203125
1629709049750,-0.9375,0.296875,-0.203125
1629709049781,-0.921875,0.296875,-0.203125
1629709049812,-0.9375,0.296875,-0.203125
1629709049843,-0.9375,0.296875,-0.203125
1629709049875,-0.921875,0.296875,-0.203125
1629709049906,-0.921875,0.296875,-0.203125
1629709049937,-0.9375,0.296875,-0.203125
1629709049968,-0.9375,0.296875,-0.203125
1629709050000,-0.921875,0.296875,-0.203125
1629709050031,-0.921875,0.3125,-0.1875
1629709050062,-0.921875,0.296875,-0.1875
1629709050093,-0.9375,0.296875,-0.203125
1629709050125,-0.9375,0.296875,-0.1875
1629709050156,-0.921875,0.3125,-0.1875
1629709050187,-0.9375,0.296875,-0.203125
1629709050218,-0.9375,0.296875,-0.1875
1629709050250,-0.921875,0.296875,-0.1875
1629709050281,-0.9375,0.296875,-0.203125
1629709050312,-0.921875,0.3125,-0.203125
1629709050343,-0.9375,0.296875,-0.1875
1629709050375,-0.9375,0.296875,-0.1875
1629709050406,-0.921875,0.296875,-0.1875
1629709050437,-0.9375,0.3125,-0.203125
1629709050468,-0.9375,0.296875,-0.203125
1629709050500,-0.921875,0.296875,-0.1875
1629709050531,-0.921875,0.3125,-0.1875
1629709050562,-0.9375,0.3125,-0.203125
1629709050593,-0.921875,0.296875,-0.1875
1629709050625,-0.921875,0.296875,-0.1875
1629709050656,-0.9375,0.296875,-0.203125
1629709050687,-0.921875,0.296875,-0.1875
1629709050718,-0.921875,0.296875,-0.1875
1629709050750,-0.9375,0.3125,-0.1875
1629709050781,-0.9375,0.3125,-0.1875
1629709050812,-0.9375,0.296875,-0.1875
1629709050843,-0.9375,0.3125,-0.1875
1629709050875,-0.921875,0.3125,-0.1875
1629709050906,-0.9375,0.3125,-0.1875
1629709050937,-0.9375,0.3125,-0.1875
1629709050968,-0.9375,0.3125,-0.1875
1629709051000,-0.9375,0.3125,-0.1875
1629709051031,-0.9375,0.3125,-0.1875
1629709051062,-0.921875,0.3125,-0.1875
1629709051093,-0.921875,0.3125,-0.1875
1629709051125,-0.9375,0.3125,-0.1875
1629709051156,-0.9375,0.3125,-0.1875
1629709051187,-0.9375,0.3125,-0.1875
1629709051218,-0.921875,0.3125,-0.1875
1629709051250,-0.9375,0.3125,-0.1875
1629709051281,-0.9375,0.3125,-0.1875
1629709051312,-0.921875,0.3125,-0.1875
1629709051343,-0.921875,0.3125,-0.1875
1629709051375,-0.9375,0.3125,-0.1875
1629709051406,-0.921875,0.3125,-0.1875
1629709051437,-0.9375,0.3125,-0.1875
1629709051468,-0.9375,0.3125,-0.1875
1629709051500,-0.9375,0.3125,-0.1875
1629709051531,-0.921875,0.3125,-0.1875
1629709051562,-0.9375,0.3125,-0.1875
1629709051593,-0.9375,0.3125,-0.1875
1629709051625,-0.9375,0.3125,-0.1875
1629709051656,-0.9375,0.3125,-0.1875
1629709051687,-0.9375,0.3125,-0.1875
1629709051718,-0.9375,0.3125,-0.1875
1629709051750,-0.921875,0.3125,-0.1875
1629709051781,-0.9375,0.3125,-0.1875
1629709051812,-0.9375,0.3125,-0.1875
1629709051843,-0.921875,0.296875,-0.1875
1629709051875,-0.921875,0.3125,-0.1875
1629709051906,-0.9375,0.3125,-0.1875
1629709051937,-0.9375,0.3125,-0.1875
1629709051968,-0.9375,0.3125,-0.1875
1629709052000,-0.9375,0.3125,-0.1875
1629709052031,-0.921875,0.296875,-0.171875
1629709052062,-0.921875,0.3125,-0.1875
1629709052093,-0.9375,0.3125,-0.1875
1629709052125,-0.921875,0.3125,-0.1875
1629709052156,-0.921875,0.3125,-0.1875
1629709052187,-0.9375,0.296875,-0.1875
1629709052218,-0.9375,0.3125,-0.1875
1629709052250,-0.9375,0.3125,-0.1875
1629709052281,-0.9375,0.3125,-0.1875
1629709052312,-0.9375,0.3125,-0.1875
1629709052343,-0.921875,0.3125,-0.1875
1629709052375,-0.921875,0.3125,-0.1875
1629709052406,-0.9375,0.3125,-0.1875
1629709052437,-0.9375,0.296875,-0.1875
1629709052468,-0.9375,0.3125,-0.1875
1629709052500,-0.9375,0.3125,-0.1875
1629709052531,-0.9375,0.3125,-0.1875
1629709052562,-0.9375,0.296875,-0.1875
1629709052593,-0.9375,0.3125,-0.1875
1629709052625,-0.9375,0.3125,-0.1875
1629709052656,-0.9375,0.3125,-0.1875
1629709052687,-0.921875,0.296875,-0.1875
1629709052718,-0.921875,0.296875,-0.1875
1629709052750,-0.9375,0.3125,-0.1875
1629709052781,-0.9375,0.3125,-0.1875
1629709052812,-0.9375,0.3125,-0.1875
1629709052843,-0.921875,0.296875,-0.1875
1629709052875,-0.921875,0.296875,-0.1875
1629709052906,-0.9375,0.3125,-0.203125
1629709052937,-0.9375,0.3125,-0.203125
1629709052968,-0.921875,0.3125,-0.1875
1629709053000,-0.921875,0.3125,-0.1875
1629709053031,-0.921875,0.3125,-0.1875
1629709053062,-0.9375,0.3125,-0.1875
1629709053093,-0.9375,0.3125,-0.203125
1629709053125,-0.9375,0.3125,-0.1875
1629709053156,-0.921875,0.3125,-0.1875
1629709053187,-0.9375,0.3125,-0.203125
1629709053218,-0.9375,0.3125,-0.1875
1629709053250,-0.921875,0.3125,-0.1875
1629709053281,-0.9375,0.296875,-0.1875
1629709053312,-0.921875,0.296875,-0.1875
1629709053343,-0.9375,0.296875,-0.1875
1629709053375,-0.9375,0.3125,-0.1875
1629709053406,-0.9375,0.296875,-0.1875
1629709053437,-0.9375,0.3125,-0.1875
1629709053468,-0.921875,0.296875,-0.203125
1629709053500,-0.9375,0.3125,-0.203125
1629709053531,-0.9375,0.296875,-0.1875
1629709053562,-0.921875,0.296875,-0.203125
1629709053593,-0.921875,0.296875,-0.203125
1629709053625,-0.9375,0.3125,-0.203125
1629709053656,-0.921875,0.296875,-0.203125
1629709053687,-0.9375,0.296875,-0.1875
1629709053718,-0.9375,0.296875,-0.1875
1629709053750,-0.9375,0.296875,-0.203125
1629709053781,-0.9375,0.296875,-0.203125
1629709053812,-0.9375,0.296875,-0.1875
1629709053843,-0.921875,0.296875,-0.1875
1629709053875,-0.9375,0.3125,-0.203125
1629709053906,-0.9375,0.3125,-0.203125
1629709053937,-0.9375,0.3125,-0.1875
1629709053968,-0.9375,0.3125,-0.203125
1629709054000,-0.9375,0.296875,-0.203125
1629709054031,-0.9375,0.3125,-0.1875
1629709054062,-0.9375,0.3125,-0.203125
1629709054093,-0.921875,0.296875,-0.1875
1629709054125,-0.9375,0.296875,-0.1875
1629709054156,-0.921875,0.296875,-0.1875
1629709054187,-0.9375,0.296875,-0.1875
1629709054218,-0.9375,0.3125,-0.203125
1629709054250,-0.9375,0.296875,-0.203125
1629709054281,-0.9375,0.296875,-0.1875
1629709054312,-0.9375,0.296875,-0.1875
1629709054343,-0.921875,0.296875,-0.203125
1629709054375,-0.9375,0.296875,-0.1875
1629709054406,-0.921875,0.3125,-0.1875
1629709054437,-0.9375,0.296875,-0.203125
1629709054468,-0.9375,0.296875,-0.203125
1629709054500,-0.921875,0.296875,-0.1875
1629709054531,-0.921875,0.296875,-0.203125
1629709054562,-0.9375,0.296875,-0.203125
1629709054593,-0.9375,0.296875,-0.1875
1629709054625,-0.9375,0.296875,-0.1875
1629709054656,-0.9375,0.296875,-0.1875
1629709054687,-0.921875,0.296875,-0.203125
1629709054718,-0.9375,0.296875,-0.203125
1629709054750,-0.9375,0.296875,-0.203125
1629709054781,-0.9375,0.296875,-0.203125
1629709054812,-0.921875,0.296875,-0.1875
1629709054843,-0.9375,0.296875,-0.203125
1629709054875,-0.9375,0.296875,-0.203125
1629709054906,-0.9375,0.296875,-0.203125
1629709054937,-0.9375,0.296875,-0.203125
1629709054968,-0.9375,0.296875,-0.203125
1629709055000,-0.9375,0.296875,-0.203125
1629709055031,-0.9375,0.296875,-0.203125
1629709055062,-0.9375,0.296875,-0.1875
1629709055093,-0.9375,0.3125,-0.203125
1629709055125,-0.9375,0.3125,-0.203125
1629709055156,-0.921875,0.296875,-0.1875
1629709055187,-0.9375,0.296875,-0.1875
1629709055218,-0.9375,0.296875,-0.203125
1629709055250,-0.921875,0.296875,-0.203125
1629709055281,-0.921875,0.3125,-0.203125
1629709055312,-0.9375,0.296875,-0.1875
1629709055343,-0.9375,0.296875,-0.203125
1629709055375,-0.921875,0.296875,-0.203125
1629709055406,-0.9375,0.296875,-0.203125
1629709055437,-0.9375,0.296875,-0.203125
1629709055468,-0.921875,0.296875,-0.203125
1629709055500,-0.921875,0.296875,-0.203125
1629709055531,-0.9375,0.296875,-0.203125
1629709055562,-0.9375,0.296875,-0.1875
1629709055593,-0.921875,0.3125,-0.203125
1629709055625,-0.921875,0.296875,-0.1875
1629709055656,-0.921875,0.296875,-0.1875
1629709055687,-0.9375,0.296875,-0.203125
1629709055718,-0.9375,0.296875,-0.203125
1629709055750,-0.9375,0.296875,-0.1875
1629709055781,-0.921875,0.296875,-0.203125
1629709055812,-0.9375,0.3125,-0.203125
1629709055843,-0.9375,0.296875,-0.203125
1629709055875,-0.921875,0.296875,-0.1875
1629709055906,-0.921875,0.296875,-0.1875
1629709055937,-0.921875,0.296875,-0.1875
1629709055968,-0.9375,0.296875,-0.203125
1629709056000,-0.9375,0.296875,-0.1875
1629709056031,-0.921875,0.296875,-0.1875
1629709056062,-0.9375,0.296875,-0.203125
1629709056093,-0.9375,0.296875,-0.203125
1629709056125,-0.9375,0.296875,-0.203125
1629709056156,-0.9375,0.296875,-0.203125
1629709056187,-0.921875,0.296875,-0.203125
1629709056218,-0.9375,0.296875,-0.203125
1629709056250,-0.9375,0.3125,-0.203125
1629709056281,-0.9375,0.296875,-0.1875
1629709056312,-0.9375,0.296875,-0.203125
1629709056343,-0.9375,0.3125,-0.203125
1629709056375,-0.9375,0.296875,-0.203125
1629709056406,-0.9375,0.296875,-0.1875
1629709056437,-0.921875,0.296875,-0.203125
1629709056468,-0.921875,0.296875,-0.1875
1629709056500,-0.9375,0.296875,-0.1875
1629709056531,-0.9375,0.296875,-0.203125
1629709056562,-0.9375,0.3125,-0.203125
1629709056593,-0.921875,0.296875,-0.1875
1629709056625,-0.9375,0.296875,-0.203125
1629709056656,-0.9375,0.296875,-0.203125
1629709056687,-0.9375,0.3125,-0.203125
1629709056718,-0.921875,0.296875,-0.1875
1629709056750,-0.921875,0.296875,-0.203125
1629709056781,-0.9375,0.296875,-0.203125
1629709056812,-0.921875,0.296875,-0.203125
1629709056843,-0.921875,0.296875,-0.1875
1629709056875,-0.9375,0.296875,-0.203125
1629709056906,-0.9375,0.296875,-0.203125
1629709056937,-0.9375,0.296875,-0.203125
1629709056968,-0.921875,0.3125,-0.203125
1629709057000,-0.921875,0.296875,-0.203125
1629709057031,-0.921875,0.296875,-0.203125
1629709057062,-0.921875,0.3125,-0.203125
1629709057093,-0.9375,0.296875,-0.203125
1629709057125,-0.9375,0.296875,-0.203125
1629709057156,-0.9375,0.3125,-0.203125
1629709057187,-0.9375,0.296875,-0.203125
1629709057218,-0.9375,0.296875,-0.203125
1629709057250,-0.921875,0.296875,-0.203125
1629709057281,-0.921875,0.296875,-0.203125
1629709057312,-0.9375,0.296875,-0.203125
1629709057343,-0.921875,0.296875,-0.203125
1629709057375,-0.921875,0.296875,-0.203125
1629709057406,-0.9375,0.296875,-0.203125
1629709057437,-0.9375,0.296875,-0.203125
1629709057468,-0.9375,0.296875,-0.203125
1629709057500,-0.921875,0.296875,-0.203125
1629709057531,-0.921875,0.296875,-0.203125
1629709057562,-0.9375,0.296875,-0.203125
1629709057593,-0.9375,0.296875,-0.203125
1629709057625,-0.9375,0.296875,-0.203125
1629709057656,-0.9375,0.3125,-0.203125
1629709057687,-0.9375,0.296875,-0.203125
1629709057718,-0.921875,0.296875,-0.203125
1629709057750,-0.921875,0.296875,-0.203125
1629709057781,-0.9375,0.296875,-0.203125
1629709057812,-0.9375,0.296875,-0.203125
1629709057843,-0.9375,0.296875,-0.203125
1629709057875,-0.9375,0.296875,-0.203125
1629709057906,-0.9375,0.3125,-0.203125
1629709057937,-0.9375,0.3125,-0.203125
1629709057968,-0.921875,0.3125,-0.203125
1629709058000,-0.921875,0.3125,-0.203125
1629709058031,-0.9375,0.296875,-0.203125
1629709058062,-0.921875,0.3125,-0.203125
1629709058093,-0.9375,0.296875,-0.203125
1629709058125,-0.9375,0.296875,-0.203125
1629709058156,-0.921875,0.296875,-0.203125
1629709058187,-0.921875,0.296875,-0.203125
1629709058218,-0.921875,0.296875,-0.203125
1629709058250,-0.921875,0.296875,-0.203125
1629709058281,-0.9375,0.296875,-0.203125
1629709058312,-0.921875,0.296875,-0.203125
1629709058343,-0.921875,0.296875,-0.203125
1629709058375,-0.9375,0.3125,-0.203125
1629709058406,-0.9375,0.3125,-0.203125
1629709058437,-0.921875,0.3125,-0.203125
1629709058468,-0.921875,0.296875,-0.203125
1629709058500,-0.921875,0.296875,-0.203125
1629709058531,-0.9375,0.3125,-0.203125
1629709058562,-0.9375,0.296875,-0.203125
1629709058593,-0.921875,0.296875,-0.203125
1629709058625,-0.921875,0.296875,-0.203125
1629709058656,-0.9375,0.296875,-0.203125
1629709058687,-0.9375,0.296875,-0.203125
1629709058718,-0.9375,0.296875,-0.203125
1629709058750,-0.921875,0.3125,-0.203125
1629709058781,-0.9375,0.296875,-0.203125
1629709058812,-0.921875,0.296875,-0.203125
1629709058843,-0.921875,0.3125,-0.203125
1629709058875,-0.9375,0.3125,-0.203125
1629709058906,-0.921875,0.296875,-0.203125
1629709058937,-0.921875,0.296875,-0.203125
1629709058968,-0.9375,0.296875,-0.203125
1629709059000,-0.9375,0.296875,-0.203125
1629709059031,-0.921875,0.296875,-0.203125
1629709059062,-0.9375,0.296875,-0.203125
1629709059093,-0.921875,0.296875,-0.1875
1629709059125,-0.9375,0.296875,-0.203125
1629709059156,-0.921875,0.296875,-0.203125
1629709059187,-0.921875,0.296875,-0.1875
1629709059218,-0.921875,0.296875,-0.203125
1629709059250,-0.9375,0.296875,-0.203125
1629709059281,-0.9375,0.3125,-0.203125
1629709059312,-0.921875,0.296875,-0.203125
1629709059343,-0.9375,0.296875,-0.203125
1629709059375,-0.9375,0.296875,-0.203125
1629709059406,-0.9375,0.296875,-0.203125
1629709059437,-0.921875,0.296875,-0.203125
1629709059468,-0.921875,0.296875,-0.1875
1629709059500,-0.9375,0.3125,-0.1875
1629709059531,-0.9375,0.296875,-0.203125
1629709059562,-0.9375,0.296875,-0.1875
1629709059593,-0.9375,0.296875,-0.203125
1629709059625,-0.9375,0.296875,-0.1875
1629709059656,-0.921875,0.296875,-0.203125
1629709059687,-0.921875,0.3125,-0.203125
1629709059718,-0.9375,0.3125,-0.203125
1629709059750,-0.9375,0.3125,-0.203125
1629709059781,-0.9375,0.3125,-0.203125
1629709059812,-0.9375,0.296875,-0.203125
1629709059843,-0.9375,0.296875,-0.1875
1629709059875,-0.9375,0.3125,-0.1875
1629709059906,-0.9375,0.296875,-0.1875
1629709059937,-0.921875,0.296875,-0.1875
1629709059968,-0.921875,0.296875,-0.1875
1629709060000,-0.9375,0.3125,-0.1875
1629709060031,-0.9375,0.3125,-0.1875
1629709060062,-0.9375,0.296875,-0.1875
1629709060093,-0.9375,0.296875,-0.1875
1629709060125,-0.921875,0.3125,-0.1875
1629709060156,-0.921875,0.3125,-0.1875
1629709060187,-0.9375,0.3125,-0.1875
1629709060218,-0.9375,0.3125,-0.1875
1629709060250,-0.9375,0.3125,-0.1875
1629709060281,-0.9375,0.3125,-0.1875
1629709060312,-0.9375,0.3125,-0.1875
1629709060343,-0.9375,0.3125,-0.1875
1629709060375,-0.9375,0.296875,-0.1875
1629709060406,-0.921875,0.296875,-0.1875
1629709060437,-0.9375,0.3125,-0.1875
1629709060468,-0.9375,0.3125,-0.1875
1629709060500,-0.9375,0.3125,-0.1875
1629709060531,-0.9375,0.296875,-0.1875
1629709060562,-0.921875,0.296875,-0.1875
1629709060593,-0.9375,0.3125,-0.1875
1629709060625,-0.9375,0.3125,-0.1875
1629709060656,-0.921875,0.3125,-0.1875
1629709060687,-0.921875,0.3125,-0.1875
1629709060718,-0.9375,0.3125,-0.1875
1629709060750,-0.9375,0.3125,-0.1875
1629709060781,-0.9375,0.296875,-0.1875
1629709060812,-0.9375,0.296875,-0.1875
1629709060843,-0.921875,0.296875,-0.1875
1629709060875,-0.921875,0.296875,-0.203125
1629709060906,-0.9375,0.296875,-0.1875
1629709060937,-0.921875,0.296875,-0.1875
1629709060968,-0.9375,0.296875,-0.1875
1629709061000,-0.9375,0.3125,-0.1875
1629709061031,-0.921875,0.3125,-0.1875
1629709061062,-0.9375,0.3125,-0.203125
1629709061093,-0.9375,0.3125,-0.1875
1629709061125,-0.921875,0.3125,-0.1875
1629709061156,-0.921875,0.3125,-0.1875
1629709061187,-0.9375,0.3125,-0.203125
1629709061218,-0.9375,0.296875,-0.1875
1629709061250,-0.9375,0.3125,-0.1875
1629709061281,-0.921875,0.296875,-0.1875
1629709061312,-0.9375,0.296875,-0.1875
1629709061343,-0.9375,0.296875,-0.203125
1629709061375,-0.9375,0.296875,-0.203125
1629709061406,-0.921875,0.296875,-0.203125
1629709061437,-0.9375,0.296875,-0.203125
1629709061468,-0.9375,0.296875,-0.1875
1629709061500,-0.9375,0.296875,-0.1875
1629709061531,-0.921875,0.296875,-0.203125
1629709061562,-0.9375,0.296875,-0.203125
1629709061593,-0.921875,0.3125,-0.203125
1629709061625,-0.9375,0.3125,-0.203125
1629709061656,-0.9375,0.3125,-0.203125
1629709061687,-0.9375,0.296875,-0.203125
1629709061718,-0.921875,0.296875,-0.1875
1629709061750,-0.9375,0.296875,-0.1875
1629709061781,-0.921875,0.296875,-0.203125
1629709061812,-0.921875,0.296875,-0.203125
1629709061843,-0.9375,0.3125,-0.203125
1629709061875,-0.921875,0.296875,-0.203125
1629709061906,-0.921875,0.3125,-0.1875
1629709061937,-0.9375,0.296875,-0.203125
1629709061968,-0.9375,0.296875,-0.203125
1629709062000,-0.9375,0.3125,-0.203125
1629709062031,-0.9375,0.296875,-0.1875
1629709062062,-0.9375,0.296875,-0.203125
1629709062093,-0.9375,0.296875,-0.203125
1629709062125,-0.9375,0.296875,-0.203125
1629709062156,-0.921875,0.296875,-0.1875
1629709062187,-0.9375,0.296875,-0.203125
1629709062218,-0.9375,0.296875,-0.203125
1629709062250,-0.9375,0.296875,-0.203125
1629709062281,-0.9375,0.296875,-0.203125
1629709062312,-0.9375,0.296875,-0.203125
1629709062343,-0.9375,0.296875,-0.203125
1629709062375,-0.9375,0.296875,-0.203125
1629709062406,-0.921875,0.296875,-0.203125
1629709062437,-0.921875,0.296875,-0.203125
1629709062468,-0.9375,0.296875,-0.203125
1629709062500,-0.9375,0.296875,-0.203125
1629709062531,-0.9375,0.296875,-0.203125
1629709062562,-0.921875,0.296875,-0.203125
1629709062593,-0.921875,0.296875,-0.203125
1629709062625,-0.9375,0.296875,-0.203125
1629709062656,-0.921875,0.296875,-0.1875
1629709062687,-0.921875,0.296875,-0.203125
1629709062718,-0.921875,0.3125,-0.203125
1629709062750,-0.921875,0.296875,-0.203125
1629709062781,-0.921875,0.3125,-0.203125
1629709062812,-0.921875,0.296875,-0.203125
1629709062843,-0.921875,0.296875,-0.203125
1629709062875,-0.9375,0.296875,-0.203125
1629709062906,-0.921875,0.296875,-0.203125
1629709062937,-0.9375,0.296875,-0.203125
1629709062968,-0.9375,0.296875,-0.203125
1629709063000,-0.9375,0.296875,-0.203125
1629709063031,-0.9375,0.296875,-0.203125
1629709063062,-0.9375,0.296875,-0.203125
1629709063093,-0.921875,0.296875,-0.203125
1629709063125,-0.9375,0.296875,-0.203125
1629709063156,-0.9375,0.296875,-0.203125
1629709063187,-0.9375,0.296875,-0.203125
1629709063218,-0.921875,0.296875,-0.203125
1629709063250,-0.921875,0.296875,-0.203125
1629709063281,-0.921875,0.296875,-0.203125
1629709063312,-0.921875,0.296875,-0.203125
1629709063343,-0.9375,0.296875,-0.21875
1629709063375,-0.921875,0.296875,-0.203125
1629709063406,-0.9375,0.296875,-0.203125
1629709063437,-0.921875,0.296875,-0.203125
1629709063468,-0.921875,0.296875,-0.203125
1629709063500,-0.9375,0.296875,-0.21875
1629709063531,-0.9375,0.296875,-0.203125
1629709063562,-0.9375,0.296875,-0.203125
1629709063593,-0.921875,0.3125,-0.203125
1629709063625,-0.90625,0.296875,-0.1875
1629709063656,-0.921875,0.296875,-0.203125
1629709063687,-0.90625,0.296875,-0.1875
1629709063718,-0.921875,0.296875,-0.171875
1629709063750,-0.9375,0.296875,-0.21875
1629709063781,-0.921875,0.3125,-0.1875
1629709063812,-0.9375,0.3125,-0.1875
1629709063843,-0.9375,0.296875,-0.21875
1629709063875,-0.9375,0.296875,-0.21875
1629709063906,-0.9375,0.296875,-0.203125
1629709063937,-0.921875,0.296875,-0.21875
1629709063968,-0.921875,0.296875,-0.203125
1629709064000,-0.9375,0.296875,-0.203125
1629709064031,-0.9375,0.296875,-0.203125
1629709064062,-0.921875,0.296875,-0.203125
1629709064093,-0.9375,0.296875,-0.203125
1629709064125,-0.921875,0.28125,-0.203125
1629709064156,-0.921875,0.296875,-0.203125
1629709064187,-0.9375,0.28125,-0.203125
1629709064218,-0.9375,0.296875,-0.21875
1629709064250,-0.921875,0.296875,-0.203125
1629709064281,-0.9375,0.296875,-0.21875
1629709064312,-0.921875,0.28125,-0.1875
1629709064343,-0.9375,0.296875,-0.234375
1629709064375,-0.9375,0.28125,-0.234375
1629709064406,-0.9375,0.28125,-0.21875
1629709064437,-0.9375,0.28125,-0.203125
1629709064468,-0.921875,0.296875,-0.1875
1629709064500,-0.9375,0.3125,-0.1875
1629709064531,-0.9375,0.296875,-0.203125
1629709064562,-0.9375,0.296875,-0.1875
1629709064593,-0.9375,0.296875,-0.1875
1629709064625,-0.921875,0.296875,-0.1875
1629709064656,-0.9375,0.296875,-0.1875
1629709064687,-0.9375,0.296875,-0.1875
1629709064718,-0.9375,0.296875,-0.1875
1629709064750,-0.9375,0.296875,-0.1875
1629709064781,-0.9375,0.296875,-0.1875
1629709064812,-0.9375,0.296875,-0.1875
1629709064843,-0.9375,0.296875,-0.1875
1629709064875,-0.9375,0.296875,-0.1875
1629709064906,-0.9375,0.296875,-0.1875
1629709064937,-0.9375,0.296875,-0.1875
1629709064968,-0.9375,0.296875,-0.1875
1629709065000,-0.9375,0.296875,-0.1875
1629709065031,-0.9375,0.296875,-0.1875
1629709065062,-0.9375,0.296875,-0.1875
1629709065093,-0.921875,0.296875,-0.1875
1629709065125,-0.9375,0.296875,-0.1875
1629709065156,-0.9375,0.296875,-0.203125
1629709065187,-0.921875,0.296875,-0.1875
1629709065218,-0.9375,0.296875,-0.203125
1629709065250,-0.9375,0.296875,-0.1875
1629709065281,-0.9375,0.296875,-0.1875
1629709065312,-0.9375,0.296875,-0.203125
1629709065343,-0.921875,0.296875,-0.1875
1629709065375,-0.9375,0.296875,-0.1875
1629709065406,-0.9375,0.296875,-0.1875
1629709065437,-0.9375,0.296875,-0.1875
1629709065468,-0.9375,0.296875,-0.1875
1629709065500,-0.9375,0.296875,-0.1875
1629709065531,-0.9375,0.296875,-0.1875
1629709065562,-0.9375,0.296875,-0.1875
1629709065593,-0.9375,0.296875,-0.1875
1629709065625,-0.9375,0.296875,-0.1875
1629709065656,-0.9375,0.296875,-0.1875
1629709065687,-0.9375,0.296875,-0.1875
1629709065718,-0.9375,0.296875,-0.203125
1629709065750,-0.9375,0.296875,-0.203125
1629709065781,-0.9375,0.296875,-0.203125
1629709065812,-0.921875,0.296875,-0.1875
1629709065843,-0.9375,0.296875,-0.1875
1629709065875,-0.9375,0.296875,-0.1875
1629709065906,-0.9375,0.296875,-0.203125
1629709065937,-0.921875,0.296875,-0.1875
1629709065968,-0.921875,0.3125,-0.203125
1629709066000,-0.9375,0.296875,-0.203125
1629709066031,-0.9375,0.296875,-0.1875
1629709066062,-0.9375,0.296875,-0.1875
1629709066093,-0.9375,0.296875,-0.203125
1629709066125,-0.9375,0.296875,-0.1875
1629709066156,-0.9375,0.296875,-0.203125
1629709066187,-0.9375,0.296875,-0.203125
1629709066218,-0.921875,0.296875,-0.1875
1629709066250,-0.9375,0.296875,-0.203125
1629709066281,-0.9375,0.296875,-0.203125
1629709066312,-0.9375,0.296875,-0.1875
1629709066343,-0.921875,0.296875,-0.171875
1629709066375,-0.9375,0.296875,-0.1875
1629709066406,-0.9375,0.296875,-0.203125
1629709066437,-0.9375,0.296875,-0.203125
1629709066468,-0.9375,0.296875,-0.1875
1629709066500,-0.9375,0.296875,-0.1875
1629709066531,-0.9375,0.296875,-0.1875
1629709066562,-0.9375,0.296875,-0.1875
1629709066593,-0.9375,0.296875,-0.1875
1629709066625,-0.9375,0.296875,-0.1875
1629709066656,-0.9375,0.296875,-0.1875
1629709066687,-0.9375,0.296875,-0.1875
1629709066718,-0.9375,0.296875,-0.1875
1629709066750,-0.921875,0.296875,-0.1875
1629709066781,-0.9375,0.296875,-0.1875
1629709066812,-0.9375,0.296875,-0.1875
1629709066843,-0.9375,0.296875,-0.1875
1629709066875,-0.9375,0.3125,-0.1875
1629709066906,-0.9375,0.296875,-0.1875
1629709066937,-0.921875,0.296875,-0.1875
1629709066968,-0.9375,0.296875,-0.1875
1629709067000,-0.9375,0.3125,-0.1875
1629709067031,-0.9375,0.296875,-0.1875
1629709067062,-0.9375,0.296875,-0.1875
1629709067093,-0.921875,0.296875,-0.203125
1629709067125,-0.9375,0.296875,-0.203125
1629709067156,-0.9375,0.296875,-0.1875
1629709067187,-0.921875,0.296875,-0.1875
1629709067218,-0.9375,0.296875,-0.1875
1629709067250,-0.9375,0.296875,-0.1875
1629709067281,-0.9375,0.296875,-0.1875
1629709067312,-0.9375,0.296875,-0.1875
1629709067343,-0.921875,0.296875,-0.1875
1629709067375,-0.9375,0.296875,-0.1875
1629709067406,-0.9375,0.296875,-0.1875
1629709067437,-0.9375,0.296875,-0.1875
1629709067468,-0.9375,0.296875,-0.1875
1629709067500,-0.9375,0.296875,-0.1875
1629709067531,-0.9375,0.296875,-0.1875
1629709067562,-0.9375,0.296875,-0.1875
1629709067593,-0.9375,0.296875,-0.1875
1629709067625,-0.9375,0.296875,-0.1875
1629709067656,-0.9375,0.296875,-0.1875
1629709067687,-0.9375,0.296875,-0.1875
1629709067718,-0.9375,0.3125,-0.1875
1629709067750,-0.921875,0.296875,-0.1875
1629709067781,-0.921875,0.296875,-0.1875
1629709067812,-0.9375,0.296875,-0.1875
1629709067843,-0.921875,0.296875,-0.1875
1629709067875,-0.921875,0.296875,-0.1875
1629709067906,-0.9375,0.296875,-0.1875
1629709067937,-0.921875,0.296875,-0.1875
1629709067968,-0.953125,0.296875,-0.21875
1629709068000,-0.921875,0.3125,-0.1875
1629709068031,-0.953125,0.296875,-0.203125
1629709068062,-0.953125,0.296875,-0.203125
1629709068093,-0.9375,0.296875,-0.1875
1629709068125,-0.9375,0.296875,-0.1875
1629709068156,-0.9375,0.296875,-0.1875
1629709068187,-0.9375,0.296875,-0.1875
1629709068218,-0.9375,0.296875,-0.1875
1629709068250,-0.921875,0.296875,-0.1875
1629709068281,-0.9375,0.296875,-0.1875
1629709068312,-0.9375,0.296875,-0.1875
1629709068343,-0.9375,0.296875,-0.1875
1629709068375,-0.9375,0.296875,-0.1875
1629709068406,-0.9375,0.296875,-0.203125
1629709068437,-0.9375,0.296875,-0.1875
1629709068468,-0.9375,0.296875,-0.1875
1629709068500,-0.921875,0.296875,-0.1875
1629709068531,-0.9375,0.3125,-0.1875
1629709068562,-0.921875,0.296875,-0.1875
1629709068593,-0.921875,0.296875,-0.1875
1629709068625,-0.9375,0.296875,-0.1875
1629709068656,-0.9375,0.296875,-0.203125
1629709068687,-0.9375,0.296875,-0.1875
1629709068718,-0.9375,0.296875,-0.1875
1629709068750,-0.921875,0.296875,-0.1875
1629709068781,-0.9375,0.296875,-0.1875
1629709068812,-0.9375,0.296875,-0.1875
1629709068843,-0.921875,0.296875,-0.1875
1629709068875,-0.9375,0.296875,-0.203125
1629709068906,-0.953125,0.296875,-0.21875
1629709068937,-0.9375,0.3125,-0.203125
1629709068968,-0.9375,0.296875,-0.1875
1629709069000,-0.9375,0.296875,-0.203125
1629709069031,-0.9375,0.296875,-0.1875
1629709069062,-0.9375,0.296875,-0.1875
1629709069093,-0.9375,0.296875,-0.203125
1629709069125,-0.9375,0.296875,-0.1875
1629709069156,-0.9375,0.296875,-0.1875
1629709069187,-0.9375,0.296875,-0.1875
1629709069218,-0.9375,0.296875,-0.1875
1629709069250,-0.9375,0.296875,-0.1875
1629709069281,-0.9375,0.296875,-0.1875
1629709069312,-0.921875,0.296875,-0.1875
1629709069343,-0.9375,0.3125,-0.1875
1629709069375,-0.9375,0.296875,-0.1875
1629709069406,-0.921875,0.296875,-0.1875
1629709069437,-0.921875,0.296875,-0.1875
1629709069468,-0.9375,0.296875,-0.1875
1629709069500,-0.9375,0.296875,-0.1875
1629709069531,-0.9375,0.296875,-0.1875
1629709069562,-0.9375,0.296875,-0.1875
1629709069593,-0.9375,0.296875,-0.1875
1629709069625,-0.9375,0.296875,-0.1875
1629709069656,-0.9375,0.296875,-0.1875
1629709069687,-0.9375,0.296875,-0.1875
1629709069718,-0.921875,0.296875,-0.1875
1629709069750,-0.9375,0.296875,-0.1875
1629709069781,-0.9375,0.296875,-0.1875
1629709069812,-0.9375,0.296875,-0.1875
1629709069843,-0.9375,0.296875,-0.1875
1629709069875,-0.9375,0.296875,-0.1875
1629709069906,-0.9375,0.296875,-0.1875
1629709069937,-0.9375,0.296875,-0.1875
1629709069968,-0.9375,0.296875,-0.1875
1629709070000,-0.9375,0.296875,-0.1875
1629709070031,-0.9375,0.296875,-0.1875
1629709070062,-0.9375,0.296875,-0.1875
1629709070093,-0.9375,0.296875,-0.203125
1629709070125,-0.9375,0.296875,-0.1875
1629709070156,-0.921875,0.296875,-0.1875
1629709070187,-0.9375,0.296875,-0.203125
1629709070218,-0.953125,0.296875,-0.1875
1629709070250,-0.921875,0.296875,-0.1875
1629709070281,-0.921875,0.296875,-0.1875
1629709070312,-0.9375,0.28125,-0.1875
1629709070343,-0.9375,0.296875,-0.1875
1629709070375,-0.9375,0.296875,-0.1875
1629709070406,-0.921875,0.296875,-0.171875
1629709070437,-0.921875,0.296875,-0.171875
1629709070468,-0.9375,0.296875,-0.1875
1629709070500,-0.953125,0.296875,-0.1875
1629709070531,-0.9375,0.296875,-0.1875
1629709070562,-0.9375,0.296875,-0.171875
1629709070593,-0.9375,0.296875,-0.171875
1629709070625,-0.9375,0.296875,-0.171875
1629709070656,-0.9375,0.296875,-0.171875
1629709070687,-0.9375,0.296875,-0.171875
1629709070718,-0.9375,0.296875,-0.171875
1629709070750,-0.953125,0.296875,-0.171875
1629709070781,-0.953125,0.296875,-0.171875
1629709070812,-0.953125,0.28125,-0.171875
1629709070843,-0.953125,0.296875,-0.15625
1629709070875,-0.9375,0.3125,-0.15625
1629709070906,-0.921875,0.296875,-0.171875
1629709070937,-0.9375,0.3125,-0.140625
1629709070968,-0.953125,0.3125,-0.140625
1629709071000,-0.9375,0.3125,-0.140625
1629709071031,-0.921875,0.3125,-0.140625
1629709071062,-0.921875,0.328125,-0.140625
1629709071093,-0.9375,0.328125,-0.109375
1629709071125,-0.90625,0.328125,-0.09375
1629709071156,-0.890625,0.328125,-0.109375
1629709071187,-0.90625,0.328125,-0.125
1629709071218,-0.921875,0.3125,-0.140625
1629709071250,-0.9375,0.296875,-0.125
1629709071281,-0.96875,0.296875,-0.171875
1629709071312,-0.96875,0.28125,-0.171875
1629709071343,-0.96875,0.28125,-0.1875
1629709071375,-0.96875,0.296875,-0.1875
1629709071406,-0.9375,0.296875,-0.171875
1629709071437,-0.921875,0.3125,-0.15625
1629709071468,-0.921875,0.3125,-0.15625
1629709071500,-0.9375,0.3125,-0.15625
1629709071531,-0.9375,0.3125,-0.15625
1629709071562,-0.9375,0.3125,-0.171875
1629709071593,-0.9375,0.296875,-0.15625
1629709071625,-0.9375,0.296875,-0.171875
1629709071656,-0.9375,0.296875,-0.171875
1629709071687,-0.9375,0.296875,-0.171875
1629709071718,-0.9375,0.296875,-0.171875
1629709071750,-0.9375,0.296875,-0.171875
1629709071781,-0.9375,0.296875,-0.171875
1629709071812,-0.9375,0.3125,-0.171875
1629709071843,-0.9375,0.296875,-0.171875
1629709071875,-0.9375,0.3125,-0.171875
1629709071906,-0.9375,0.3125,-0.171875
1629709071937,-0.9375,0.3125,-0.171875
1629709071968,-0.9375,0.296875,-0.171875
1629709072000,-0.9375,0.296875,-0.171875
1629709072031,-0.9375,0.296875,-0.171875
1629709072062,-0.9375,0.296875,-0.171875
1629709072093,-0.9375,0.296875,-0.171875
1629709072125,-0.9375,0.296875,-0.171875
1629709072156,-0.9375,0.296875,-0.15625
1629709072187,-0.9375,0.296875,-0.171875
1629709072218,-0.9375,0.296875,-0.171875
1629709072250,-0.9375,0.3125,-0.171875
1629709072281,-0.9375,0.3125,-0.15625
1629709072312,-0.9375,0.3125,-0.171875
1629709072343,-0.9375,0.296875,-0.15625
1629709072375,-0.9375,0.3125,-0.171875
1629709072406,-0.9375,0.296875,-0.171875
1629709072437,-0.9375,0.296875,-0.15625
1629709072468,-0.9375,0.296875,-0.171875
1629709072500,-0.9375,0.296875,-0.171875
1629709072531,-0.9375,0.296875,-0.15625
1629709072562,-0.9375,0.296875,-0.15625
1629709072593,-0.9375,0.296875,-0.15625
1629709072625,-0.9375,0.3125,-0.171875
1629709072656,-0.9375,0.296875,-0.171875
1629709072687,-0.9375,0.3125,-0.171875
1629709072718,-0.9375,0.3125,-0.171875
1629709072750,-0.9375,0.296875,-0.171875
1629709072781,-0.9375,0.296875,-0.171875
1629709072812,-0.9375,0.296875,-0.171875
1629709072843,-0.9375,0.296875,-0.171875
1629709072875,-0.9375,0.296875,-0.171875
1629709072906,-0.9375,0.296875,-0.171875
1629709072937,-0.9375,0.296875,-0.171875
1629709072968,-0.9375,0.296875,-0.171875
1629709073000,-0.9375,0.296875,-0.171875
1629709073031,-0.9375,0.3125,-0.171875
1629709073062,-0.9375,0.3125,-0.171875
1629709073093,-0.9375,0.296875,-0.171875
1629709073125,-0.9375,0.3125,-0.171875
1629709073156,-0.9375,0.296875,-0.171875
1629709073187,-0.9375,0.3125,-0.171875
1629709073218,-0.9375,0.296875,-0.171875
1629709073250,-0.9375,0.3125,-0.171875
1629709073281,-0.9375,0.296875,-0.171875
1629709073312,-0.9375,0.296875,-0.171875
1629709073343,-0.9375,0.3125,-0.171875
1629709073375,-0.9375,0.296875,-0.171875
1629709073406,-0.9375,0.296875,-0.171875
1629709073437,-0.9375,0.3125,-0.171875
1629709073468,-0.9375,0.3125,-0.171875
1629709073500,-0.9375,0.296875,-0.171875
1629709073531,-0.9375,0.296875,-0.171875
1629709073562,-0.9375,0.3125,-0.171875
1629709073593,-0.9375,0.296875,-0.171875
1629709073625,-0.9375,0.296875,-0.171875
1629709073656,-0.9375,0.3125,-0.171875
1629709073687,-0.9375,0.296875,-0.171875
1629709073718,-0.9375,0.296875,-0.171875
1629709073750,-0.9375,0.296875,-0.171875
1629709073781,-0.9375,0.296875,-0.171875
1629709073812,-0.9375,0.296875,-0.171875
1629709073843,-0.9375,0.296875,-0.171875
1629709073875,-0.9375,0.296875,-0.171875
1629709073906,-0.9375,0.296875,-0.171875
1629709073937,-0.921875,0.296875,-0.171875
1629709073968,-0.9375,0.3125,-0.171875
1629709074000,-0.9375,0.3125,-0.1875
1629709074031,-0.9375,0.296875,-0.1875
1629709074062,-0.9375,0.3125,-0.1875
1629709074093,-0.9375,0.3125,-0.171875
1629709074125,-0.9375,0.3125,-0.171875
1629709074156,-0.9375,0.296875,-0.171875
1629709074187,-0.9375,0.296875,-0.171875
1629709074218,-0.921875,0.296875,-0.171875
1629709074250,-0.9375,0.296875,-0.171875
1629709074281,-0.9375,0.296875,-0.171875
1629709074312,-0.9375,0.296875,-0.171875
1629709074343,-0.9375,0.296875,-0.171875
1629709074375,-0.9375,0.296875,-0.171875
1629709074406,-0.9375,0.3125,-0.171875
1629709074437,-0.9375,0.296875,-0.171875
1629709074468,-0.921875,0.296875,-0.171875
1629709074500,-0.921875,0.3125,-0.171875
1629709074531,-0.9375,0.296875,-0.171875
1629709074562,-0.9375,0.296875,-0.1875
1629709074593,-0.9375,0.296875,-0.171875
1629709074625,-0.921875,0.296875,-0.171875
1629709074656,-0.9375,0.296875,-0.15625
1629709074687,-0.9375,0.296875,-0.171875
1629709074718,-0.9375,0.296875,-0.171875
1629709074750,-0.9375,0.296875,-0.171875
1629709074781,-0.921875,0.296875,-0.15625
1629709074812,-0.9375,0.296875,-0.15625
1629709074843,-0.9375,0.296875,-0.171875
1629709074875,-0.921875,0.296875,-0.140625
1629709074906,-0.921875,0.3125,-0.140625
1629709074937,-0.9375,0.296875,-0.15625
1629709074968,-0.9375,0.296875,-0.15625
1629709075000,-0.9375,0.3125,-0.171875
1629709075031,-0.9375,0.296875,-0.171875
1629709075062,-0.9375,0.296875,-0.171875
1629709075093,-0.9375,0.296875,-0.171875
1629709075125,-0.9375,0.296875,-0.171875
1629709075156,-0.9375,0.3125,-0.171875
1629709075187,-0.9375,0.296875,-0.171875
1629709075218,-0.9375,0.296875,-0.171875
1629709075250,-0.9375,0.296875,-0.171875
1629709075281,-0.9375,0.3125,-0.171875
1629709075312,-0.9375,0.296875,-0.171875
1629709075343,-0.9375,0.296875,-0.171875
1629709075375,-0.9375,0.296875,-0.171875
1629709075406,-0.9375,0.296875,-0.171875
1629709075437,-0.9375,0.296875,-0.171875
1629709075468,-0.9375,0.296875,-0.171875
1629709075500,-0.9375,0.296875,-0.171875
1629709075531,-0.9375,0.296875,-0.171875
1629709075562,-0.9375,0.296875,-0.171875
1629709075593,-0.9375,0.296875,-0.171875
1629709075625,-0.9375,0.296875,-0.171875
1629709075656,-0.9375,0.296875,-0.171875
1629709075687,-0.9375,0.3125,-0.15625
1629709075718,-0.9375,0.296875,-0.15625
1629709075750,-0.921875,0.296875,-0.171875
1629709075781,-0.921875,0.296875,-0.171875
1629709075812,-0.9375,0.296875,-0.171875
1629709075843,-0.9375,0.296875,-0.171875
1629709075875,-0.9375,0.296875,-0.171875
1629709075906,-0.9375,0.296875,-0.171875
1629709075937,-0.9375,0.296875,-0.171875
1629709075968,-0.9375,0.296875,-0.171875
1629709076000,-0.9375,0.296875,-0.171875
1629709076031,-0.9375,0.296875,-0.171875
1629709076062,-0.9375,0.296875,-0.171875
1629709076093,-0.9375,0.296875,-0.171875
1629709076125,-0.9375,0.296875,-0.171875
1629709076156,-0.9375,0.296875,-0.171875
1629709076187,-0.9375,0.296875,-0.171875
1629709076218,-0.9375,0.296875,-0.171875
1629709076250,-0.9375,0.296875,-0.171875
1629709076281,-0.9375,0.296875,-0.1875
1629709076312,-0.9375,0.296875,-0.1875
1629709076343,-0.9375,0.296875,-0.1875
1629709076375,-0.9375,0.296875,-0.171875
1629709076406,-0.9375,0.296875,-0.171875
1629709076437,-0.9375,0.296875,-0.171875
1629709076468,-0.9375,0.296875,-0.171875
1629709076500,-0.9375,0.296875,-0.171875
1629709076531,-0.9375,0.296875,-0.171875
1629709076562,-0.921875,0.3125,-0.171875
1629709076593,-0.9375,0.296875,-0.171875
1629709076625,-0.953125,0.296875,-0.1875
1629709076656,-0.9375,0.296875,-0.1875
1629709076687,-0.9375,0.296875,-0.171875
1629709076718,-0.9375,0.296875,-0.171875
1629709076750,-0.9375,0.296875,-0.171875
1629709076781,-0.9375,0.296875,-0.171875
1629709076812,-0.9375,0.296875,-0.171875
1629709076843,-0.9375,0.296875,-0.171875
1629709076875,-0.9375,0.296875,-0.171875
1629709076906,-0.9375,0.296875,-0.171875
1629709076937,-0.9375,0.296875,-0.171875
1629709076968,-0.9375,0.296875,-0.171875
1629709077000,-0.9375,0.296875,-0.171875
1629709077031,-0.9375,0.296875,-0.171875
1629709077062,-0.9375,0.296875,-0.171875
1629709077093,-0.9375,0.296875,-0.171875
1629709077125,-0.921875,0.296875,-0.171875
1629709077156,-0.9375,0.296875,-0.171875
1629709077187,-0.9375,0.296875,-0.171875
1629709077218,-0.9375,0.296875,-0.171875
1629709077250,-0.9375,0.3125,-0.171875
1629709077281,-0.9375,0.296875,-0.171875
1629709077312,-0.9375,0.296875,-0.171875
1629709077343,-0.9375,0.296875,-0.171875
1629709077375,-0.9375,0.296875,-0.171875
1629709077406,-0.921875,0.296875,-0.171875
1629709077437,-0.921875,0.296875,-0.171875
1629709077468,-0.953125,0.296875,-0.1875
1629709077500,-0.9375,0.296875,-0.171875
1629709077531,-0.9375,0.296875,-0.171875
1629709077562,-0.9375,0.296875,-0.171875
1629709077593,-0.9375,0.296875,-0.171875
1629709077625,-0.9375,0.296875,-0.171875
1629709077656,-0.9375,0.296875,-0.171875
1629709077687,-0.9375,0.296875,-0.171875
1629709077718,-0.9375,0.296875,-0.171875
1629709077750,-0.9375,0.296875,-0.171875
1629709077781,-0.9375,0.296875,-0.171875
1629709077812,-0.9375,0.296875,-0.171875
1629709077843,-0.9375,0.296875,-0.171875
1629709077875,-0.9375,0.296875,-0.171875
1629709077906,-0.9375,0.296875,-0.171875
1629709077937,-0.9375,0.296875,-0.171875
1629709077968,-0.9375,0.296875,-0.171875
1629709078000,-0.9375,0.296875,-0.171875
1629709078031,-0.9375,0.296875,-0.171875
1629709078062,-0.9375,0.296875,-0.171875
1629709078093,-0.9375,0.296875,-0.171875
1629709078125,-0.9375,0.296875,-0.171875
1629709078156,-0.9375,0.296875,-0.171875
1629709078187,-0.9375,0.296875,-0.171875
1629709078218,-0.9375,0.3125,-0.171875
1629709078250,-0.9375,0.296875,-0.171875
1629709078281,-0.9375,0.3125,-0.171875
1629709078312,-0.9375,0.3125,-0.171875
1629709078343,-0.9375,0.296875,-0.171875
1629709078375,-0.9375,0.296875,-0.171875
1629709078406,-0.9375,0.296875,-0.171875
1629709078437,-0.9375,0.296875,-0.171875
1629709078468,-0.953125,0.296875,-0.171875
1629709078500,-0.9375,0.296875,-0.171875
1629709078531,-0.921875,0.296875,-0.15625
1629709078562,-0.9375,0.296875,-0.15625
1629709078593,-0.9375,0.296875,-0.15625
1629709078625,-0.9375,0.3125,-0.15625
1629709078656,-0.9375,0.296875,-0.15625
1629709078687,-0.9375,0.296875,-0.171875
1629709078718,-0.9375,0.296875,-0.15625
1629709078750,-0.9375,0.296875,-0.171875
1629709078781,-0.9375,0.296875,-0.171875
1629709078812,-0.9375,0.3125,-0.15625
1629709078843,-0.9375,0.296875,-0.171875
1629709078875,-0.9375,0.296875,-0.171875
1629709078906,-0.9375,0.296875,-0.15625
1629709078937,-0.9375,0.296875,-0.171875
1629709078968,-0.9375,0.296875,-0.171875
1629709079000,-0.9375,0.3125,-0.171875
1629709079031,-0.9375,0.3125,-0.171875
1629709079062,-0.9375,0.3125,-0.171875
1629709079093,-0.9375,0.296875,-0.171875
1629709079125,-0.9375,0.296875,-0.171875
1629709079156,-0.9375,0.296875,-0.171875
1629709079187,-0.9375,0.296875,-0.171875
1629709079218,-0.9375,0.296875,-0.171875
1629709079250,-0.9375,0.296875,-0.171875
1629709079281,-0.9375,0.296875,-0.171875
1629709079312,-0.9375,0.296875,-0.171875
1629709079343,-0.9375,0.296875,-0.171875
1629709079375,-0.9375,0.296875,-0.171875
1629709079406,-0.9375,0.296875,-0.171875
1629709079437,-0.9375,0.296875,-0.171875
1629709079468,-0.9375,0.3125,-0.171875
1629709079500,-0.9375,0.296875,-0.171875
1629709079531,-0.9375,0.296875,-0.171875
1629709079562,-0.9375,0.296875,-0.171875
1629709079593,-0.9375,0.296875,-0.171875
1629709079625,-0.9375,0.296875,-0.171875
1629709079656,-0.921875,0.296875,-0.15625
1629709079687,-0.9375,0.296875,-0.171875
1629709079718,-0.9375,0.296875,-0.171875
1629709079750,-0.9375,0.296875,-0.171875
1629709079781,-0.9375,0.296875,-0.171875
1629709079812,-0.9375,0.296875,-0.15625
1629709079843,-0.9375,0.296875,-0.171875
1629709079875,-0.9375,0.296875,-0.171875
1629709079906,-0.9375,0.296875,-0.171875
1629709079937,-0.9375,0.296875,-0.171875
1629709079968,-0.9375,0.3125,-0.171875
1629709080000,-0.9375,0.296875,-0.171875
1629709080031,-0.9375,0.296875,-0.171875
1629709080062,-0.9375,0.3125,-0.171875
1629709080093,-0.9375,0.296875,-0.171875
1629709080125,-0.9375,0.296875,-0.171875
1629709080156,-0.9375,0.296875,-0.171875
1629709080187,-0.9375,0.296875,-0.171875
1629709080218,-0.9375,0.296875,-0.171875
1629709080250,-0.9375,0.296875,-0.171875
1629709080281,-0.9375,0.296875,-0.171875
1629709080312,-0.9375,0.296875,-0.171875
1629709080343,-0.9375,0.296875,-0.171875
1629709080375,-0.9375,0.296875,-0.171875
1629709080406,-0.9375,0.296875,-0.171875
1629709080437,-0.9375,0.296875,-0.171875
1629709080468,-0.9375,0.296875,-0.171875
1629709080500,-0.9375,0.296875,-0.171875
1629709080531,-0.9375,0.296875,-0.171875
1629709080562,-0.9375,0.296875,-0.171875
1629709080593,-0.9375,0.296875,-0.171875
1629709080625,-0.9375,0.296875,-0.171875
1629709080656,-0.9375,0.296875,-0.171875
1629709080687,-0.9375,0.296875,-0.171875
1629709080718,-0.9375,0.296875,-0.171875
1629709080750,-0.9375,0.296875,-0.171875
1629709080781,-0.9375,0.296875,-0.171875
1629709080812,-0.9375,0.296875,-0.171875
1629709080843,-0.9375,0.296875,-0.171875
1629709080875,-0.9375,0.296875,-0.171875
1629709080906,-0.9375,0.296875,-0.171875
1629709080937,-0.9375,0.296875,-0.171875
1629709080968,-0.9375,0.296875,-0.171875
1629709081000,-0.9375,0.296875,-0.171875
1629709081031,-0.9375,0.296875,-0.171875
1629709081062,-0.9375,0.296875,-0.1875
1629709081093,-0.9375,0.296875,-0.171875
1629709081125,-0.9375,0.296875,-0.171875
1629709081156,-0.9375,0.296875,-0.171875
1629709081187,-0.9375,0.296875,-0.1875
1629709081218,-0.9375,0.296875,-0.171875
1629709081250,-0.9375,0.296875,-0.171875
1629709081281,-0.9375,0.296875,-0.1875
1629709081312,-0.9375,0.296875,-0.171875
1629709081343,-0.9375,0.296875,-0.171875
1629709081375,-0.9375,0.296875,-0.171875
1629709081406,-0.9375,0.296875,-0.171875
1629709081437,-0.9375,0.296875,-0.171875
1629709081468,-0.9375,0.296875,-0.171875
1629709081500,-0.9375,0.296875,-0.171875
1629709081531,-0.921875,0.296875,-0.171875
1629709081562,-0.9375,0.296875,-0.1875
1629709081593,-0.9375,0.296875,-0.171875
1629709081625,-0.9375,0.296875,-0.171875
1629709081656,-0.921875,0.296875,-0.171875
1629709081687,-0.921875,0.296875,-0.171875
1629709081718,-0.9375,0.296875,-0.171875
1629709081750,-0.9375,0.296875,-0.1875
1629709081781,-0.9375,0.296875,-0.171875
1629709081812,-0.9375,0.296875,-0.171875
1629709081843,-0.9375,0.296875,-0.171875
1629709081875,-0.9375,0.296875,-0.171875
1629709081906,-0.9375,0.296875,-0.1875
1629709081937,-0.9375,0.296875,-0.171875
1629709081968,-0.9375,0.296875,-0.171875
1629709082000,-0.9375,0.296875,-0.171875
1629709082031,-0.9375,0.296875,-0.171875
1629709082062,-0.9375,0.296875,-0.171875
1629709082093,-0.953125,0.296875,-0.171875
1629709082125,-0.9375,0.296875,-0.171875
1629709082156,-0.9375,0.296875,-0.171875
1629709082187,-0.9375,0.296875,-0.171875
1629709082218,-0.921875,0.296875,-0.171875
1629709082250,-0.921875,0.296875,-0.171875
1629709082281,-0.9375,0.296875,-0.171875
1629709082312,-0.9375,0.296875,-0.171875
1629709082343,-0.953125,0.296875,-0.1875
1629709082375,-0.9375,0.296875,-0.171875
1629709082406,-0.9375,0.296875,-0.171875
1629709082437,-0.9375,0.296875,-0.171875
1629709082468,-0.9375,0.296875,-0.171875
1629709082500,-0.9375,0.296875,-0.171875
1629709082531,-0.9375,0.296875,-0.171875
1629709082562,-0.9375,0.296875,-0.171875
1629709082593,-0.9375,0.296875,-0.171875
1629709082625,-0.9375,0.296875,-0.171875
1629709082656,-0.9375,0.296875,-0.171875
1629709082687,-0.9375,0.296875,-0.171875
1629709082718,-0.9375,0.296875,-0.171875
1629709082750,-0.9375,0.296875,-0.171875
1629709082781,-0.9375,0.296875,-0.171875
1629709082812,-0.953125,0.296875,-0.171875
1629709082843,-0.9375,0.296875,-0.171875
1629709082875,-0.9375,0.296875,-0.171875
1629709082906,-0.9375,0.296875,-0.171875
1629709082937,-0.9375,0.296875,-0.15625
1629709082968,-0.9375,0.296875,-0.171875
1629709083000,-0.9375,0.296875,-0.171875
1629709083031,-0.9375,0.296875,-0.15625
1629709083062,-0.9375,0.296875,-0.15625
1629709083093,-0.9375,0.296875,-0.171875
1629709083125,-0.9375,0.296875,-0.171875
1629709083156,-0.953125,0.296875,-0.171875
1629709083187,-0.9375,0.296875,-0.171875
1629709083218,-0.9375,0.296875,-0.15625
1629709083250,-0.9375,0.296875,-0.15625
1629709083281,-0.9375,0.296875,-0.171875
1629709083312,-0.9375,0.296875,-0.15625
1629709083343,-0.9375,0.296875,-0.15625
1629709083375,-0.9375,0.296875,-0.171875
1629709083406,-0.9375,0.296875,-0.171875
1629709083437,-0.9375,0.3125,-0.15625
1629709083468,-0.9375,0.296875,-0.15625
1629709083500,-0.9375,0.296875,-0.15625
1629709083531,-0.9375,0.296875,-0.15625
1629709083562,-0.9375,0.296875,-0.15625
1629709083593,-0.9375,0.296875,-0.171875
1629709083625,-0.9375,0.296875,-0.171875
1629709083656,-0.9375,0.296875,-0.15625
1629709083687,-0.9375,0.3125,-0.15625
1629709083718,-0.9375,0.3125,-0.171875
1629709083750,-0.9375,0.296875,-0.171875
1629709083781,-0.9375,0.296875,-0.171875
1629709083812,-0.9375,0.296875,-0.15625
1629709083843,-0.953125,0.296875,-0.171875
1629709083875,-0.9375,0.296875,-0.171875
1629709083906,-0.9375,0.296875,-0.15625
1629709083937,-0.9375,0.296875,-0.171875
1629709083968,-0.9375,0.296875,-0.171875
1629709084000,-0.9375,0.296875,-0.15625
1629709084031,-0.9375,0.296875,-0.171875
1629709084062,-0.9375,0.296875,-0.15625
1629709084093,-0.9375,0.296875,-0.171875
1629709084125,-0.9375,0.296875,-0.171875
1629709084156,-0.9375,0.296875,-0.15625
1629709084187,-0.9375,0.296875,-0.171875
1629709084218,-0.9375,0.296875,-0.171875
1629709084250,-0.9375,0.296875,-0.171875
1629709084281,-0.9375,0.296875,-0.15625
1629709084312,-0.9375,0.296875,-0.15625
1629709084343,-0.9375,0.296875,-0.171875
1629709084375,-0.9375,0.296875,-0.171875
1629709084406,-0.9375,0.296875,-0.171875
1629709084437,-0.9375,0.296875,-0.171875
1629709084468,-0.9375,0.296875,-0.171875
1629709084500,-0.9375,0.296875,-0.15625
1629709084531,-0.9375,0.296875,-0.171875
1629709084562,-0.9375,0.296875,-0.171875
1629709084593,-0.9375,0.296875,-0.171875
1629709084625,-0.9375,0.296875,-0.171875
1629709084656,-0.9375,0.296875,-0.171875
1629709084687,-0.9375,0.296875,-0.171875
1629709084718,-0.9375,0.296875,-0.15625
1629709084750,-0.9375,0.296875,-0.171875
1629709084781,-0.9375,0.296875,-0.171875
1629709084812,-0.9375,0.296875,-0.171875
1629709084843,-0.9375,0.296875,-0.15625
1629709084875,-0.9375,0.296875,-0.171875
1629709084906,-0.9375,0.296875,-0.15625
1629709084937,-0.9375,0.296875,-0.15625
1629709084968,-0.9375,0.296875,-0.171875
1629709085000,-0.921875,0.296875,-0.15625
1629709085031,-0.9375,0.296875,-0.171875
1629709085062,-0.9375,0.296875,-0.171875
1629709085093,-0.9375,0.296875,-0.171875
1629709085125,-0.9375,0.296875,-0.171875
1629709085156,-0.9375,0.296875,-0.171875
1629709085187,-0.9375,0.296875,-0.171875
1629709085218,-0.9375,0.296875,-0.171875
1629709085250,-0.9375,0.296875,-0.171875
1629709085281,-0.9375,0.296875,-0.171875
1629709085312,-0.9375,0.296875,-0.171875
1629709085343,-0.9375,0.296875,-0.171875
1629709085375,-0.9375,0.296875,-0.171875
1629709085406,-0.9375,0.296875,-0.171875
1629709085437,-0.9375,0.296875,-0.171875
1629709085468,-0.9375,0.296875,-0.171875
1629709085500,-0.9375,0.296875,-0.171875
1629709085531,-0.9375,0.296875,-0.171875
1629709085562,-0.9375,0.296875,-0.171875
1629709085593,-0.9375,0.296875,-0.1875
1629709085625,-0.9375,0.296875,-0.171875
1629709085656,-0.9375,0.296875,-0.171875
1629709085687,-0.9375,0.296875,-0.171875
1629709085718,-0.9375,0.296875,-0.171875
1629709085750,-0.9375,0.296875,-0.171875
1629709085781,-0.9375,0.296875,-0.171875
1629709085812,-0.9375,0.296875,-0.171875
1629709085843,-0.9375,0.296875,-0.171875
1629709085875,-0.9375,0.296875,-0.171875
1629709085906,-0.9375,0.296875,-0.171875
1629709085937,-0.9375,0.296875,-0.171875
1629709085968,-0.9375,0.296875,-0.171875
1629709086000,-0.9375,0.296875,-0.171875
1629709086031,-0.9375,0.296875,-0.171875
1629709086062,-0.9375,0.296875,-0.171875
1629709086093,-0.9375,0.296875,-0.171875
1629709086125,-0.9375,0.296875,-0.1875
1629709086156,-0.9375,0.296875,-0.1875
1629709086187,-0.9375,0.296875,-0.171875
1629709086218,-0.9375,0.296875,-0.1875
1629709086250,-0.9375,0.296875,-0.1875
1629709086281,-0.9375,0.296875,-0.1875
1629709086312,-0.9375,0.3125,-0.171875
1629709086343,-0.921875,0.296875,-0.15625
1629709086375,-0.921875,0.296875,-0.171875
1629709086406,-0.9375,0.296875,-0.171875
1629709086437,-0.9375,0.296875,-0.171875
1629709086468,-0.9375,0.296875,-0.171875
1629709086500,-0.9375,0.296875,-0.171875
1629709086531,-0.953125,0.296875,-0.1875
1629709086562,-0.953125,0.296875,-0.171875
1629709086593,-0.9375,0.296875,-0.171875
1629709086625,-0.9375,0.296875,-0.171875
1629709086656,-0.9375,0.296875,-0.171875
1629709086687,-0.9375,0.296875,-0.1875
1629709086718,-0.9375,0.296875,-0.171875
1629709086750,-0.9375,0.296875,-0.171875
1629709086781,-0.9375,0.296875,-0.171875
1629709086812,-0.9375,0.296875,-0.171875
1629709086843,-0.9375,0.296875,-0.171875
1629709086875,-0.9375,0.296875,-0.171875
1629709086906,-0.9375,0.296875,-0.171875
1629709086937,-0.9375,0.296875,-0.171875
1629709086968,-0.9375,0.296875,-0.1875
1629709087000,-0.9375,0.296875,-0.171875
1629709087031,-0.9375,0.296875,-0.171875
1629709087062,-0.9375,0.296875,-0.171875
1629709087093,-0.9375,0.296875,-0.171875
1629709087125,-0.9375,0.296875,-0.171875
1629709087156,-0.9375,0.296875,-0.171875
1629709087187,-0.9375,0.296875,-0.171875
1629709087218,-0.9375,0.296875,-0.171875
1629709087250,-0.9375,0.296875,-0.171875
1629709087281,-0.9375,0.296875,-0.171875
1629709087312,-0.9375,0.296875,-0.171875
1629709087343,-0.921875,0.296875,-0.171875
1629709087375,-0.9375,0.296875,-0.171875
1629709087406,-0.953125,0.296875,-0.1875
1629709087437,-0.9375,0.296875,-0.171875
1629709087468,-0.9375,0.296875,-0.171875
1629709087500,-0.9375,0.296875,-0.171875
1629709087531,-0.9375,0.296875,-0.171875
1629709087562,-0.9375,0.296875,-0.171875
1629709087593,-0.9375,0.296875,-0.171875
1629709087625,-0.9375,0.296875,-0.171875
1629709087656,-0.9375,0.296875,-0.171875
1629709087687,-0.9375,0.296875,-0.171875
1629709087718,-0.9375,0.296875,-0.171875
1629709087750,-0.9375,0.296875,-0.171875
1629709087781,-0.9375,0.296875,-0.171875
1629709087812,-0.9375,0.296875,-0.171875
1629709087843,-0.9375,0.296875,-0.15625
1629709087875,-0.9375,0.296875,-0.171875
1629709087906,-0.9375,0.296875,-0.171875
1629709087937,-0.9375,0.296875,-0.171875
1629709087968,-0.9375,0.296875,-0.171875
1629709088000,-0.921875,0.296875,-0.15625
1629709088031,-0.9375,0.296875,-0.171875
1629709088062,-0.9375,0.296875,-0.171875
1629709088093,-0.9375,0.296875,-0.171875
1629709088125,-0.9375,0.296875,-0.15625
1629709088156,-0.9375,0.296875,-0.171875
1629709088187,-0.9375,0.296875,-0.15625
1629709088218,-0.9375,0.296875,-0.171875
1629709088250,-0.9375,0.296875,-0.171875
1629709088281,-0.9375,0.296875,-0.15625
1629709088312,-0.9375,0.296875,-0.171875
1629709088343,-0.9375,0.3125,-0.171875
1629709088375,-0.9375,0.3125,-0.171875
1629709088406,-0.9375,0.3125,-0.15625
1629709088437,-0.9375,0.296875,-0.171875
1629709088468,-0.9375,0.296875,-0.171875
1629709088500,-0.9375,0.296875,-0.15625
1629709088531,-0.9375,0.296875,-0.15625
1629709088562,-0.9375,0.3125,-0.15625
1629709088593,-0.9375,0.3125,-0.15625
1629709088625,-0.9375,0.3125,-0.15625
1629709088656,-0.9375,0.296875,-0.171875
1629709088687,-0.9375,0.3125,-0.15625
1629709088718,-0.9375,0.3125,-0.15625
1629709088750,-0.9375,0.296875,-0.15625
1629709088781,-0.9375,0.296875,-0.15625
1629709088812,-0.9375,0.3125,-0.15625
1629709088843,-0.9375,0.3125,-0.15625
1629709088875,-0.921875,0.3125,-0.140625
1629709088906,-0.9375,0.3125,-0.15625
1629709088937,-0.9375,0.3125,-0.15625
1629709088968,-0.9375,0.3125,-0.140625
1629709089000,-0.9375,0.3125,-0.15625
1629709089031,-0.9375,0.3125,-0.140625
1629709089062,-0.9375,0.3125,-0.140625
1629709089093,-0.9375,0.3125,-0.140625
1629709089125,-0.9375,0.3125,-0.15625
1629709089156,-0.9375,0.3125,-0.15625
1629709089187,-0.921875,0.328125,-0.15625
1629709089218,-0.9375,0.328125,-0.140625
1629709089250,-0.890625,0.328125,-0.125
1629709089281,-0.9375,0.3125,-0.140625
1629709089312,-0.921875,0.328125,-0.140625
1629709089343,-0.953125,0.328125,-0.171875
1629709089375,-0.953125,0.34375,-0.171875
1629709089406,-0.921875,0.359375,-0.171875
1629709089437,-0.921875,0.34375,-0.171875
1629709089468,-0.953125,0.34375,-0.1875
1629709089500,-0.921875,0.359375,-0.171875
1629709089531,-0.90625,0.359375,-0.15625
1629709089562,-0.90625,0.359375,-0.171875
1629709089593,-0.9375,0.359375,-0.1875
1629709089625,-0.90625,0.375,-0.15625
1629709089656,-0.90625,0.375,-0.171875
1629709089687,-0.921875,0.375,-0.171875
1629709089718,-0.921875,0.375,-0.171875
1629709089750,-0.90625,0.375,-0.171875
1629709089781,-0.90625,0.375,-0.171875
1629709089812,-0.90625,0.375,-0.15625
1629709089843,-0.90625,0.375,-0.171875
1629709089875,-0.921875,0.375,-0.1875
1629709089906,-0.90625,0.375,-0.171875
1629709089937,-0.890625,0.375,-0.15625
1629709089968,-0.90625,0.375,-0.171875
1629709090000,-0.90625,0.375,-0.171875
1629709090031,-0.90625,0.375,-0.171875
1629709090062,-0.90625,0.375,-0.171875
1629709090093,-0.90625,0.359375,-0.15625
1629709090125,-0.90625,0.34375,-0.171875
1629709090156,-0.90625,0.359375,-0.15625
1629709090187,-0.921875,0.375,-0.1875
1629709090218,-0.921875,0.375,-0.1875
1629709090250,-0.921875,0.375,-0.171875
1629709090281,-0.90625,0.34375,-0.15625
1629709090312,-0.921875,0.328125,-0.171875
1629709090343,-0.921875,0.328125,-0.15625
1629709090375,-0.921875,0.34375,-0.1875
1629709090406,-0.921875,0.34375,-0.171875
1629709090437,-0.90625,0.34375,-0.1875
1629709090468,-0.90625,0.34375,-0.1875
1629709090500,-0.90625,0.359375,-0.171875
1629709090531,-0.90625,0.359375,-0.203125
1629709090562,-0.921875,0.34375,-0.1875
1629709090593,-0.9375,0.328125,-0.203125
1629709090625,-0.9375,0.328125,-0.203125
1629709090656,-0.9375,0.328125,-0.203125
1629709090687,-0.921875,0.328125,-0.203125
1629709090718,-0.90625,0.328125,-0.1875
1629709090750,-0.921875,0.34375,-0.203125
1629709090781,-0.921875,0.328125,-0.203125
1629709090812,-0.921875,0.328125,-0.203125
1629709090843,-0.921875,0.328125,-0.1875
1629709090875,-0.921875,0.328125,-0.1875
1629709090906,-0.921875,0.328125,-0.1875
1629709090937,-0.921875,0.328125,-0.1875
1629709090968,-0.921875,0.328125,-0.203125
1629709091000,-0.90625,0.34375,-0.1875
1629709091031,-0.90625,0.34375,-0.1875
1629709091062,-0.921875,0.34375,-0.1875
1629709091093,-0.921875,0.34375,-0.1875
1629709091125,-0.921875,0.34375,-0.1875
1629709091156,-0.921875,0.328125,-0.1875
1629709091187,-0.9375,0.328125,-0.203125
1629709091218,-0.921875,0.328125,-0.1875
1629709091250,-0.921875,0.328125,-0.1875
1629709091281,-0.921875,0.328125,-0.1875
1629709091312,-0.921875,0.328125,-0.1875
1629709091343,-0.921875,0.328125,-0.1875
1629709091375,-0.921875,0.328125,-0.1875
1629709091406,-0.921875,0.328125,-0.1875
1629709091437,-0.921875,0.328125,-0.203125
1629709091468,-0.921875,0.328125,-0.1875
1629709091500,-0.921875,0.328125,-0.1875
1629709091531,-0.921875,0.34375,-0.203125
1629709091562,-0.921875,0.328125,-0.1875
1629709091593,-0.921875,0.328125,-0.1875
1629709091625,-0.921875,0.328125,-0.203125
1629709091656,-0.921875,0.328125,-0.203125
1629709091687,-0.921875,0.328125,-0.203125
1629709091718,-0.921875,0.328125,-0.203125
1629709091750,-0.921875,0.328125,-0.203125
1629709091781,-0.921875,0.328125,-0.203125
1629709091812,-0.921875,0.328125,-0.203125
1629709091843,-0.921875,0.328125,-0.203125
1629709091875,-0.921875,0.328125,-0.203125
1629709091906,-0.921875,0.328125,-0.203125
1629709091937,-0.921875,0.328125,-0.203125
1629709091968,-0.921875,0.328125,-0.203125
1629709092000,-0.921875,0.328125,-0.203125
1629709092031,-0.921875,0.328125,-0.203125
1629709092062,-0.921875,0.328125,-0.203125
1629709092093,-0.921875,0.328125,-0.203125
1629709092125,-0.921875,0.328125,-0.203125
1629709092156,-0.921875,0.328125,-0.203125
1629709092187,-0.921875,0.328125,-0.203125
1629709092218,-0.921875,0.328125,-0.203125
1629709092250,-0.921875,0.328125,-0.203125
1629709092281,-0.921875,0.328125,-0.203125
1629709092312,-0.921875,0.328125,-0.203125
1629709092343,-0.921875,0.328125,-0.203125
1629709092375,-0.921875,0.328125,-0.203125
1629709092406,-0.921875,0.328125,-0.21875
1629709092437,-0.921875,0.328125,-0.203125
1629709092468,-0.921875,0.328125,-0.203125
1629709092500,-0.921875,0.328125,-0.203125
1629709092531,-0.921875,0.328125,-0.203125
1629709092562,-0.921875,0.3125,-0.203125
1629709092593,-0.921875,0.328125,-0.203125
1629709092625,-0.921875,0.3125,-0.203125
1629709092656,-0.921875,0.3125,-0.203125
