timestamp,ax,ay,az
1631290337187,-0.71875,-0.28125,0.65625
1631290337218,-0.71875,-0.28125,0.625
1631290337250,-0.71875,-0.296875,0.65625
1631290337281,-0.6875,-0.296875,0.640625
1631290337312,-0.703125,-0.296875,0.625
1631290337343,-0.703125,-0.3125,0.640625
1631290337375,-0.6875,-0.3125,0.65625
1631290337406,-0.703125,-0.3125,0.609375
1631290337437,-0.6875,-0.296875,0.65625
1631290337468,-0.6875,-0.296875,0.671875
1631290337500,-0.6875,-0.28125,0.640625
1631290337531,-0.703125,-0.28125,0.640625
1631290337562,-0.671875,-0.296875,0.65625
1631290337593,-0.640625,-0.296875,0.734375
1631290337625,-0.609375,-0.28125,0.6875
1631290337656,-0.671875,-0.28125,0.671875
1631290337687,-0.6875,-0.28125,0.6875
1631290337718,-0.671875,-0.28125,0.671875
1631290337750,-0.65625,-0.296875,0.671875
1631290337781,-0.6875,-0.296875,0.6875
1631290337812,-0.6875,-0.296875,0.671875
1631290337843,-0.65625,-0.3125,0.671875
1631290337875,-0.625,-0.3125,0.71875
1631290337906,-0.640625,-0.3125,0.6875
1631290337937,-0.671875,-0.3125,0.703125
1631290337968,-0.703125,-0.296875,0.640625
1631290338000,-0.71875,-0.28125,0.59375
1631290338031,-0.765625,-0.296875,0.625
1631290338062,-0.640625,-0.28125,0.703125
1631290338093,-0.6875,-0.25,0.703125
1631290338125,-0.671875,-0.28125,0.671875
1631290338156,-0.734375,-0.265625,0.671875
1631290338187,-0.65625,-0.296875,0.6875
1631290338218,-0.6875,-0.3125,0.671875
1631290338250,-0.703125,-0.296875,0.578125
1631290338281,-0.71875,-0.296875,0.546875
1631290338312,-0.71875,-0.328125,0.65625
1631290338343,-0.6875,-0.3125,0.640625
1631290338375,-0.703125,-0.3125,0.625
1631290338406,-0.765625,-0.28125,0.609375
1631290338437,-0.71875,-0.28125,0.65625
1631290338468,-0.703125,-0.25,0.625
1631290338500,-0.6875,-0.265625,0.65625
1631290338531,-0.671875,-0.28125,0.671875
1631290338562,-0.6875,-0.296875,0.671875
1631290338593,-0.6875,-0.28125,0.65625
1631290338625,-0.671875,-0.28125,0.65625
1631290338656,-0.703125,-0.28125,0.671875
1631290338687,-0.734375,-0.28125,0.65625
1631290338718,-0.734375,-0.28125,0.59375
1631290338750,-0.75,-0.296875,0.609375
1631290338781,-0.703125,-0.3125,0.625
1631290338812,-0.75,-0.3125,0.59375
1631290338843,-0.734375,-0.3125,0.578125
1631290338875,-0.71875,-0.328125,0.609375
1631290338906,-0.6875,-0.328125,0.65625
1631290338937,-0.6875,-0.3125,0.671875
1631290338968,-0.703125,-0.296875,0.65625
1631290339000,-0.703125,-0.296875,0.625
1631290339031,-0.71875,-0.296875,0.640625
1631290339062,-0.71875,-0.265625,0.609375
1631290339093,-0.65625,-0.28125,0.671875
1631290339125,-0.734375,-0.265625,0.59375
1631290339156,-0.71875,-0.265625,0.671875
1631290339187,-0.703125,-0.25,0.65625
1631290339218,-0.6875,-0.296875,0.6875
1631290339250,-0.734375,-0.265625,0.640625
1631290339281,-0.71875,-0.296875,0.59375
1631290339312,-0.71875,-0.296875,0.609375
1631290339343,-0.71875,-0.3125,0.65625
1631290339375,-0.71875,-0.3125,0.59375
1631290339406,-0.71875,-0.3125,0.609375
1631290339437,-0.71875,-0.296875,0.625
1631290339468,-0.71875,-0.28125,0.609375
1631290339500,-0.75,-0.28125,0.609375
1631290339531,-0.703125,-0.28125,0.640625
1631290339562,-0.703125,-0.265625,0.625
1631290339593,-0.71875,-0.28125,0.609375
1631290339625,-0.703125,-0.28125,0.640625
1631290339656,-0.71875,-0.28125,0.625
1631290339687,-0.6875,-0.28125,0.65625
1631290339718,-0.734375,-0.28125,0.640625
1631290339750,-0.78125,-0.265625,0.546875
1631290339781,-0.703125,-0.296875,0.65625
1631290339812,-0.71875,-0.296875,0.625
1631290339843,-0.734375,-0.296875,0.578125
1631290339875,-0.75,-0.296875,0.5625
1631290339906,-0.75,-0.296875,0.59375
1631290339937,-0.671875,-0.3125,0.703125
1631290339968,-0.703125,-0.3125,0.65625
1631290340000,-0.71875,-0.296875,0.625
1631290340031,-0.65625,-0.28125,0.6875
1631290340062,-0.703125,-0.296875,0.640625
1631290340093,-0.703125,-0.28125,0.671875
1631290340125,-0.671875,-0.265625,0.6875
1631290340156,-0.71875,-0.265625,0.640625
1631290340187,-0.6875,-0.28125,0.640625
1631290340218,-0.71875,-0.28125,0.65625
1631290340250,-0.671875,-0.296875,0.640625
1631290340281,-0.703125,-0.296875,0.640625
1631290340312,-0.703125,-0.296875,0.65625
1631290340343,-0.6875,-0.3125,0.65625
1631290340375,-0.703125,-0.296875,0.625
1631290340406,-0.6875,-0.296875,0.640625
1631290340437,-0.6875,-0.296875,0.703125
1631290340468,-0.65625,-0.296875,0.734375
1631290340500,-0.71875,-0.265625,0.59375
1631290340531,-0.75,-0.28125,0.578125
1631290340562,-0.75,-0.296875,0.65625
1631290340593,-0.703125,-0.28125,0.625
1631290340625,-0.734375,-0.296875,0.625
1631290340656,-0.765625,-0.28125,0.578125
1631290340687,-0.734375,-0.28125,0.59375
1631290340718,-0.78125,-0.265625,0.5625
1631290340750,-0.765625,-0.28125,0.5625
1631290340781,-0.765625,-0.28125,0.59375
1631290340812,-0.734375,-0.28125,0.625
1631290340843,-0.734375,-0.28125,0.578125
1631290340875,-0.765625,-0.28125,0.546875
1631290340906,-0.765625,-0.265625,0.578125
1631290340937,-0.765625,-0.28125,0.59375
1631290340968,-0.796875,-0.265625,0.59375
1631290341000,-0.765625,-0.265625,0.578125
1631290341031,-0.796875,-0.296875,0.5625
1631290341062,-0.765625,-0.203125,0.5625
1631290341093,-0.796875,-0.25,0.578125
1631290341125,-0.765625,-0.265625,0.5625
1631290341156,-0.734375,-0.265625,0.578125
1631290341187,-0.65625,-0.296875,0.6875
1631290341218,-0.6875,-0.3125,0.65625
1631290341250,-0.71875,-0.3125,0.640625
1631290341281,-0.78125,-0.3125,0.640625
1631290341312,-0.75,-0.34375,0.640625
1631290341343,-0.625,-0.3125,0.734375
1631290341375,-0.671875,-0.3125,0.609375
1631290341406,-0.703125,-0.28125,0.546875
1631290341437,-0.734375,-0.265625,0.578125
1631290341468,-0.734375,-0.28125,0.5625
1631290341500,-0.71875,-0.296875,0.625
1631290341531,-0.6875,-0.3125,0.671875
1631290341562,-0.703125,-0.3125,0.671875
1631290341593,-0.765625,-0.28125,0.625
1631290341625,-0.78125,-0.28125,0.609375
1631290341656,-0.6875,-0.25,0.640625
1631290341687,-0.703125,-0.25,0.671875
1631290341718,-0.71875,-0.265625,0.671875
1631290341750,-0.703125,-0.28125,0.640625
1631290341781,-0.65625,-0.28125,0.640625
1631290341812,-0.65625,-0.25,0.625
1631290341843,-0.734375,-0.265625,0.65625
1631290341875,-0.75,-0.296875,0.625
1631290341906,-0.6875,-0.28125,0.640625
1631290341937,-0.6875,-0.265625,0.640625
1631290341968,-0.671875,-0.296875,0.65625
1631290342000,-0.671875,-0.328125,0.640625
1631290342031,-0.671875,-0.328125,0.65625
1631290342062,-0.703125,-0.296875,0.671875
1631290342093,-0.765625,-0.28125,0.609375
1631290342125,-0.71875,-0.28125,0.640625
1631290342156,-0.703125,-0.28125,0.65625
1631290342187,-0.65625,-0.296875,0.71875
1631290342218,-0.703125,-0.296875,0.625
1631290342250,-0.6875,-0.296875,0.625
1631290342281,-0.734375,-0.296875,0.609375
1631290342312,-0.734375,-0.296875,0.671875
1631290342343,-0.6875,-0.296875,0.6875
1631290342375,-0.703125,-0.265625,0.671875
1631290342406,-0.75,-0.25,0.65625
1631290342437,-0.78125,-0.265625,0.625
1631290342468,-0.78125,-0.234375,0.546875
1631290342500,-0.8125,-0.265625,0.515625
1631290342531,-0.765625,-0.28125,0.5625
1631290342562,-0.625,-0.296875,0.640625
1631290342593,-0.65625,-0.3125,0.671875
1631290342625,-0.59375,-0.3125,0.734375
1631290342656,-0.703125,-0.28125,0.6875
1631290342687,-0.71875,-0.25,0.65625
1631290342718,-0.65625,-0.28125,0.671875
1631290342750,-0.671875,-0.3125,0.671875
1631290342781,-0.71875,-0.328125,0.625
1631290342812,-0.703125,-0.328125,0.640625
1631290342843,-0.6875,-0.328125,0.65625
1631290342875,-0.703125,-0.296875,0.625
1631290342906,-0.734375,-0.265625,0.609375
1631290342937,-0.734375,-0.234375,0.59375
1631290342968,-0.796875,-0.296875,0.671875
1631290343000,-0.703125,-0.234375,0.625
1631290343031,-0.65625,-0.28125,0.6875
1631290343062,-0.71875,-0.296875,0.671875
1631290343093,-0.71875,-0.265625,0.625
1631290343125,-0.71875,-0.265625,0.625
1631290343156,-0.765625,-0.28125,0.5625
1631290343187,-0.78125,-0.28125,0.625
1631290343218,-0.6875,-0.28125,0.59375
1631290343250,-0.734375,-0.265625,0.578125
1631290343281,-0.765625,-0.265625,0.59375
1631290343312,-0.75,-0.265625,0.59375
1631290343343,-0.75,-0.25,0.578125
1631290343375,-0.75,-0.28125,0.625
1631290343406,-0.75,-0.28125,0.609375
1631290343437,-0.703125,-0.28125,0.65625
1631290343468,-0.6875,-0.28125,0.71875
1631290343500,-0.65625,-0.265625,0.703125
1631290343531,-0.671875,-0.28125,0.703125
1631290343562,-0.6875,-0.28125,0.703125
1631290343593,-0.75,-0.25,0.609375
1631290343625,-0.796875,-0.25,0.5625
1631290343656,-0.75,-0.234375,0.578125
1631290343687,-0.703125,-0.25,0.71875
1631290343718,-0.6875,-0.234375,0.671875
1631290343750,-0.6875,-0.28125,0.625
1631290343781,-0.84375,-0.25,0.59375
1631290343812,-0.703125,-0.265625,0.59375
1631290343843,-0.828125,-0.25,0.609375
1631290343875,-0.828125,-0.25,0.546875
1631290343906,-0.703125,-0.21875,0.640625
1631290343937,-0.703125,-0.21875,0.6875
1631290343968,-0.53125,-0.171875,0.78125
1631290344000,-0.71875,-0.234375,0.6875
1631290344031,-0.734375,-0.265625,0.65625
1631290344062,-0.71875,-0.28125,0.640625
1631290344093,-0.6875,-0.265625,0.6875
1631290344125,-0.78125,-0.25,0.640625
1631290344156,-0.71875,-0.234375,0.625
1631290344187,-0.6875,-0.234375,0.6875
1631290344218,-0.703125,-0.1875,0.65625
1631290344250,-0.734375,-0.203125,0.640625
1631290344281,-0.796875,-0.234375,0.5625
1631290344312,-0.828125,-0.25,0.609375
1631290344343,-0.71875,-0.265625,0.671875
1631290344375,-0.8125,-0.21875,0.453125
1631290344406,-0.9375,-0.21875,0.421875
1631290344437,-0.71875,-0.21875,0.53125
1631290344468,-0.640625,-0.15625,0.59375
1631290344500,-0.84375,-0.140625,0.40625
1631290344531,-0.984375,-0.125,0.265625
1631290344562,-1.03125,-0.09375,0.203125
1631290344593,-0.953125,-0.109375,0.21875
1631290344625,-0.953125,-0.171875,0.3125
1631290344656,-0.96875,-0.1875,0.3125
1631290344687,-0.953125,-0.234375,0.296875
1631290344718,-0.90625,-0.234375,0.265625
1631290344750,-0.890625,-0.265625,0.3125
1631290344781,-0.96875,-0.265625,0.28125
1631290344812,-1.03125,-0.25,0.203125
1631290344843,-1.0,-0.234375,0.21875
1631290344875,-0.90625,-0.203125,0.234375
1631290344906,-0.84375,-0.21875,0.328125
1631290344937,-1.140625,-0.25,0.15625
1631290344968,-0.828125,-0.265625,0.265625
1631290345000,-0.90625,-0.234375,0.28125
1631290345031,-0.9375,-0.21875,0.328125
1631290345062,-0.9375,-0.203125,0.359375
1631290345093,-0.859375,-0.1875,0.3125
1631290345125,-0.96875,-0.21875,0.265625
1631290345156,-0.9375,-0.234375,0.296875
1631290345187,-0.9375,-0.234375,0.28125
1631290345218,-0.96875,-0.265625,0.296875
1631290345250,-0.9375,-0.234375,0.328125
1631290345281,-0.796875,-0.171875,0.421875
1631290345312,-0.8125,-0.171875,0.484375
1631290345343,-0.8125,-0.1875,0.53125
1631290345375,-0.8125,-0.171875,0.46875
1631290345406,-0.921875,-0.203125,0.375
1631290345437,-0.921875,-0.21875,0.34375
1631290345468,-0.90625,-0.25,0.359375
1631290345500,-0.921875,-0.25,0.328125
1631290345531,-0.9375,-0.234375,0.296875
1631290345562,-0.9375,-0.21875,0.296875
1631290345593,-0.90625,-0.21875,0.359375
1631290345625,-0.890625,-0.21875,0.359375
1631290345656,-0.90625,-0.203125,0.359375
1631290345687,-0.921875,-0.21875,0.34375
1631290345718,-0.921875,-0.21875,0.34375
1631290345750,-0.921875,-0.21875,0.34375
1631290345781,-0.921875,-0.21875,0.34375
1631290345812,-0.921875,-0.21875,0.328125
1631290345843,-0.921875,-0.21875,0.34375
1631290345875,-0.921875,-0.203125,0.359375
1631290345906,-0.90625,-0.21875,0.359375
1631290345937,-0.90625,-0.21875,0.359375
1631290345968,-0.90625,-0.21875,0.34375
1631290346000,-0.90625,-0.21875,0.34375
1631290346031,-0.921875,-0.21875,0.328125
1631290346062,-0.921875,-0.21875,0.328125
1631290346093,-0.9375,-0.203125,0.28125
1631290346125,-0.9375,-0.21875,0.328125
1631290346156,-0.90625,-0.234375,0.375
1631290346187,-0.859375,-0.234375,0.453125
1631290346218,-0.875,-0.21875,0.40625
1631290346250,-0.890625,-0.21875,0.390625
1631290346281,-0.890625,-0.21875,0.40625
1631290346312,-0.890625,-0.21875,0.390625
1631290346343,-0.90625,-0.21875,0.359375
1631290346375,-0.9375,-0.21875,0.328125
1631290346406,-0.921875,-0.21875,0.328125
1631290346437,-0.921875,-0.21875,0.34375
1631290346468,-0.90625,-0.234375,0.34375
1631290346500,-0.921875,-0.21875,0.328125
1631290346531,-0.921875,-0.21875,0.34375
1631290346562,-0.90625,-0.21875,0.34375
1631290346593,-0.921875,-0.21875,0.34375
1631290346625,-0.90625,-0.21875,0.34375
1631290346656,-0.921875,-0.21875,0.34375
1631290346687,-0.921875,-0.21875,0.34375
1631290346718,-0.90625,-0.21875,0.34375
1631290346750,-0.921875,-0.21875,0.34375
1631290346781,-0.921875,-0.21875,0.34375
1631290346812,-0.921875,-0.21875,0.34375
1631290346843,-0.90625,-0.21875,0.34375
1631290346875,-0.921875,-0.21875,0.34375
1631290346906,-0.921875,-0.21875,0.34375
1631290346937,-0.921875,-0.21875,0.34375
1631290346968,-0.921875,-0.21875,0.34375
1631290347000,-0.90625,-0.21875,0.34375
1631290347031,-0.921875,-0.21875,0.328125
1631290347062,-0.921875,-0.21875,0.34375
1631290347093,-0.921875,-0.21875,0.34375
1631290347125,-0.921875,-0.21875,0.34375
1631290347156,-0.921875,-0.21875,0.34375
1631290347187,-0.921875,-0.21875,0.34375
1631290347218,-0.921875,-0.21875,0.34375
1631290347250,-0.921875,-0.21875,0.34375
1631290347281,-0.921875,-0.21875,0.34375
1631290347312,-0.921875,-0.21875,0.34375
1631290347343,-0.90625,-0.21875,0.34375
1631290347375,-0.921875,-0.21875,0.328125
1631290347406,-0.921875,-0.21875,0.34375
1631290347437,-0.921875,-0.21875,0.34375
1631290347468,-0.921875,-0.21875,0.34375
1631290347500,-0.921875,-0.21875,0.34375
1631290347531,-0.921875,-0.21875,0.328125
1631290347562,-0.90625,-0.21875,0.34375
1631290347593,-0.921875,-0.21875,0.34375
1631290347625,-0.90625,-0.21875,0.34375
1631290347656,-0.921875,-0.21875,0.34375
1631290347687,-0.921875,-0.21875,0.34375
1631290347718,-0.921875,-0.21875,0.34375
1631290347750,-0.921875,-0.21875,0.34375
1631290347781,-0.921875,-0.21875,0.34375
1631290347812,-0.921875,-0.21875,0.34375
1631290347843,-0.921875,-0.21875,0.328125
1631290347875,-0.921875,-0.21875,0.34375
1631290347906,-0.921875,-0.21875,0.34375
1631290347937,-0.921875,-0.21875,0.34375
1631290347968,-0.921875,-0.21875,0.34375
1631290348000,-0.921875,-0.21875,0.34375
1631290348031,-0.921875,-0.21875,0.34375
1631290348062,-0.921875,-0.21875,0.34375
1631290348093,-0.921875,-0.21875,0.34375
1631290348125,-0.921875,-0.21875,0.328125
1631290348156,-0.921875,-0.21875,0.34375
1631290348187,-0.921875,-0.21875,0.34375
1631290348218,-0.921875,-0.21875,0.328125
1631290348250,-0.921875,-0.21875,0.34375
1631290348281,-0.921875,-0.21875,0.34375
1631290348312,-0.90625,-0.21875,0.34375
1631290348343,-0.921875,-0.21875,0.34375
1631290348375,-0.921875,-0.21875,0.34375
1631290348406,-0.921875,-0.21875,0.328125
1631290348437,-0.90625,-0.21875,0.34375
1631290348468,-0.921875,-0.21875,0.34375
1631290348500,-0.921875,-0.21875,0.328125
1631290348531,-0.921875,-0.21875,0.34375
1631290348562,-0.921875,-0.21875,0.34375
1631290348593,-0.921875,-0.21875,0.34375
1631290348625,-0.921875,-0.21875,0.328125
1631290348656,-0.921875,-0.21875,0.34375
1631290348687,-0.921875,-0.21875,0.328125
1631290348718,-0.921875,-0.21875,0.34375
1631290348750,-0.921875,-0.21875,0.34375
1631290348781,-0.921875,-0.21875,0.34375
1631290348812,-0.921875,-0.21875,0.34375
1631290348843,-0.921875,-0.21875,0.328125
1631290348875,-0.921875,-0.21875,0.328125
1631290348906,-0.921875,-0.21875,0.34375
1631290348937,-0.921875,-0.21875,0.34375
1631290348968,-0.90625,-0.21875,0.328125
1631290349000,-0.921875,-0.21875,0.34375
1631290349031,-0.921875,-0.21875,0.34375
1631290349062,-0.921875,-0.21875,0.328125
1631290349093,-0.90625,-0.21875,0.34375
1631290349125,-0.90625,-0.21875,0.34375
1631290349156,-0.921875,-0.21875,0.328125
1631290349187,-0.90625,-0.21875,0.34375
1631290349218,-0.90625,-0.21875,0.34375
1631290349250,-0.921875,-0.21875,0.34375
1631290349281,-0.921875,-0.21875,0.34375
1631290349312,-0.921875,-0.21875,0.34375
1631290349343,-0.921875,-0.21875,0.34375
1631290349375,-0.921875,-0.21875,0.34375
1631290349406,-0.921875,-0.21875,0.34375
1631290349437,-0.90625,-0.21875,0.34375
1631290349468,-0.921875,-0.21875,0.328125
1631290349500,-0.921875,-0.21875,0.34375
1631290349531,-0.921875,-0.21875,0.328125
1631290349562,-0.921875,-0.21875,0.34375
1631290349593,-0.90625,-0.21875,0.34375
1631290349625,-0.90625,-0.21875,0.34375
1631290349656,-0.921875,-0.21875,0.328125
1631290349687,-0.921875,-0.21875,0.34375
1631290349718,-0.921875,-0.21875,0.34375
1631290349750,-0.90625,-0.21875,0.328125
1631290349781,-0.921875,-0.21875,0.328125
1631290349812,-0.921875,-0.21875,0.34375
1631290349843,-0.921875,-0.21875,0.328125
1631290349875,-0.921875,-0.21875,0.34375
1631290349906,-0.921875,-0.21875,0.328125
1631290349937,-0.90625,-0.21875,0.34375
1631290349968,-0.921875,-0.21875,0.34375
1631290350000,-0.921875,-0.21875,0.34375
1631290350031,-0.921875,-0.21875,0.34375
1631290350062,-0.921875,-0.21875,0.34375
1631290350093,-0.921875,-0.21875,0.328125
1631290350125,-0.921875,-0.21875,0.34375
1631290350156,-0.921875,-0.21875,0.34375
1631290350187,-0.921875,-0.21875,0.328125
1631290350218,-0.921875,-0.21875,0.328125
1631290350250,-0.921875,-0.21875,0.34375
1631290350281,-0.921875,-0.21875,0.34375
1631290350312,-0.921875,-0.21875,0.34375
1631290350343,-0.921875,-0.21875,0.34375
1631290350375,-0.921875,-0.21875,0.328125
1631290350406,-0.921875,-0.21875,0.328125
1631290350437,-0.921875,-0.21875,0.328125
1631290350468,-0.921875,-0.21875,0.34375
1631290350500,-0.921875,-0.21875,0.328125
1631290350531,-0.921875,-0.21875,0.34375
1631290350562,-0.921875,-0.21875,0.328125
1631290350593,-0.921875,-0.21875,0.328125
1631290350625,-0.921875,-0.21875,0.328125
1631290350656,-0.921875,-0.21875,0.34375
1631290350687,-0.921875,-0.21875,0.328125
1631290350718,-0.921875,-0.21875,0.328125
1631290350750,-0.90625,-0.21875,0.328125
1631290350781,-0.921875,-0.21875,0.34375
1631290350812,-0.921875,-0.21875,0.34375
1631290350843,-0.921875,-0.21875,0.34375
1631290350875,-0.921875,-0.21875,0.328125
1631290350906,-0.921875,-0.21875,0.34375
1631290350937,-0.921875,-0.21875,0.34375
1631290350968,-0.921875,-0.21875,0.34375
1631290351000,-0.921875,-0.21875,0.34375
1631290351031,-0.921875,-0.21875,0.34375
1631290351062,-0.921875,-0.21875,0.34375
1631290351093,-0.921875,-0.21875,0.34375
1631290351125,-0.921875,-0.21875,0.328125
1631290351156,-0.921875,-0.21875,0.328125
1631290351187,-0.921875,-0.21875,0.34375
1631290351218,-0.921875,-0.21875,0.34375
1631290351250,-0.921875,-0.21875,0.328125
1631290351281,-0.921875,-0.21875,0.328125
1631290351312,-0.921875,-0.21875,0.328125
1631290351343,-0.921875,-0.21875,0.34375
1631290351375,-0.921875,-0.21875,0.328125
1631290351406,-0.921875,-0.21875,0.34375
1631290351437,-0.90625,-0.21875,0.34375
1631290351468,-0.90625,-0.21875,0.34375
1631290351500,-0.921875,-0.21875,0.328125
1631290351531,-0.90625,-0.21875,0.328125
1631290351562,-0.921875,-0.21875,0.34375
1631290351593,-0.921875,-0.21875,0.328125
1631290351625,-0.921875,-0.21875,0.34375
1631290351656,-0.921875,-0.21875,0.34375
1631290351687,-0.921875,-0.21875,0.34375
1631290351718,-0.921875,-0.21875,0.34375
1631290351750,-0.921875,-0.21875,0.328125
1631290351781,-0.921875,-0.21875,0.34375
1631290351812,-0.921875,-0.21875,0.34375
1631290351843,-0.921875,-0.21875,0.328125
1631290351875,-0.921875,-0.21875,0.34375
1631290351906,-0.921875,-0.21875,0.34375
1631290351937,-0.921875,-0.21875,0.34375
1631290351968,-0.921875,-0.21875,0.328125
1631290352000,-0.921875,-0.21875,0.34375
1631290352031,-0.921875,-0.21875,0.34375
1631290352062,-0.921875,-0.21875,0.34375
1631290352093,-0.921875,-0.21875,0.34375
1631290352125,-0.921875,-0.21875,0.34375
1631290352156,-0.921875,-0.21875,0.34375
1631290352187,-0.921875,-0.21875,0.34375
1631290352218,-0.921875,-0.21875,0.34375
1631290352250,-0.921875,-0.21875,0.34375
1631290352281,-0.921875,-0.21875,0.34375
1631290352312,-0.90625,-0.21875,0.328125
1631290352343,-0.921875,-0.21875,0.328125
1631290352375,-0.921875,-0.21875,0.34375
1631290352406,-0.921875,-0.21875,0.34375
1631290352437,-0.921875,-0.21875,0.34375
1631290352468,-0.921875,-0.21875,0.34375
1631290352500,-0.921875,-0.21875,0.34375
1631290352531,-0.921875,-0.21875,0.34375
1631290352562,-0.921875,-0.21875,0.34375
1631290352593,-0.921875,-0.21875,0.34375
1631290352625,-0.921875,-0.21875,0.34375
1631290352656,-0.921875,-0.21875,0.34375
1631290352687,-0.921875,-0.21875,0.34375
1631290352718,-0.921875,-0.21875,0.34375
1631290352750,-0.921875,-0.21875,0.34375
1631290352781,-0.90625,-0.21875,0.34375
1631290352812,-0.921875,-0.21875,0.34375
1631290352843,-0.921875,-0.21875,0.34375
1631290352875,-0.921875,-0.21875,0.34375
1631290352906,-0.921875,-0.21875,0.34375
1631290352937,-0.921875,-0.21875,0.34375
1631290352968,-0.921875,-0.21875,0.34375
1631290353000,-0.921875,-0.21875,0.34375
1631290353031,-0.90625,-0.21875,0.34375
1631290353062,-0.90625,-0.21875,0.34375
1631290353093,-0.921875,-0.234375,0.328125
1631290353125,-0.921875,-0.21875,0.34375
1631290353156,-0.90625,-0.234375,0.34375
1631290353187,-0.921875,-0.21875,0.34375
1631290353218,-0.921875,-0.21875,0.328125
1631290353250,-0.921875,-0.21875,0.34375
1631290353281,-0.921875,-0.21875,0.34375
1631290353312,-0.921875,-0.234375,0.34375
1631290353343,-0.90625,-0.21875,0.328125
1631290353375,-0.921875,-0.234375,0.328125
1631290353406,-0.921875,-0.234375,0.34375
1631290353437,-0.921875,-0.234375,0.328125
1631290353468,-0.90625,-0.234375,0.34375
1631290353500,-0.90625,-0.234375,0.34375
1631290353531,-0.921875,-0.21875,0.328125
1631290353562,-0.921875,-0.234375,0.34375
1631290353593,-0.921875,-0.234375,0.34375
1631290353625,-0.921875,-0.234375,0.328125
1631290353656,-0.90625,-0.234375,0.328125
1631290353687,-0.921875,-0.234375,0.328125
1631290353718,-0.921875,-0.234375,0.34375
1631290353750,-0.90625,-0.234375,0.328125
1631290353781,-0.921875,-0.234375,0.328125
1631290353812,-0.921875,-0.234375,0.328125
1631290353843,-0.921875,-0.234375,0.34375
1631290353875,-0.90625,-0.234375,0.328125
1631290353906,-0.921875,-0.234375,0.328125
1631290353937,-0.921875,-0.234375,0.328125
1631290353968,-0.921875,-0.234375,0.328125
1631290354000,-0.921875,-0.21875,0.328125
1631290354031,-0.921875,-0.21875,0.328125
1631290354062,-0.921875,-0.21875,0.328125
1631290354093,-0.921875,-0.234375,0.328125
1631290354125,-0.921875,-0.21875,0.328125
1631290354156,-0.921875,-0.234375,0.328125
1631290354187,-0.921875,-0.234375,0.328125
1631290354218,-0.921875,-0.234375,0.328125
1631290354250,-0.921875,-0.234375,0.34375
1631290354281,-0.921875,-0.21875,0.328125
1631290354312,-0.921875,-0.21875,0.328125
1631290354343,-0.921875,-0.21875,0.328125
1631290354375,-0.921875,-0.21875,0.328125
1631290354406,-0.921875,-0.21875,0.328125
1631290354437,-0.921875,-0.21875,0.328125
1631290354468,-0.921875,-0.21875,0.328125
1631290354500,-0.921875,-0.21875,0.328125
1631290354531,-0.921875,-0.21875,0.328125
1631290354562,-0.921875,-0.21875,0.328125
1631290354593,-0.921875,-0.21875,0.328125
1631290354625,-0.921875,-0.21875,0.328125
1631290354656,-0.90625,-0.21875,0.34375
1631290354687,-0.921875,-0.21875,0.328125
1631290354718,-0.921875,-0.21875,0.328125
1631290354750,-0.90625,-0.21875,0.328125
1631290354781,-0.921875,-0.21875,0.34375
1631290354812,-0.921875,-0.21875,0.328125
1631290354843,-0.921875,-0.21875,0.34375
1631290354875,-0.921875,-0.21875,0.34375
1631290354906,-0.921875,-0.21875,0.34375
1631290354937,-0.921875,-0.21875,0.34375
1631290354968,-0.921875,-0.21875,0.328125
1631290355000,-0.921875,-0.234375,0.328125
1631290355031,-0.921875,-0.21875,0.34375
1631290355062,-0.921875,-0.21875,0.34375
1631290355093,-0.90625,-0.21875,0.328125
1631290355125,-0.921875,-0.21875,0.34375
1631290355156,-0.921875,-0.21875,0.34375
1631290355187,-0.921875,-0.21875,0.34375
1631290355218,-0.921875,-0.21875,0.34375
1631290355250,-0.921875,-0.21875,0.34375
1631290355281,-0.921875,-0.21875,0.34375
1631290355312,-0.921875,-0.21875,0.34375
1631290355343,-0.921875,-0.21875,0.328125
1631290355375,-0.90625,-0.21875,0.34375
1631290355406,-0.921875,-0.21875,0.34375
1631290355437,-0.921875,-0.21875,0.328125
1631290355468,-0.90625,-0.21875,0.34375
1631290355500,-0.921875,-0.21875,0.328125
1631290355531,-0.921875,-0.21875,0.34375
1631290355562,-0.921875,-0.21875,0.34375
1631290355593,-0.921875,-0.21875,0.328125
1631290355625,-0.921875,-0.21875,0.34375
1631290355656,-0.921875,-0.21875,0.34375
1631290355687,-0.921875,-0.21875,0.34375
1631290355718,-0.921875,-0.21875,0.34375
1631290355750,-0.921875,-0.21875,0.34375
1631290355781,-0.921875,-0.21875,0.34375
1631290355812,-0.921875,-0.21875,0.34375
1631290355843,-0.921875,-0.21875,0.34375
1631290355875,-0.921875,-0.21875,0.34375
1631290355906,-0.921875,-0.21875,0.328125
1631290355937,-0.921875,-0.21875,0.34375
1631290355968,-0.921875,-0.21875,0.34375
1631290356000,-0.921875,-0.21875,0.328125
1631290356031,-0.921875,-0.21875,0.34375
1631290356062,-0.921875,-0.21875,0.34375
1631290356093,-0.921875,-0.21875,0.328125
1631290356125,-0.921875,-0.21875,0.34375
1631290356156,-0.921875,-0.21875,0.328125
1631290356187,-0.921875,-0.21875,0.328125
1631290356218,-0.921875,-0.21875,0.34375
1631290356250,-0.921875,-0.21875,0.34375
1631290356281,-0.921875,-0.21875,0.328125
1631290356312,-0.90625,-0.21875,0.34375
1631290356343,-0.921875,-0.21875,0.328125
1631290356375,-0.90625,-0.21875,0.328125
1631290356406,-0.921875,-0.21875,0.34375
1631290356437,-0.921875,-0.21875,0.328125
1631290356468,-0.921875,-0.21875,0.34375
1631290356500,-0.90625,-0.21875,0.34375
1631290356531,-0.921875,-0.21875,0.328125
1631290356562,-0.921875,-0.21875,0.34375
1631290356593,-0.921875,-0.21875,0.328125
1631290356625,-0.921875,-0.21875,0.328125
1631290356656,-0.921875,-0.21875,0.34375
1631290356687,-0.921875,-0.21875,0.328125
1631290356718,-0.921875,-0.21875,0.34375
1631290356750,-0.921875,-0.21875,0.328125
1631290356781,-0.921875,-0.21875,0.34375
1631290356812,-0.921875,-0.21875,0.34375
1631290356843,-0.921875,-0.21875,0.34375
1631290356875,-0.921875,-0.21875,0.328125
1631290356906,-0.921875,-0.21875,0.34375
1631290356937,-0.921875,-0.21875,0.34375
1631290356968,-0.921875,-0.21875,0.328125
1631290357000,-0.921875,-0.21875,0.34375
1631290357031,-0.921875,-0.21875,0.328125
1631290357062,-0.921875,-0.21875,0.328125
1631290357093,-0.921875,-0.21875,0.34375
1631290357125,-0.921875,-0.21875,0.328125
1631290357156,-0.921875,-0.21875,0.328125
1631290357187,-0.90625,-0.21875,0.34375
1631290357218,-0.921875,-0.21875,0.328125
1631290357250,-0.921875,-0.21875,0.328125
1631290357281,-0.90625,-0.21875,0.328125
1631290357312,-0.921875,-0.21875,0.34375
1631290357343,-0.921875,-0.21875,0.34375
1631290357375,-0.921875,-0.21875,0.328125
1631290357406,-0.921875,-0.21875,0.328125
1631290357437,-0.921875,-0.21875,0.34375
1631290357468,-0.921875,-0.21875,0.34375
1631290357500,-0.921875,-0.21875,0.34375
1631290357531,-0.921875,-0.21875,0.34375
1631290357562,-0.921875,-0.21875,0.34375
1631290357593,-0.921875,-0.21875,0.34375
1631290357625,-0.921875,-0.21875,0.328125
1631290357656,-0.921875,-0.21875,0.328125
1631290357687,-0.921875,-0.21875,0.34375
1631290357718,-0.921875,-0.21875,0.328125
1631290357750,-0.921875,-0.21875,0.328125
1631290357781,-0.921875,-0.21875,0.34375
1631290357812,-0.921875,-0.21875,0.328125
1631290357843,-0.921875,-0.21875,0.34375
1631290357875,-0.921875,-0.21875,0.34375
1631290357906,-0.921875,-0.21875,0.34375
1631290357937,-0.921875,-0.21875,0.34375
1631290357968,-0.90625,-0.21875,0.34375
1631290358000,-0.921875,-0.21875,0.34375
1631290358031,-0.921875,-0.21875,0.34375
1631290358062,-0.921875,-0.21875,0.34375
1631290358093,-0.90625,-0.21875,0.34375
1631290358125,-0.921875,-0.21875,0.328125
1631290358156,-0.921875,-0.21875,0.328125
1631290358187,-0.90625,-0.21875,0.34375
1631290358218,-0.921875,-0.21875,0.328125
1631290358250,-0.921875,-0.21875,0.34375
1631290358281,-0.921875,-0.21875,0.34375
1631290358312,-0.921875,-0.21875,0.328125
1631290358343,-0.921875,-0.21875,0.34375
1631290358375,-0.921875,-0.21875,0.34375
1631290358406,-0.921875,-0.21875,0.34375
1631290358437,-0.921875,-0.21875,0.34375
1631290358468,-0.921875,-0.21875,0.34375
1631290358500,-0.921875,-0.21875,0.34375
1631290358531,-0.921875,-0.21875,0.34375
1631290358562,-0.921875,-0.21875,0.34375
1631290358593,-0.921875,-0.21875,0.34375
1631290358625,-0.921875,-0.21875,0.328125
1631290358656,-0.921875,-0.21875,0.34375
1631290358687,-0.921875,-0.21875,0.34375
1631290358718,-0.921875,-0.21875,0.34375
1631290358750,-0.921875,-0.21875,0.34375
1631290358781,-0.921875,-0.21875,0.328125
1631290358812,-0.921875,-0.21875,0.34375
1631290358843,-0.921875,-0.234375,0.34375
1631290358875,-0.921875,-0.21875,0.34375
1631290358906,-0.921875,-0.21875,0.328125
1631290358937,-0.921875,-0.21875,0.34375
1631290358968,-0.90625,-0.21875,0.34375
1631290359000,-0.90625,-0.21875,0.328125
1631290359031,-0.921875,-0.21875,0.34375
1631290359062,-0.921875,-0.234375,0.328125
1631290359093,-0.921875,-0.234375,0.328125
1631290359125,-0.921875,-0.234375,0.328125
1631290359156,-0.921875,-0.21875,0.34375
1631290359187,-0.921875,-0.21875,0.34375
1631290359218,-0.921875,-0.21875,0.34375
1631290359250,-0.921875,-0.21875,0.328125
1631290359281,-0.921875,-0.21875,0.34375
1631290359312,-0.921875,-0.234375,0.34375
1631290359343,-0.921875,-0.234375,0.34375
1631290359375,-0.90625,-0.234375,0.34375
1631290359406,-0.921875,-0.21875,0.34375
1631290359437,-0.921875,-0.234375,0.34375
1631290359468,-0.90625,-0.234375,0.328125
1631290359500,-0.921875,-0.21875,0.328125
1631290359531,-0.921875,-0.21875,0.328125
1631290359562,-0.921875,-0.234375,0.328125
1631290359593,-0.921875,-0.234375,0.34375
1631290359625,-0.921875,-0.234375,0.34375
1631290359656,-0.921875,-0.21875,0.34375
1631290359687,-0.921875,-0.21875,0.328125
1631290359718,-0.90625,-0.21875,0.328125
1631290359750,-0.921875,-0.234375,0.34375
1631290359781,-0.921875,-0.21875,0.328125
1631290359812,-0.90625,-0.21875,0.34375
1631290359843,-0.90625,-0.21875,0.34375
1631290359875,-0.921875,-0.234375,0.328125
1631290359906,-0.921875,-0.234375,0.328125
1631290359937,-0.921875,-0.234375,0.328125
1631290359968,-0.921875,-0.234375,0.328125
1631290360000,-0.921875,-0.21875,0.328125
1631290360031,-0.921875,-0.21875,0.34375
1631290360062,-0.921875,-0.21875,0.34375
1631290360093,-0.921875,-0.21875,0.34375
1631290360125,-0.921875,-0.21875,0.328125
1631290360156,-0.921875,-0.21875,0.328125
1631290360187,-0.921875,-0.21875,0.328125
1631290360218,-0.921875,-0.21875,0.34375
1631290360250,-0.921875,-0.21875,0.34375
1631290360281,-0.921875,-0.21875,0.34375
1631290360312,-0.921875,-0.21875,0.34375
1631290360343,-0.921875,-0.21875,0.328125
1631290360375,-0.921875,-0.21875,0.328125
1631290360406,-0.921875,-0.21875,0.328125
1631290360437,-0.921875,-0.21875,0.34375
1631290360468,-0.921875,-0.21875,0.328125
1631290360500,-0.921875,-0.21875,0.328125
1631290360531,-0.921875,-0.21875,0.34375
1631290360562,-0.921875,-0.21875,0.328125
1631290360593,-0.921875,-0.21875,0.34375
1631290360625,-0.921875,-0.21875,0.34375
1631290360656,-0.921875,-0.21875,0.34375
1631290360687,-0.90625,-0.21875,0.34375
1631290360718,-0.921875,-0.21875,0.34375
1631290360750,-0.921875,-0.21875,0.34375
1631290360781,-0.90625,-0.21875,0.328125
1631290360812,-0.921875,-0.21875,0.328125
1631290360843,-0.921875,-0.21875,0.34375
1631290360875,-0.921875,-0.21875,0.34375
1631290360906,-0.921875,-0.21875,0.34375
1631290360937,-0.921875,-0.21875,0.328125
1631290360968,-0.921875,-0.21875,0.328125
1631290361000,-0.921875,-0.21875,0.34375
1631290361031,-0.921875,-0.21875,0.328125
1631290361062,-0.921875,-0.21875,0.34375
1631290361093,-0.921875,-0.21875,0.34375
1631290361125,-0.921875,-0.21875,0.328125
1631290361156,-0.921875,-0.21875,0.328125
1631290361187,-0.921875,-0.21875,0.34375
1631290361218,-0.921875,-0.21875,0.34375
1631290361250,-0.921875,-0.21875,0.34375
1631290361281,-0.921875,-0.21875,0.328125
1631290361312,-0.921875,-0.21875,0.328125
1631290361343,-0.921875,-0.21875,0.34375
1631290361375,-0.921875,-0.21875,0.328125
1631290361406,-0.921875,-0.21875,0.328125
1631290361437,-0.921875,-0.21875,0.34375
1631290361468,-0.921875,-0.21875,0.34375
1631290361500,-0.921875,-0.21875,0.34375
1631290361531,-0.921875,-0.21875,0.34375
1631290361562,-0.90625,-0.21875,0.34375
1631290361593,-0.921875,-0.21875,0.34375
1631290361625,-0.921875,-0.21875,0.34375
1631290361656,-0.90625,-0.21875,0.328125
1631290361687,-0.921875,-0.21875,0.34375
1631290361718,-0.921875,-0.21875,0.328125
1631290361750,-0.921875,-0.21875,0.34375
1631290361781,-0.921875,-0.21875,0.34375
1631290361812,-0.921875,-0.21875,0.34375
1631290361843,-0.921875,-0.21875,0.328125
1631290361875,-0.921875,-0.21875,0.328125
1631290361906,-0.921875,-0.21875,0.34375
1631290361937,-0.921875,-0.21875,0.34375
1631290361968,-0.921875,-0.21875,0.34375
1631290362000,-0.921875,-0.21875,0.34375
1631290362031,-0.921875,-0.21875,0.328125
1631290362062,-0.921875,-0.21875,0.34375
1631290362093,-0.921875,-0.21875,0.34375
1631290362125,-0.921875,-0.21875,0.34375
1631290362156,-0.921875,-0.21875,0.34375
1631290362187,-0.921875,-0.21875,0.328125
1631290362218,-0.921875,-0.21875,0.34375
1631290362250,-0.921875,-0.21875,0.34375
1631290362281,-0.921875,-0.21875,0.34375
1631290362312,-0.921875,-0.21875,0.34375
1631290362343,-0.921875,-0.21875,0.34375
1631290362375,-0.921875,-0.21875,0.34375
1631290362406,-0.921875,-0.21875,0.34375
1631290362437,-0.90625,-0.21875,0.34375
1631290362468,-0.921875,-0.21875,0.34375
1631290362500,-0.921875,-0.21875,0.34375
1631290362531,-0.90625,-0.21875,0.34375
1631290362562,-0.921875,-0.21875,0.34375
1631290362593,-0.921875,-0.21875,0.328125
1631290362625,-0.921875,-0.21875,0.34375
1631290362656,-0.921875,-0.21875,0.34375
1631290362687,-0.921875,-0.21875,0.34375
1631290362718,-0.921875,-0.21875,0.328125
1631290362750,-0.921875,-0.21875,0.34375
1631290362781,-0.921875,-0.21875,0.34375
1631290362812,-0.921875,-0.21875,0.34375
1631290362843,-0.921875,-0.21875,0.34375
1631290362875,-0.921875,-0.21875,0.34375
1631290362906,-0.921875,-0.21875,0.34375
1631290362937,-0.921875,-0.21875,0.34375
1631290362968,-0.921875,-0.21875,0.34375
1631290363000,-0.921875,-0.21875,0.34375
1631290363031,-0.921875,-0.21875,0.34375
1631290363062,-0.921875,-0.21875,0.34375
1631290363093,-0.921875,-0.21875,0.328125
1631290363125,-0.921875,-0.21875,0.34375
1631290363156,-0.921875,-0.21875,0.34375
1631290363187,-0.90625,-0.21875,0.34375
1631290363218,-0.921875,-0.21875,0.34375
1631290363250,-0.921875,-0.21875,0.34375
1631290363281,-0.921875,-0.21875,0.34375
1631290363312,-0.921875,-0.21875,0.34375
1631290363343,-0.90625,-0.21875,0.34375
1631290363375,-0.921875,-0.21875,0.34375
1631290363406,-0.90625,-0.21875,0.34375
1631290363437,-0.90625,-0.21875,0.34375
1631290363468,-0.921875,-0.21875,0.34375
1631290363500,-0.921875,-0.21875,0.34375
1631290363531,-0.921875,-0.21875,0.34375
1631290363562,-0.921875,-0.21875,0.34375
1631290363593,-0.90625,-0.21875,0.34375
1631290363625,-0.921875,-0.21875,0.34375
1631290363656,-0.921875,-0.21875,0.34375
1631290363687,-0.921875,-0.21875,0.34375
1631290363718,-0.921875,-0.21875,0.34375
1631290363750,-0.921875,-0.21875,0.34375
1631290363781,-0.921875,-0.21875,0.34375
1631290363812,-0.921875,-0.21875,0.34375
1631290363843,-0.90625,-0.21875,0.34375
1631290363875,-0.921875,-0.21875,0.328125
1631290363906,-0.921875,-0.21875,0.34375
1631290363937,-0.921875,-0.21875,0.34375
1631290363968,-0.921875,-0.21875,0.34375
1631290364000,-0.921875,-0.21875,0.34375
1631290364031,-0.921875,-0.21875,0.34375
1631290364062,-0.921875,-0.21875,0.34375
1631290364093,-0.90625,-0.21875,0.34375
1631290364125,-0.921875,-0.21875,0.34375
1631290364156,-0.921875,-0.21875,0.34375
1631290364187,-0.90625,-0.21875,0.34375
1631290364218,-0.90625,-0.21875,0.34375
1631290364250,-0.921875,-0.21875,0.34375
1631290364281,-0.90625,-0.21875,0.34375
1631290364312,-0.90625,-0.21875,0.34375
1631290364343,-0.921875,-0.21875,0.328125
1631290364375,-0.921875,-0.21875,0.34375
1631290364406,-0.921875,-0.21875,0.34375
1631290364437,-0.921875,-0.21875,0.34375
1631290364468,-0.921875,-0.21875,0.34375
1631290364500,-0.921875,-0.21875,0.34375
1631290364531,-0.921875,-0.21875,0.328125
1631290364562,-0.921875,-0.21875,0.34375
1631290364593,-0.921875,-0.21875,0.34375
1631290364625,-0.921875,-0.21875,0.34375
1631290364656,-0.921875,-0.21875,0.34375
1631290364687,-0.921875,-0.21875,0.34375
1631290364718,-0.921875,-0.21875,0.34375
1631290364750,-0.921875,-0.21875,0.34375
1631290364781,-0.921875,-0.21875,0.34375
1631290364812,-0.921875,-0.21875,0.34375
1631290364843,-0.921875,-0.21875,0.34375
1631290364875,-0.921875,-0.21875,0.34375
1631290364906,-0.921875,-0.21875,0.34375
1631290364937,-0.921875,-0.21875,0.34375
1631290364968,-0.921875,-0.21875,0.34375
1631290365000,-0.921875,-0.21875,0.34375
1631290365031,-0.921875,-0.21875,0.328125
1631290365062,-0.90625,-0.21875,0.34375
1631290365093,-0.921875,-0.21875,0.34375
1631290365125,-0.921875,-0.21875,0.34375
1631290365156,-0.90625,-0.21875,0.34375
1631290365187,-0.921875,-0.21875,0.34375
1631290365218,-0.921875,-0.21875,0.34375
1631290365250,-0.921875,-0.21875,0.34375
1631290365281,-0.921875,-0.21875,0.34375
1631290365312,-0.921875,-0.21875,0.34375
1631290365343,-0.921875,-0.21875,0.34375
1631290365375,-0.921875,-0.21875,0.34375
1631290365406,-0.921875,-0.21875,0.34375
1631290365437,-0.921875,-0.21875,0.34375
1631290365468,-0.90625,-0.21875,0.34375
1631290365500,-0.921875,-0.21875,0.34375
1631290365531,-0.921875,-0.21875,0.328125
1631290365562,-0.921875,-0.21875,0.34375
1631290365593,-0.921875,-0.21875,0.34375
1631290365625,-0.921875,-0.21875,0.328125
1631290365656,-0.921875,-0.21875,0.34375
1631290365687,-0.921875,-0.21875,0.34375
1631290365718,-0.921875,-0.21875,0.34375
1631290365750,-0.921875,-0.21875,0.34375
1631290365781,-0.921875,-0.21875,0.34375
1631290365812,-0.921875,-0.21875,0.34375
1631290365843,-0.921875,-0.21875,0.34375
1631290365875,-0.921875,-0.21875,0.34375
1631290365906,-0.921875,-0.21875,0.34375
1631290365937,-0.921875,-0.21875,0.34375
1631290365968,-0.90625,-0.21875,0.34375
1631290366000,-0.921875,-0.21875,0.328125
1631290366031,-0.90625,-0.21875,0.34375
1631290366062,-0.921875,-0.21875,0.34375
1631290366093,-0.921875,-0.21875,0.328125
1631290366125,-0.921875,-0.21875,0.34375
1631290366156,-0.921875,-0.21875,0.34375
1631290366187,-0.921875,-0.21875,0.34375
1631290366218,-0.921875,-0.21875,0.34375
1631290366250,-0.921875,-0.21875,0.34375
1631290366281,-0.921875,-0.21875,0.34375
1631290366312,-0.921875,-0.21875,0.34375
1631290366343,-0.921875,-0.21875,0.34375
1631290366375,-0.921875,-0.21875,0.34375
1631290366406,-0.921875,-0.21875,0.328125
1631290366437,-0.921875,-0.21875,0.34375
1631290366468,-0.921875,-0.21875,0.34375
1631290366500,-0.921875,-0.21875,0.34375
1631290366531,-0.921875,-0.21875,0.34375
1631290366562,-0.921875,-0.21875,0.34375
1631290366593,-0.921875,-0.21875,0.34375
1631290366625,-0.921875,-0.21875,0.34375
1631290366656,-0.90625,-0.21875,0.34375
1631290366687,-0.921875,-0.21875,0.34375
1631290366718,-0.90625,-0.21875,0.34375
1631290366750,-0.921875,-0.21875,0.34375
1631290366781,-0.921875,-0.21875,0.34375
1631290366812,-0.921875,-0.21875,0.328125
1631290366843,-0.90625,-0.21875,0.34375
1631290366875,-0.921875,-0.21875,0.328125
1631290366906,-0.90625,-0.21875,0.34375
1631290366937,-0.90625,-0.21875,0.34375
1631290366968,-0.921875,-0.21875,0.34375
1631290367000,-0.921875,-0.21875,0.34375
1631290367031,-0.921875,-0.21875,0.34375
1631290367062,-0.921875,-0.21875,0.34375
1631290367093,-0.921875,-0.21875,0.34375
1631290367125,-0.921875,-0.21875,0.34375
1631290367156,-0.921875,-0.21875,0.34375
1631290367187,-0.921875,-0.21875,0.34375
1631290367218,-0.921875,-0.21875,0.34375
1631290367250,-0.921875,-0.21875,0.34375
1631290367281,-0.921875,-0.21875,0.34375
1631290367312,-0.921875,-0.21875,0.34375
1631290367343,-0.921875,-0.21875,0.34375
1631290367375,-0.921875,-0.21875,0.34375
1631290367406,-0.921875,-0.234375,0.34375
1631290367437,-0.921875,-0.21875,0.328125
1631290367468,-0.90625,-0.21875,0.34375
1631290367500,-0.90625,-0.21875,0.34375
1631290367531,-0.921875,-0.21875,0.34375
1631290367562,-0.90625,-0.21875,0.34375
1631290367593,-0.921875,-0.21875,0.34375
1631290367625,-0.921875,-0.21875,0.34375
1631290367656,-0.921875,-0.21875,0.328125
1631290367687,-0.90625,-0.21875,0.34375
1631290367718,-0.921875,-0.21875,0.328125
1631290367750,-0.90625,-0.21875,0.34375
1631290367781,-0.90625,-0.21875,0.34375
1631290367812,-0.921875,-0.21875,0.34375
1631290367843,-0.921875,-0.21875,0.34375
1631290367875,-0.921875,-0.21875,0.34375
1631290367906,-0.921875,-0.21875,0.34375
1631290367937,-0.90625,-0.21875,0.34375
1631290367968,-0.90625,-0.21875,0.34375
1631290368000,-0.90625,-0.21875,0.34375
1631290368031,-0.90625,-0.21875,0.34375
1631290368062,-0.921875,-0.21875,0.34375
1631290368093,-0.921875,-0.21875,0.34375
1631290368125,-0.921875,-0.21875,0.34375
1631290368156,-0.921875,-0.21875,0.34375
1631290368187,-0.921875,-0.21875,0.34375
1631290368218,-0.921875,-0.21875,0.34375
1631290368250,-0.90625,-0.21875,0.34375
1631290368281,-0.921875,-0.21875,0.34375
1631290368312,-0.90625,-0.21875,0.34375
1631290368343,-0.921875,-0.21875,0.34375
1631290368375,-0.921875,-0.21875,0.34375
1631290368406,-0.921875,-0.21875,0.34375
1631290368437,-0.921875,-0.21875,0.328125
1631290368468,-0.921875,-0.21875,0.328125
1631290368500,-0.90625,-0.21875,0.34375
1631290368531,-0.90625,-0.21875,0.359375
1631290368562,-0.921875,-0.21875,0.34375
1631290368593,-0.921875,-0.21875,0.34375
1631290368625,-0.921875,-0.21875,0.34375
1631290368656,-0.921875,-0.21875,0.34375
1631290368687,-0.921875,-0.21875,0.34375
1631290368718,-0.921875,-0.21875,0.34375
1631290368750,-0.90625,-0.21875,0.34375
1631290368781,-0.921875,-0.21875,0.34375
1631290368812,-0.90625,-0.21875,0.34375
1631290368843,-0.921875,-0.21875,0.328125
1631290368875,-0.921875,-0.21875,0.328125
1631290368906,-0.921875,-0.21875,0.34375
1631290368937,-0.921875,-0.21875,0.34375
1631290368968,-0.921875,-0.21875,0.34375
1631290369000,-0.921875,-0.21875,0.34375
1631290369031,-0.921875,-0.21875,0.34375
1631290369062,-0.921875,-0.21875,0.34375
1631290369093,-0.921875,-0.21875,0.34375
1631290369125,-0.921875,-0.21875,0.328125
1631290369156,-0.90625,-0.21875,0.34375
1631290369187,-0.921875,-0.21875,0.34375
1631290369218,-0.921875,-0.21875,0.34375
1631290369250,-0.921875,-0.21875,0.34375
1631290369281,-0.921875,-0.21875,0.328125
1631290369312,-0.921875,-0.21875,0.34375
1631290369343,-0.90625,-0.21875,0.34375
1631290369375,-0.90625,-0.21875,0.34375
1631290369406,-0.921875,-0.21875,0.34375
1631290369437,-0.90625,-0.21875,0.34375
1631290369468,-0.921875,-0.21875,0.328125
1631290369500,-0.90625,-0.21875,0.34375
1631290369531,-0.90625,-0.21875,0.34375
1631290369562,-0.921875,-0.21875,0.34375
1631290369593,-0.90625,-0.21875,0.34375
1631290369625,-0.921875,-0.21875,0.34375
1631290369656,-0.921875,-0.21875,0.328125
1631290369687,-0.921875,-0.21875,0.328125
1631290369718,-0.921875,-0.21875,0.328125
1631290369750,-0.921875,-0.21875,0.328125
1631290369781,-0.921875,-0.21875,0.34375
1631290369812,-0.9375,-0.21875,0.328125
1631290369843,-0.90625,-0.21875,0.34375
1631290369875,-0.921875,-0.21875,0.34375
1631290369906,-0.921875,-0.21875,0.34375
1631290369937,-0.90625,-0.21875,0.34375
1631290369968,-0.921875,-0.21875,0.328125
1631290370000,-0.921875,-0.21875,0.34375
1631290370031,-0.921875,-0.21875,0.328125
1631290370062,-0.921875,-0.21875,0.328125
1631290370093,-0.90625,-0.21875,0.34375
1631290370125,-0.90625,-0.21875,0.34375
1631290370156,-0.921875,-0.21875,0.34375
1631290370187,-0.921875,-0.21875,0.34375
1631290370218,-0.921875,-0.21875,0.34375
1631290370250,-0.90625,-0.21875,0.34375
1631290370281,-0.921875,-0.21875,0.34375
1631290370312,-0.921875,-0.21875,0.328125
1631290370343,-0.921875,-0.21875,0.328125
1631290370375,-0.921875,-0.21875,0.328125
1631290370406,-0.921875,-0.21875,0.34375
1631290370437,-0.921875,-0.21875,0.34375
1631290370468,-0.921875,-0.21875,0.34375
1631290370500,-0.921875,-0.21875,0.34375
1631290370531,-0.921875,-0.21875,0.34375
1631290370562,-0.921875,-0.21875,0.34375
1631290370593,-0.921875,-0.21875,0.34375
1631290370625,-0.921875,-0.21875,0.34375
1631290370656,-0.921875,-0.21875,0.34375
1631290370687,-0.921875,-0.21875,0.34375
1631290370718,-0.921875,-0.21875,0.34375
1631290370750,-0.921875,-0.21875,0.34375
1631290370781,-0.921875,-0.21875,0.34375
1631290370812,-0.921875,-0.21875,0.34375
1631290370843,-0.921875,-0.21875,0.34375
1631290370875,-0.90625,-0.21875,0.34375
1631290370906,-0.90625,-0.21875,0.34375
1631290370937,-0.921875,-0.21875,0.34375
1631290370968,-0.921875,-0.21875,0.34375
1631290371000,-0.9375,-0.21875,0.328125
1631290371031,-0.90625,-0.21875,0.34375
1631290371062,-0.90625,-0.21875,0.34375
1631290371093,-0.921875,-0.21875,0.34375
1631290371125,-0.921875,-0.21875,0.34375
1631290371156,-0.921875,-0.21875,0.34375
1631290371187,-0.90625,-0.21875,0.34375
1631290371218,-0.921875,-0.21875,0.328125
1631290371250,-0.921875,-0.21875,0.34375
1631290371281,-0.90625,-0.21875,0.34375
1631290371312,-0.921875,-0.21875,0.34375
1631290371343,-0.921875,-0.21875,0.34375
1631290371375,-0.921875,-0.21875,0.34375
1631290371406,-0.921875,-0.21875,0.34375
1631290371437,-0.921875,-0.21875,0.34375
1631290371468,-0.921875,-0.21875,0.34375
1631290371500,-0.921875,-0.21875,0.328125
1631290371531,-0.921875,-0.21875,0.328125
1631290371562,-0.921875,-0.21875,0.34375
1631290371593,-0.921875,-0.21875,0.328125
1631290371625,-0.921875,-0.21875,0.34375
1631290371656,-0.921875,-0.21875,0.34375
1631290371687,-0.921875,-0.21875,0.34375
1631290371718,-0.921875,-0.21875,0.328125
1631290371750,-0.921875,-0.21875,0.34375
1631290371781,-0.921875,-0.21875,0.34375
1631290371812,-0.921875,-0.21875,0.34375
1631290371843,-0.921875,-0.21875,0.34375
1631290371875,-0.921875,-0.21875,0.34375
1631290371906,-0.921875,-0.21875,0.328125
1631290371937,-0.921875,-0.21875,0.328125
1631290371968,-0.921875,-0.21875,0.34375
1631290372000,-0.921875,-0.21875,0.34375
1631290372031,-0.921875,-0.21875,0.328125
1631290372062,-0.921875,-0.21875,0.328125
1631290372093,-0.90625,-0.21875,0.34375
1631290372125,-0.90625,-0.21875,0.34375
1631290372156,-0.921875,-0.21875,0.328125
1631290372187,-0.90625,-0.21875,0.34375
1631290372218,-0.90625,-0.21875,0.34375
1631290372250,-0.921875,-0.21875,0.328125
1631290372281,-0.921875,-0.21875,0.328125
1631290372312,-0.921875,-0.21875,0.328125
1631290372343,-0.921875,-0.21875,0.34375
1631290372375,-0.921875,-0.21875,0.328125
1631290372406,-0.921875,-0.21875,0.34375
1631290372437,-0.921875,-0.21875,0.328125
1631290372468,-0.921875,-0.21875,0.328125
1631290372500,-0.90625,-0.21875,0.34375
1631290372531,-0.90625,-0.21875,0.34375
1631290372562,-0.921875,-0.21875,0.34375
1631290372593,-0.921875,-0.21875,0.34375
1631290372625,-0.921875,-0.21875,0.328125
1631290372656,-0.921875,-0.21875,0.328125
1631290372687,-0.921875,-0.21875,0.328125
1631290372718,-0.90625,-0.21875,0.359375
1631290372750,-0.921875,-0.21875,0.328125
1631290372781,-0.921875,-0.21875,0.34375
1631290372812,-0.921875,-0.21875,0.34375
1631290372843,-0.921875,-0.21875,0.34375
1631290372875,-0.90625,-0.21875,0.34375
1631290372906,-0.90625,-0.21875,0.34375
1631290372937,-0.90625,-0.21875,0.34375
1631290372968,-0.921875,-0.21875,0.328125
1631290373000,-0.921875,-0.21875,0.328125
1631290373031,-0.90625,-0.21875,0.328125
1631290373062,-0.921875,-0.21875,0.328125
1631290373093,-0.921875,-0.21875,0.328125
1631290373125,-0.921875,-0.21875,0.328125
1631290373156,-0.921875,-0.21875,0.328125
1631290373187,-0.921875,-0.21875,0.34375
1631290373218,-0.921875,-0.21875,0.34375
1631290373250,-0.9375,-0.21875,0.3125
1631290373281,-0.90625,-0.21875,0.359375
1631290373312,-0.90625,-0.21875,0.359375
1631290373343,-0.921875,-0.21875,0.34375
1631290373375,-0.90625,-0.21875,0.328125
1631290373406,-0.921875,-0.21875,0.328125
1631290373437,-0.921875,-0.21875,0.328125
1631290373468,-0.921875,-0.21875,0.328125
1631290373500,-0.90625,-0.21875,0.34375
1631290373531,-0.921875,-0.21875,0.34375
1631290373562,-0.921875,-0.21875,0.34375
1631290373593,-0.921875,-0.21875,0.34375
1631290373625,-0.90625,-0.21875,0.34375
1631290373656,-0.90625,-0.21875,0.34375
1631290373687,-0.921875,-0.21875,0.34375
1631290373718,-0.90625,-0.21875,0.34375
1631290373750,-0.921875,-0.21875,0.328125
1631290373781,-0.921875,-0.21875,0.34375
1631290373812,-0.90625,-0.21875,0.34375
1631290373843,-0.921875,-0.21875,0.328125
1631290373875,-0.921875,-0.21875,0.328125
1631290373906,-0.921875,-0.21875,0.328125
1631290373937,-0.921875,-0.21875,0.328125
1631290373968,-0.90625,-0.21875,0.34375
1631290374000,-0.921875,-0.21875,0.34375
1631290374031,-0.921875,-0.21875,0.328125
1631290374062,-0.921875,-0.21875,0.328125
1631290374093,-0.90625,-0.21875,0.34375
1631290374125,-0.90625,-0.21875,0.34375
1631290374156,-0.921875,-0.21875,0.34375
1631290374187,-0.953125,-0.21875,0.3125
1631290374218,-0.921875,-0.21875,0.328125
1631290374250,-0.890625,-0.21875,0.359375
1631290374281,-0.90625,-0.21875,0.359375
1631290374312,-0.921875,-0.21875,0.34375
1631290374343,-0.921875,-0.21875,0.328125
1631290374375,-0.921875,-0.21875,0.328125
1631290374406,-0.921875,-0.21875,0.34375
1631290374437,-0.90625,-0.21875,0.34375
1631290374468,-0.90625,-0.21875,0.34375
1631290374500,-0.921875,-0.21875,0.34375
1631290374531,-0.921875,-0.21875,0.34375
1631290374562,-0.921875,-0.21875,0.34375
1631290374593,-0.921875,-0.21875,0.328125
1631290374625,-0.921875,-0.21875,0.328125
1631290374656,-0.921875,-0.21875,0.328125
1631290374687,-0.921875,-0.21875,0.328125
1631290374718,-0.9375,-0.21875,0.3125
1631290374750,-0.90625,-0.21875,0.359375
1631290374781,-0.890625,-0.21875,0.359375
1631290374812,-0.921875,-0.21875,0.34375
1631290374843,-0.921875,-0.21875,0.34375
1631290374875,-0.90625,-0.21875,0.34375
1631290374906,-0.921875,-0.21875,0.328125
1631290374937,-0.921875,-0.21875,0.328125
1631290374968,-0.921875,-0.21875,0.328125
1631290375000,-0.921875,-0.21875,0.328125
1631290375031,-0.90625,-0.21875,0.34375
1631290375062,-0.90625,-0.21875,0.34375
1631290375093,-0.90625,-0.21875,0.34375
1631290375125,-0.90625,-0.21875,0.359375
1631290375156,-0.90625,-0.21875,0.34375
1631290375187,-0.921875,-0.21875,0.328125
1631290375218,-0.921875,-0.21875,0.328125
1631290375250,-0.921875,-0.21875,0.328125
1631290375281,-0.921875,-0.21875,0.328125
1631290375312,-0.921875,-0.21875,0.328125
1631290375343,-0.90625,-0.21875,0.34375
1631290375375,-0.921875,-0.21875,0.328125
1631290375406,-0.9375,-0.21875,0.328125
1631290375437,-0.90625,-0.21875,0.34375
1631290375468,-0.921875,-0.21875,0.34375
1631290375500,-0.921875,-0.21875,0.328125
1631290375531,-0.921875,-0.21875,0.3125
1631290375562,-0.9375,-0.21875,0.328125
1631290375593,-0.90625,-0.203125,0.34375
1631290375625,-0.90625,-0.21875,0.34375
1631290375656,-0.90625,-0.21875,0.34375
1631290375687,-0.921875,-0.21875,0.34375
1631290375718,-0.921875,-0.21875,0.34375
1631290375750,-0.90625,-0.21875,0.34375
1631290375781,-0.921875,-0.21875,0.328125
1631290375812,-0.921875,-0.21875,0.328125
1631290375843,-0.90625,-0.21875,0.34375
1631290375875,-0.921875,-0.21875,0.34375
1631290375906,-0.921875,-0.21875,0.34375
1631290375937,-0.921875,-0.21875,0.328125
1631290375968,-0.921875,-0.21875,0.328125
1631290376000,-0.921875,-0.203125,0.328125
1631290376031,-0.921875,-0.21875,0.328125
1631290376062,-0.921875,-0.21875,0.328125
1631290376093,-0.921875,-0.21875,0.328125
1631290376125,-0.9375,-0.21875,0.3125
1631290376156,-0.90625,-0.21875,0.359375
1631290376187,-0.90625,-0.21875,0.359375
1631290376218,-0.921875,-0.203125,0.34375
1631290376250,-0.90625,-0.21875,0.328125
1631290376281,-0.921875,-0.21875,0.328125
1631290376312,-0.921875,-0.21875,0.328125
1631290376343,-0.921875,-0.21875,0.34375
1631290376375,-0.921875,-0.21875,0.328125
1631290376406,-0.921875,-0.21875,0.34375
1631290376437,-0.90625,-0.21875,0.34375
1631290376468,-0.90625,-0.21875,0.34375
1631290376500,-0.90625,-0.21875,0.359375
1631290376531,-0.90625,-0.21875,0.34375
1631290376562,-0.921875,-0.21875,0.328125
1631290376593,-0.921875,-0.21875,0.359375
1631290376625,-0.921875,-0.21875,0.3125
1631290376656,-0.921875,-0.21875,0.328125
1631290376687,-0.921875,-0.21875,0.328125
1631290376718,-0.90625,-0.21875,0.34375
1631290376750,-0.90625,-0.21875,0.34375
1631290376781,-0.921875,-0.21875,0.34375
1631290376812,-0.921875,-0.21875,0.34375
1631290376843,-0.90625,-0.21875,0.34375
1631290376875,-0.921875,-0.21875,0.34375
1631290376906,-0.921875,-0.21875,0.34375
1631290376937,-0.921875,-0.21875,0.328125
1631290376968,-0.9375,-0.21875,0.328125
1631290377000,-0.90625,-0.21875,0.34375
1631290377031,-0.90625,-0.21875,0.359375
1631290377062,-0.921875,-0.21875,0.328125
1631290377093,-0.9375,-0.21875,0.328125
1631290377125,-0.890625,-0.21875,0.359375
1631290377156,-0.921875,-0.21875,0.34375
1631290377187,-0.90625,-0.21875,0.34375
1631290377218,-0.90625,-0.21875,0.34375
1631290377250,-0.921875,-0.21875,0.328125
1631290377281,-0.921875,-0.234375,0.328125
1631290377312,-0.921875,-0.234375,0.328125
1631290377343,-0.90625,-0.21875,0.34375
1631290377375,-0.921875,-0.21875,0.34375
1631290377406,-0.90625,-0.21875,0.34375
1631290377437,-0.921875,-0.234375,0.328125
1631290377468,-0.921875,-0.21875,0.328125
1631290377500,-0.90625,-0.21875,0.34375
1631290377531,-0.921875,-0.21875,0.328125
1631290377562,-0.921875,-0.234375,0.328125
1631290377593,-0.90625,-0.234375,0.34375
1631290377625,-0.90625,-0.21875,0.359375
1631290377656,-0.921875,-0.21875,0.34375
1631290377687,-0.921875,-0.21875,0.34375
1631290377718,-0.921875,-0.21875,0.328125
1631290377750,-0.9375,-0.21875,0.328125
1631290377781,-0.90625,-0.21875,0.359375
1631290377812,-0.890625,-0.21875,0.375
1631290377843,-0.921875,-0.21875,0.328125
1631290377875,-0.921875,-0.21875,0.328125
1631290377906,-0.921875,-0.21875,0.34375
1631290377937,-0.921875,-0.21875,0.328125
1631290377968,-0.921875,-0.21875,0.328125
1631290378000,-0.921875,-0.21875,0.328125
1631290378031,-0.921875,-0.21875,0.328125
1631290378062,-0.90625,-0.21875,0.34375
1631290378093,-0.921875,-0.21875,0.34375
1631290378125,-0.90625,-0.21875,0.34375
1631290378156,-0.921875,-0.21875,0.328125
1631290378187,-0.921875,-0.21875,0.328125
1631290378218,-0.921875,-0.21875,0.34375
1631290378250,-0.921875,-0.21875,0.328125
1631290378281,-0.921875,-0.21875,0.328125
1631290378312,-0.921875,-0.21875,0.328125
1631290378343,-0.9375,-0.21875,0.328125
1631290378375,-0.90625,-0.21875,0.34375
1631290378406,-0.90625,-0.21875,0.359375
1631290378437,-0.921875,-0.21875,0.34375
1631290378468,-0.921875,-0.21875,0.328125
1631290378500,-0.953125,-0.234375,0.3125
1631290378531,-0.921875,-0.21875,0.328125
1631290378562,-0.890625,-0.21875,0.359375
1631290378593,-0.90625,-0.21875,0.359375
1631290378625,-0.921875,-0.21875,0.34375
1631290378656,-0.90625,-0.21875,0.34375
1631290378687,-0.921875,-0.21875,0.328125
1631290378718,-0.921875,-0.21875,0.34375
1631290378750,-0.90625,-0.21875,0.34375
1631290378781,-0.90625,-0.21875,0.34375
1631290378812,-0.90625,-0.21875,0.34375
1631290378843,-0.921875,-0.21875,0.328125
1631290378875,-0.921875,-0.21875,0.34375
1631290378906,-0.921875,-0.21875,0.34375
1631290378937,-0.921875,-0.21875,0.328125
1631290378968,-0.921875,-0.21875,0.328125
1631290379000,-0.921875,-0.21875,0.328125
1631290379031,-0.921875,-0.21875,0.328125
1631290379062,-0.921875,-0.21875,0.328125
1631290379093,-0.921875,-0.21875,0.328125
1631290379125,-0.90625,-0.21875,0.34375
1631290379156,-0.890625,-0.21875,0.359375
1631290379187,-0.921875,-0.21875,0.359375
1631290379218,-0.90625,-0.203125,0.34375
1631290379250,-0.90625,-0.21875,0.34375
1631290379281,-0.9375,-0.21875,0.3125
1631290379312,-0.921875,-0.21875,0.3125
1631290379343,-0.921875,-0.21875,0.328125
1631290379375,-0.921875,-0.21875,0.328125
1631290379406,-0.9375,-0.21875,0.328125
1631290379437,-0.90625,-0.21875,0.359375
1631290379468,-0.90625,-0.21875,0.359375
1631290379500,-0.921875,-0.21875,0.34375
1631290379531,-0.90625,-0.21875,0.34375
1631290379562,-0.90625,-0.21875,0.34375
1631290379593,-0.921875,-0.21875,0.328125
1631290379625,-0.9375,-0.21875,0.3125
1631290379656,-0.921875,-0.21875,0.328125
1631290379687,-0.921875,-0.21875,0.328125
1631290379718,-0.921875,-0.21875,0.328125
1631290379750,-0.921875,-0.21875,0.34375
1631290379781,-0.90625,-0.21875,0.328125
1631290379812,-0.921875,-0.21875,0.328125
1631290379843,-0.90625,-0.21875,0.34375
1631290379875,-0.890625,-0.21875,0.359375
1631290379906,-0.921875,-0.21875,0.34375
1631290379937,-0.921875,-0.21875,0.3125
1631290379968,-0.953125,-0.21875,0.296875
1631290380000,-0.90625,-0.21875,0.34375
1631290380031,-0.90625,-0.21875,0.359375
1631290380062,-0.921875,-0.21875,0.34375
1631290380093,-0.921875,-0.21875,0.34375
1631290380125,-0.9375,-0.21875,0.328125
1631290380156,-0.921875,-0.21875,0.34375
1631290380187,-0.921875,-0.21875,0.34375
1631290380218,-0.90625,-0.21875,0.34375
1631290380250,-0.90625,-0.21875,0.34375
1631290380281,-0.921875,-0.21875,0.34375
1631290380312,-0.90625,-0.21875,0.359375
1631290380343,-0.921875,-0.21875,0.34375
1631290380375,-0.921875,-0.21875,0.328125
1631290380406,-0.921875,-0.21875,0.328125
1631290380437,-0.921875,-0.21875,0.328125
1631290380468,-0.921875,-0.21875,0.328125
1631290380500,-0.921875,-0.21875,0.34375
1631290380531,-0.90625,-0.234375,0.34375
1631290380562,-0.90625,-0.21875,0.34375
1631290380593,-0.921875,-0.21875,0.328125
1631290380625,-0.90625,-0.234375,0.328125
1631290380656,-0.921875,-0.234375,0.328125
1631290380687,-0.921875,-0.21875,0.328125
1631290380718,-0.921875,-0.21875,0.34375
1631290380750,-0.921875,-0.21875,0.328125
1631290380781,-0.921875,-0.21875,0.328125
1631290380812,-0.90625,-0.21875,0.34375
1631290380843,-0.90625,-0.21875,0.34375
1631290380875,-0.921875,-0.21875,0.34375
1631290380906,-0.90625,-0.21875,0.34375
1631290380937,-0.921875,-0.21875,0.328125
1631290380968,-0.921875,-0.21875,0.328125
1631290381000,-0.921875,-0.21875,0.34375
1631290381031,-0.921875,-0.21875,0.328125
1631290381062,-0.921875,-0.21875,0.328125
1631290381093,-0.921875,-0.21875,0.328125
1631290381125,-0.921875,-0.21875,0.328125
1631290381156,-0.921875,-0.21875,0.328125
1631290381187,-0.921875,-0.21875,0.34375
1631290381218,-0.921875,-0.21875,0.328125
1631290381250,-0.921875,-0.21875,0.328125
1631290381281,-0.9375,-0.21875,0.328125
1631290381312,-0.90625,-0.21875,0.34375
1631290381343,-0.90625,-0.21875,0.34375
1631290381375,-0.921875,-0.21875,0.328125
1631290381406,-0.921875,-0.21875,0.328125
1631290381437,-0.90625,-0.21875,0.34375
1631290381468,-0.921875,-0.21875,0.34375
1631290381500,-0.921875,-0.21875,0.34375
1631290381531,-0.90625,-0.21875,0.34375
1631290381562,-0.921875,-0.21875,0.328125
1631290381593,-0.921875,-0.21875,0.328125
1631290381625,-0.90625,-0.21875,0.359375
1631290381656,-0.921875,-0.21875,0.3125
1631290381687,-0.9375,-0.21875,0.3125
1631290381718,-0.9375,-0.21875,0.3125
1631290381750,-0.921875,-0.21875,0.328125
1631290381781,-0.921875,-0.21875,0.328125
1631290381812,-0.921875,-0.21875,0.328125
1631290381843,-0.90625,-0.21875,0.34375
1631290381875,-0.90625,-0.21875,0.34375
1631290381906,-0.921875,-0.21875,0.34375
1631290381937,-0.921875,-0.21875,0.328125
1631290381968,-0.90625,-0.21875,0.328125
1631290382000,-0.921875,-0.21875,0.328125
1631290382031,-0.921875,-0.21875,0.328125
1631290382062,-0.921875,-0.21875,0.328125
1631290382093,-0.921875,-0.21875,0.34375
1631290382125,-0.90625,-0.21875,0.34375
1631290382156,-0.921875,-0.21875,0.34375
1631290382187,-0.921875,-0.21875,0.34375
1631290382218,-0.90625,-0.21875,0.34375
1631290382250,-0.90625,-0.21875,0.34375
1631290382281,-0.921875,-0.21875,0.328125
1631290382312,-0.921875,-0.21875,0.328125
1631290382343,-0.921875,-0.21875,0.328125
1631290382375,-0.921875,-0.21875,0.328125
1631290382406,-0.921875,-0.21875,0.34375
1631290382437,-0.921875,-0.21875,0.328125
1631290382468,-0.921875,-0.21875,0.328125
1631290382500,-0.90625,-0.21875,0.359375
1631290382531,-0.921875,-0.21875,0.34375
1631290382562,-0.921875,-0.21875,0.328125
1631290382593,-0.90625,-0.21875,0.34375
1631290382625,-0.9375,-0.21875,0.3125
1631290382656,-0.921875,-0.21875,0.34375
1631290382687,-0.90625,-0.21875,0.359375
1631290382718,-0.90625,-0.21875,0.34375
1631290382750,-0.921875,-0.21875,0.34375
1631290382781,-0.921875,-0.21875,0.328125
1631290382812,-0.921875,-0.21875,0.34375
1631290382843,-0.9375,-0.21875,0.328125
1631290382875,-0.90625,-0.21875,0.34375
1631290382906,-0.90625,-0.21875,0.34375
1631290382937,-0.90625,-0.21875,0.34375
1631290382968,-0.921875,-0.21875,0.328125
1631290383000,-0.921875,-0.21875,0.3125
1631290383031,-0.921875,-0.21875,0.328125
1631290383062,-0.921875,-0.21875,0.328125
1631290383093,-0.921875,-0.21875,0.328125
1631290383125,-0.921875,-0.21875,0.328125
1631290383156,-0.90625,-0.21875,0.34375
1631290383187,-0.90625,-0.21875,0.359375
1631290383218,-0.921875,-0.21875,0.34375
1631290383250,-0.921875,-0.21875,0.328125
1631290383281,-0.921875,-0.234375,0.328125
1631290383312,-0.921875,-0.21875,0.328125
1631290383343,-0.921875,-0.21875,0.328125
1631290383375,-0.921875,-0.21875,0.328125
1631290383406,-0.921875,-0.21875,0.328125
1631290383437,-0.921875,-0.21875,0.34375
1631290383468,-0.90625,-0.21875,0.34375
1631290383500,-0.921875,-0.21875,0.34375
1631290383531,-0.90625,-0.21875,0.34375
1631290383562,-0.921875,-0.21875,0.34375
1631290383593,-0.921875,-0.21875,0.328125
1631290383625,-0.921875,-0.234375,0.328125
1631290383656,-0.921875,-0.21875,0.328125
1631290383687,-0.9375,-0.21875,0.3125
1631290383718,-0.90625,-0.21875,0.34375
1631290383750,-0.921875,-0.21875,0.34375
1631290383781,-0.921875,-0.21875,0.34375
1631290383812,-0.90625,-0.21875,0.34375
1631290383843,-0.9375,-0.234375,0.3125
1631290383875,-0.921875,-0.234375,0.328125
1631290383906,-0.90625,-0.21875,0.34375
1631290383937,-0.90625,-0.21875,0.34375
1631290383968,-0.921875,-0.21875,0.328125
1631290384000,-0.921875,-0.21875,0.328125
1631290384031,-0.90625,-0.21875,0.34375
1631290384062,-0.921875,-0.21875,0.34375
1631290384093,-0.921875,-0.21875,0.34375
1631290384125,-0.90625,-0.21875,0.34375
1631290384156,-0.921875,-0.21875,0.34375
1631290384187,-0.9375,-0.21875,0.3125
1631290384218,-0.921875,-0.21875,0.3125
1631290384250,-0.921875,-0.21875,0.328125
1631290384281,-0.921875,-0.21875,0.328125
1631290384312,-0.921875,-0.21875,0.328125
1631290384343,-0.921875,-0.21875,0.328125
1631290384375,-0.90625,-0.234375,0.34375
1631290384406,-0.90625,-0.21875,0.359375
1631290384437,-0.921875,-0.203125,0.34375
1631290384468,-0.90625,-0.21875,0.328125
1631290384500,-0.90625,-0.21875,0.328125
1631290384531,-0.921875,-0.21875,0.328125
1631290384562,-0.921875,-0.21875,0.328125
1631290384593,-0.921875,-0.21875,0.328125
1631290384625,-0.921875,-0.21875,0.328125
1631290384656,-0.90625,-0.21875,0.34375
1631290384687,-0.921875,-0.21875,0.34375
1631290384718,-0.90625,-0.21875,0.34375
1631290384750,-0.90625,-0.21875,0.34375
1631290384781,-0.921875,-0.21875,0.328125
1631290384812,-0.921875,-0.21875,0.328125
1631290384843,-0.921875,-0.21875,0.328125
1631290384875,-0.921875,-0.21875,0.328125
1631290384906,-0.921875,-0.21875,0.328125
1631290384937,-0.953125,-0.21875,0.3125
1631290384968,-0.890625,-0.21875,0.359375
1631290385000,-0.90625,-0.21875,0.34375
1631290385031,-0.921875,-0.21875,0.34375
1631290385062,-0.921875,-0.21875,0.328125
1631290385093,-0.9375,-0.21875,0.328125
1631290385125,-0.921875,-0.21875,0.328125
1631290385156,-0.90625,-0.21875,0.34375
1631290385187,-0.90625,-0.21875,0.34375
1631290385218,-0.921875,-0.21875,0.34375
1631290385250,-0.90625,-0.21875,0.328125
1631290385281,-0.921875,-0.21875,0.328125
1631290385312,-0.921875,-0.21875,0.328125
1631290385343,-0.90625,-0.21875,0.34375
1631290385375,-0.90625,-0.21875,0.34375
1631290385406,-0.921875,-0.21875,0.34375
1631290385437,-0.921875,-0.21875,0.328125
1631290385468,-0.921875,-0.21875,0.328125
1631290385500,-0.90625,-0.21875,0.34375
1631290385531,-0.921875,-0.21875,0.328125
1631290385562,-0.921875,-0.21875,0.328125
1631290385593,-0.9375,-0.21875,0.328125
1631290385625,-0.921875,-0.21875,0.328125
1631290385656,-0.921875,-0.21875,0.328125
1631290385687,-0.921875,-0.21875,0.328125
1631290385718,-0.90625,-0.21875,0.34375
1631290385750,-0.90625,-0.21875,0.34375
1631290385781,-0.921875,-0.21875,0.3125
1631290385812,-0.90625,-0.21875,0.34375
1631290385843,-0.921875,-0.21875,0.34375
1631290385875,-0.921875,-0.21875,0.328125
1631290385906,-0.921875,-0.21875,0.328125
1631290385937,-0.921875,-0.21875,0.328125
1631290385968,-0.921875,-0.21875,0.328125
1631290386000,-0.921875,-0.21875,0.328125
1631290386031,-0.9375,-0.21875,0.328125
1631290386062,-0.90625,-0.21875,0.359375
1631290386093,-0.90625,-0.21875,0.34375
1631290386125,-0.921875,-0.21875,0.34375
1631290386156,-0.90625,-0.21875,0.34375
1631290386187,-0.921875,-0.21875,0.328125
1631290386218,-0.921875,-0.21875,0.328125
1631290386250,-0.921875,-0.21875,0.328125
1631290386281,-0.921875,-0.21875,0.328125
1631290386312,-0.921875,-0.21875,0.328125
1631290386343,-0.921875,-0.21875,0.328125
1631290386375,-0.921875,-0.21875,0.328125
1631290386406,-0.90625,-0.21875,0.34375
1631290386437,-0.921875,-0.21875,0.34375
1631290386468,-0.921875,-0.21875,0.34375
1631290386500,-0.921875,-0.21875,0.328125
1631290386531,-0.9375,-0.21875,0.3125
1631290386562,-0.890625,-0.21875,0.34375
1631290386593,-0.90625,-0.21875,0.34375
1631290386625,-0.921875,-0.21875,0.328125
1631290386656,-0.921875,-0.234375,0.328125
1631290386687,-0.90625,-0.234375,0.34375
1631290386718,-0.921875,-0.21875,0.34375
1631290386750,-0.921875,-0.21875,0.34375
1631290386781,-0.90625,-0.21875,0.34375
1631290386812,-0.90625,-0.21875,0.34375
1631290386843,-0.921875,-0.21875,0.328125
1631290386875,-0.921875,-0.21875,0.3125
1631290386906,-0.921875,-0.21875,0.328125
1631290386937,-0.921875,-0.21875,0.328125
1631290386968,-0.921875,-0.21875,0.328125
1631290387000,-0.921875,-0.21875,0.328125
1631290387031,-0.9375,-0.234375,0.3125
1631290387062,-0.921875,-0.21875,0.328125
1631290387093,-0.890625,-0.21875,0.359375
1631290387125,-0.921875,-0.21875,0.328125
1631290387156,-0.921875,-0.21875,0.328125
1631290387187,-0.90625,-0.21875,0.34375
1631290387218,-0.921875,-0.21875,0.328125
1631290387250,-0.921875,-0.21875,0.328125
1631290387281,-0.921875,-0.21875,0.34375
1631290387312,-0.90625,-0.21875,0.34375
1631290387343,-0.921875,-0.21875,0.328125
1631290387375,-0.921875,-0.21875,0.328125
1631290387406,-0.90625,-0.21875,0.34375
1631290387437,-0.921875,-0.21875,0.34375
1631290387468,-0.921875,-0.21875,0.328125
1631290387500,-0.921875,-0.21875,0.328125
1631290387531,-0.921875,-0.21875,0.328125
1631290387562,-0.921875,-0.21875,0.328125
1631290387593,-0.9375,-0.21875,0.3125
1631290387625,-0.90625,-0.21875,0.34375
1631290387656,-0.921875,-0.21875,0.34375
1631290387687,-0.921875,-0.21875,0.328125
1631290387718,-0.921875,-0.21875,0.328125
1631290387750,-0.9375,-0.21875,0.3125
1631290387781,-0.921875,-0.21875,0.34375
1631290387812,-0.921875,-0.21875,0.34375
1631290387843,-0.90625,-0.21875,0.34375
1631290387875,-0.90625,-0.21875,0.34375
1631290387906,-0.921875,-0.21875,0.34375
1631290387937,-0.921875,-0.21875,0.328125
1631290387968,-0.921875,-0.21875,0.328125
1631290388000,-0.921875,-0.21875,0.34375
1631290388031,-0.921875,-0.21875,0.34375
1631290388062,-0.90625,-0.21875,0.34375
1631290388093,-0.90625,-0.21875,0.34375
1631290388125,-0.921875,-0.21875,0.328125
1631290388156,-0.921875,-0.21875,0.328125
1631290388187,-0.921875,-0.21875,0.328125
1631290388218,-0.921875,-0.21875,0.3125
1631290388250,-0.921875,-0.21875,0.328125
1631290388281,-0.9375,-0.21875,0.328125
1631290388312,-0.90625,-0.21875,0.34375
1631290388343,-0.90625,-0.21875,0.34375
1631290388375,-0.90625,-0.21875,0.359375
1631290388406,-0.921875,-0.21875,0.328125
1631290388437,-0.90625,-0.21875,0.328125
1631290388468,-0.921875,-0.21875,0.328125
1631290388500,-0.921875,-0.21875,0.328125
1631290388531,-0.921875,-0.21875,0.328125
1631290388562,-0.921875,-0.21875,0.328125
1631290388593,-0.90625,-0.21875,0.34375
1631290388625,-0.90625,-0.21875,0.34375
1631290388656,-0.921875,-0.21875,0.34375
1631290388687,-0.921875,-0.21875,0.34375
1631290388718,-0.921875,-0.21875,0.328125
1631290388750,-0.921875,-0.21875,0.328125
1631290388781,-0.921875,-0.21875,0.328125
1631290388812,-0.921875,-0.21875,0.328125
1631290388843,-0.921875,-0.21875,0.328125
1631290388875,-0.921875,-0.21875,0.328125
1631290388906,-0.90625,-0.21875,0.34375
1631290388937,-0.921875,-0.21875,0.34375
1631290388968,-0.921875,-0.21875,0.328125
1631290389000,-0.921875,-0.21875,0.328125
1631290389031,-0.9375,-0.21875,0.3125
1631290389062,-0.921875,-0.21875,0.328125
1631290389093,-0.90625,-0.21875,0.34375
1631290389125,-0.921875,-0.21875,0.34375
1631290389156,-0.921875,-0.21875,0.34375
1631290389187,-0.90625,-0.21875,0.34375
1631290389218,-0.921875,-0.21875,0.328125
1631290389250,-0.90625,-0.21875,0.34375
1631290389281,-0.90625,-0.21875,0.34375
1631290389312,-0.921875,-0.21875,0.34375
1631290389343,-0.921875,-0.21875,0.3125
1631290389375,-0.921875,-0.21875,0.328125
1631290389406,-0.921875,-0.21875,0.328125
1631290389437,-0.921875,-0.21875,0.328125
1631290389468,-0.921875,-0.21875,0.328125
1631290389500,-0.921875,-0.21875,0.328125
1631290389531,-0.921875,-0.21875,0.328125
1631290389562,-0.90625,-0.21875,0.34375
1631290389593,-0.921875,-0.21875,0.34375
1631290389625,-0.921875,-0.21875,0.34375
1631290389656,-0.921875,-0.203125,0.328125
1631290389687,-0.90625,-0.21875,0.328125
1631290389718,-0.921875,-0.21875,0.328125
1631290389750,-0.921875,-0.21875,0.328125
1631290389781,-0.921875,-0.21875,0.328125
1631290389812,-0.921875,-0.21875,0.34375
1631290389843,-0.921875,-0.21875,0.34375
1631290389875,-0.921875,-0.21875,0.34375
1631290389906,-0.921875,-0.21875,0.34375
1631290389937,-0.921875,-0.21875,0.34375
1631290389968,-0.921875,-0.21875,0.328125
1631290390000,-0.921875,-0.21875,0.328125
1631290390031,-0.921875,-0.21875,0.34375
1631290390062,-0.90625,-0.21875,0.34375
1631290390093,-0.921875,-0.21875,0.328125
1631290390125,-0.921875,-0.21875,0.328125
1631290390156,-0.90625,-0.21875,0.34375
1631290390187,-0.90625,-0.21875,0.34375
1631290390218,-0.921875,-0.21875,0.328125
1631290390250,-0.921875,-0.21875,0.328125
1631290390281,-0.921875,-0.21875,0.328125
1631290390312,-0.9375,-0.21875,0.328125
1631290390343,-0.90625,-0.21875,0.34375
1631290390375,-0.90625,-0.21875,0.34375
1631290390406,-0.921875,-0.21875,0.34375
1631290390437,-0.921875,-0.21875,0.328125
1631290390468,-0.921875,-0.21875,0.328125
1631290390500,-0.921875,-0.21875,0.328125
1631290390531,-0.90625,-0.21875,0.34375
1631290390562,-0.921875,-0.21875,0.34375
1631290390593,-0.921875,-0.21875,0.34375
1631290390625,-0.921875,-0.21875,0.328125
1631290390656,-0.921875,-0.21875,0.3125
1631290390687,-0.921875,-0.21875,0.328125
1631290390718,-0.921875,-0.21875,0.328125
1631290390750,-0.921875,-0.21875,0.328125
1631290390781,-0.9375,-0.21875,0.328125
1631290390812,-0.921875,-0.21875,0.328125
1631290390843,-0.90625,-0.21875,0.34375
1631290390875,-0.921875,-0.21875,0.34375
1631290390906,-0.90625,-0.21875,0.328125
1631290390937,-0.921875,-0.21875,0.328125
1631290390968,-0.921875,-0.21875,0.328125
1631290391000,-0.921875,-0.21875,0.328125
1631290391031,-0.921875,-0.21875,0.328125
1631290391062,-0.921875,-0.21875,0.34375
1631290391093,-0.921875,-0.21875,0.328125
1631290391125,-0.921875,-0.21875,0.328125
1631290391156,-0.90625,-0.21875,0.34375
1631290391187,-0.921875,-0.21875,0.34375
1631290391218,-0.921875,-0.21875,0.328125
1631290391250,-0.921875,-0.21875,0.328125
1631290391281,-0.921875,-0.21875,0.328125
1631290391312,-0.921875,-0.21875,0.328125
1631290391343,-0.921875,-0.21875,0.328125
1631290391375,-0.921875,-0.21875,0.328125
1631290391406,-0.9375,-0.21875,0.328125
1631290391437,-0.90625,-0.21875,0.34375
1631290391468,-0.90625,-0.21875,0.34375
1631290391500,-0.921875,-0.21875,0.34375
1631290391531,-0.921875,-0.21875,0.328125
1631290391562,-0.921875,-0.21875,0.328125
1631290391593,-0.921875,-0.21875,0.34375
1631290391625,-0.921875,-0.21875,0.34375
1631290391656,-0.90625,-0.21875,0.34375
1631290391687,-0.921875,-0.21875,0.34375
1631290391718,-0.9375,-0.21875,0.328125
1631290391750,-0.90625,-0.21875,0.34375
1631290391781,-0.90625,-0.21875,0.34375
1631290391812,-0.921875,-0.21875,0.328125
1631290391843,-0.90625,-0.21875,0.34375
1631290391875,-0.90625,-0.21875,0.34375
1631290391906,-0.9375,-0.21875,0.3125
1631290391937,-0.9375,-0.21875,0.3125
1631290391968,-0.921875,-0.21875,0.328125
1631290392000,-0.921875,-0.21875,0.328125
1631290392031,-0.9375,-0.21875,0.328125
1631290392062,-0.921875,-0.21875,0.34375
1631290392093,-0.90625,-0.21875,0.359375
1631290392125,-0.90625,-0.203125,0.34375
1631290392156,-0.921875,-0.21875,0.328125
1631290392187,-0.90625,-0.21875,0.328125
1631290392218,-0.921875,-0.21875,0.328125
1631290392250,-0.9375,-0.21875,0.3125
1631290392281,-0.90625,-0.21875,0.34375
1631290392312,-0.90625,-0.21875,0.34375
1631290392343,-0.921875,-0.21875,0.34375
1631290392375,-0.90625,-0.21875,0.34375
1631290392406,-0.90625,-0.21875,0.34375
1631290392437,-0.921875,-0.21875,0.328125
1631290392468,-0.921875,-0.21875,0.328125
1631290392500,-0.921875,-0.21875,0.328125
1631290392531,-0.921875,-0.21875,0.328125
1631290392562,-0.921875,-0.21875,0.328125
1631290392593,-0.921875,-0.21875,0.328125
1631290392625,-0.921875,-0.21875,0.34375
1631290392656,-0.921875,-0.21875,0.328125
1631290392687,-0.921875,-0.21875,0.328125
1631290392718,-0.921875,-0.21875,0.328125
1631290392750,-0.921875,-0.21875,0.328125
1631290392781,-0.921875,-0.21875,0.328125
1631290392812,-0.921875,-0.21875,0.328125
1631290392843,-0.921875,-0.21875,0.328125
1631290392875,-0.921875,-0.21875,0.328125
1631290392906,-0.921875,-0.21875,0.328125
1631290392937,-0.921875,-0.21875,0.328125
1631290392968,-0.921875,-0.21875,0.328125
1631290393000,-0.921875,-0.21875,0.328125
1631290393031,-0.921875,-0.21875,0.328125
1631290393062,-0.921875,-0.21875,0.328125
1631290393093,-0.921875,-0.21875,0.328125
1631290393125,-0.921875,-0.21875,0.328125
1631290393156,-0.921875,-0.21875,0.328125
1631290393187,-0.921875,-0.21875,0.328125
1631290393218,-0.921875,-0.21875,0.328125
1631290393250,-0.921875,-0.21875,0.328125
1631290393281,-0.921875,-0.21875,0.328125
1631290393312,-0.921875,-0.21875,0.328125
1631290393343,-0.921875,-0.21875,0.328125
1631290393375,-0.921875,-0.21875,0.328125
1631290393406,-0.921875,-0.21875,0.3125
1631290393437,-0.9375,-0.21875,0.296875
1631290393468,-0.96875,-0.21875,0.296875
1631290393500,-0.921875,-0.203125,0.375
1631290393531,-0.90625,-0.203125,0.390625
1631290393562,-0.84375,-0.21875,0.421875
1631290393593,-0.875,-0.234375,0.375
1631290393625,-0.90625,-0.25,0.359375
1631290393656,-0.875,-0.28125,0.421875
1631290393687,-0.796875,-0.203125,0.4375
1631290393718,-0.9375,-0.21875,0.375
1631290393750,-0.984375,-0.21875,0.34375
1631290393781,-0.984375,-0.25,0.3125
1631290393812,-1.03125,-0.265625,0.375
1631290393843,-1.0625,-0.28125,0.4375
1631290393875,-1.46875,-0.34375,0.421875
1631290393906,-0.828125,-0.1875,0.578125
1631290393937,-0.953125,-0.234375,0.609375
1631290393968,-0.484375,-0.15625,0.765625
1631290394000,-0.234375,-0.140625,0.828125
1631290394031,-0.28125,-0.15625,0.921875
1631290394062,-0.296875,0.03125,0.96875
1631290394093,-0.34375,0.109375,0.875
1631290394125,-0.5,0.109375,0.640625
1631290394156,-0.46875,0.078125,0.546875
1631290394187,-0.5625,0.03125,0.5
1631290394218,-0.546875,0.015625,0.671875
1631290394250,-0.375,0.046875,0.8125
1631290394281,-0.46875,-0.015625,1.0625
1631290394312,-0.4375,0.046875,0.890625
1631290394343,-0.5625,0.078125,0.765625
1631290394375,-0.640625,0.09375,0.71875
1631290394406,-0.671875,0.09375,0.734375
1631290394437,-0.671875,0.109375,0.703125
1631290394468,-0.609375,0.140625,0.734375
1631290394500,-0.59375,0.15625,0.78125
1631290394531,-0.546875,0.140625,0.859375
1631290394562,-0.625,0.109375,0.828125
1631290394593,-0.578125,0.109375,0.84375
1631290394625,-0.5,0.140625,0.859375
1631290394656,-0.5,0.171875,0.890625
1631290394687,-0.546875,0.171875,0.859375
1631290394718,-0.484375,0.15625,0.859375
1631290394750,-0.546875,0.171875,0.8125
1631290394781,-0.53125,0.15625,0.765625
1631290394812,-0.59375,0.15625,0.8125
1631290394843,-0.5,0.171875,0.8125
1631290394875,-0.46875,0.171875,0.6875
1631290394906,-0.453125,0.125,0.71875
1631290394937,-0.390625,0.1875,0.921875
1631290394968,-0.375,0.21875,0.875
1631290395000,-0.5625,0.1875,0.78125
1631290395031,-0.625,0.171875,0.78125
1631290395062,-0.671875,0.1875,0.765625
1631290395093,-0.546875,0.1875,0.78125
1631290395125,-0.515625,0.1875,0.78125
1631290395156,-0.484375,0.1875,0.8125
1631290395187,-0.578125,0.1875,0.828125
1631290395218,-0.59375,0.1875,0.796875
1631290395250,-0.609375,0.1875,0.75
1631290395281,-0.59375,0.171875,0.765625
1631290395312,-0.5625,0.171875,0.765625
1631290395343,-0.53125,0.171875,0.828125
1631290395375,-0.53125,0.171875,0.828125
1631290395406,-0.5625,0.203125,0.78125
1631290395437,-0.546875,0.1875,0.796875
1631290395468,-0.546875,0.171875,0.84375
1631290395500,-0.59375,0.171875,0.84375
1631290395531,-0.578125,0.171875,0.84375
1631290395562,-0.546875,0.15625,0.8125
1631290395593,-0.59375,0.15625,0.765625
1631290395625,-0.59375,0.15625,0.78125
1631290395656,-0.53125,0.15625,0.765625
1631290395687,-0.5625,0.171875,0.703125
1631290395718,-0.5625,0.15625,0.703125
1631290395750,-0.609375,0.125,0.78125
1631290395781,-0.625,0.140625,0.796875
1631290395812,-0.640625,0.109375,0.84375
1631290395843,-0.625,0.125,0.875
1631290395875,-0.546875,0.171875,0.875
1631290395906,-0.484375,0.15625,0.828125
1631290395937,-0.453125,0.171875,0.796875
1631290395968,-0.4375,0.140625,0.796875
1631290396000,-0.453125,0.109375,0.8125
1631290396031,-0.46875,0.078125,0.796875
1631290396062,-0.4375,0.0625,0.796875
1631290396093,-0.625,0.03125,0.78125
1631290396125,-0.515625,0.03125,0.765625
1631290396156,-0.453125,0.0625,0.796875
1631290396187,-0.484375,0.0,0.765625
1631290396218,-0.421875,-0.03125,0.890625
1631290396250,-0.40625,-0.015625,1.03125
1631290396281,-0.4375,-0.109375,1.125
1631290396312,-0.4375,-0.125,1.078125
1631290396343,-0.4375,-0.046875,0.9375
1631290396375,-0.5625,-0.09375,0.703125
1631290396406,-0.515625,-0.109375,0.6875
1631290396437,-0.515625,-0.109375,0.90625
1631290396468,-0.546875,-0.125,0.921875
1631290396500,-0.546875,-0.140625,0.84375
1631290396531,-0.6875,-0.125,0.75
1631290396562,-0.703125,-0.09375,0.8125
1631290396593,-0.5625,-0.078125,0.921875
1631290396625,-0.546875,-0.0625,0.828125
1631290396656,-0.46875,-0.0625,0.84375
1631290396687,-0.4375,-0.109375,0.859375
1631290396718,-0.453125,-0.125,0.890625
1631290396750,-0.546875,-0.109375,0.890625
1631290396781,-0.390625,-0.046875,0.78125
1631290396812,-0.546875,-0.046875,0.75
1631290396843,-0.421875,-0.046875,0.8125
1631290396875,-0.28125,-0.046875,0.890625
1631290396906,-0.40625,-0.015625,0.859375
1631290396937,-0.484375,-0.03125,0.796875
1631290396968,-0.453125,-0.046875,0.78125
1631290397000,-0.5,-0.0625,0.8125
1631290397031,-0.4375,-0.09375,0.90625
1631290397062,-0.4375,-0.0625,0.90625
1631290397093,-0.515625,-0.03125,0.890625
1631290397125,-0.578125,-0.015625,0.921875
1631290397156,-0.625,-0.0625,0.84375
1631290397187,-0.546875,-0.09375,0.75
1631290397218,-0.53125,-0.09375,0.765625
1631290397250,-0.5,-0.09375,0.796875
1631290397281,-0.53125,-0.109375,0.8125
1631290397312,-0.578125,-0.078125,0.828125
1631290397343,-0.609375,-0.0625,0.8125
1631290397375,-0.609375,-0.078125,0.796875
1631290397406,-0.609375,-0.078125,0.796875
1631290397437,-0.59375,-0.078125,0.78125
1631290397468,-0.59375,-0.0625,0.78125
1631290397500,-0.59375,-0.078125,0.765625
1631290397531,-0.609375,-0.078125,0.765625
1631290397562,-0.609375,-0.09375,0.78125
1631290397593,-0.640625,-0.109375,0.78125
1631290397625,-0.625,-0.109375,0.78125
1631290397656,-0.609375,-0.09375,0.75
1631290397687,-0.59375,-0.09375,0.765625
1631290397718,-0.59375,-0.09375,0.78125
1631290397750,-0.625,-0.078125,0.765625
1631290397781,-0.640625,-0.09375,0.765625
1631290397812,-0.640625,-0.078125,0.765625
1631290397843,-0.625,-0.078125,0.765625
1631290397875,-0.625,-0.09375,0.75
1631290397906,-0.625,-0.078125,0.765625
1631290397937,-0.625,-0.09375,0.75
1631290397968,-0.625,-0.09375,0.734375
1631290398000,-0.65625,-0.109375,0.75
1631290398031,-0.65625,-0.109375,0.75
1631290398062,-0.625,-0.109375,0.765625
1631290398093,-0.625,-0.109375,0.75
1631290398125,-0.625,-0.078125,0.765625
1631290398156,-0.609375,-0.078125,0.765625
1631290398187,-0.609375,-0.078125,0.78125
1631290398218,-0.625,-0.078125,0.765625
1631290398250,-0.640625,-0.078125,0.765625
1631290398281,-0.625,-0.078125,0.75
1631290398312,-0.625,-0.09375,0.75
1631290398343,-0.640625,-0.09375,0.75
1631290398375,-0.640625,-0.09375,0.75
1631290398406,-0.640625,-0.09375,0.75
1631290398437,-0.640625,-0.09375,0.75
1631290398468,-0.640625,-0.109375,0.75
1631290398500,-0.640625,-0.09375,0.75
1631290398531,-0.640625,-0.078125,0.75
1631290398562,-0.640625,-0.078125,0.75
1631290398593,-0.640625,-0.078125,0.75
1631290398625,-0.640625,-0.09375,0.75
1631290398656,-0.640625,-0.09375,0.75
1631290398687,-0.640625,-0.078125,0.75
1631290398718,-0.640625,-0.078125,0.765625
1631290398750,-0.640625,-0.09375,0.75
1631290398781,-0.640625,-0.09375,0.75
1631290398812,-0.640625,-0.078125,0.75
1631290398843,-0.640625,-0.09375,0.734375
1631290398875,-0.640625,-0.09375,0.734375
1631290398906,-0.65625,-0.109375,0.734375
1631290398937,-0.640625,-0.09375,0.75
1631290398968,-0.640625,-0.09375,0.75
1631290399000,-0.65625,-0.078125,0.75
1631290399031,-0.65625,-0.078125,0.75
1631290399062,-0.640625,-0.078125,0.734375
1631290399093,-0.640625,-0.078125,0.734375
1631290399125,-0.65625,-0.09375,0.734375
1631290399156,-0.640625,-0.078125,0.734375
1631290399187,-0.65625,-0.09375,0.734375
1631290399218,-0.640625,-0.09375,0.734375
1631290399250,-0.640625,-0.078125,0.75
1631290399281,-0.640625,-0.078125,0.75
1631290399312,-0.65625,-0.078125,0.75
1631290399343,-0.65625,-0.078125,0.734375
1631290399375,-0.65625,-0.078125,0.734375
1631290399406,-0.65625,-0.09375,0.734375
1631290399437,-0.65625,-0.09375,0.734375
1631290399468,-0.65625,-0.09375,0.734375
1631290399500,-0.65625,-0.09375,0.734375
1631290399531,-0.65625,-0.09375,0.734375
1631290399562,-0.65625,-0.09375,0.734375
1631290399593,-0.65625,-0.09375,0.734375
1631290399625,-0.65625,-0.09375,0.734375
1631290399656,-0.65625,-0.09375,0.734375
1631290399687,-0.65625,-0.09375,0.734375
1631290399718,-0.65625,-0.09375,0.75
1631290399750,-0.65625,-0.09375,0.734375
1631290399781,-0.640625,-0.09375,0.734375
1631290399812,-0.640625,-0.09375,0.734375
1631290399843,-0.65625,-0.09375,0.734375
1631290399875,-0.65625,-0.109375,0.734375
1631290399906,-0.65625,-0.09375,0.734375
1631290399937,-0.640625,-0.09375,0.734375
1631290399968,-0.65625,-0.078125,0.734375
1631290400000,-0.65625,-0.09375,0.734375
1631290400031,-0.65625,-0.09375,0.734375
1631290400062,-0.65625,-0.09375,0.734375
1631290400093,-0.65625,-0.09375,0.734375
1631290400125,-0.65625,-0.09375,0.734375
1631290400156,-0.65625,-0.09375,0.734375
1631290400187,-0.65625,-0.078125,0.734375
1631290400218,-0.65625,-0.09375,0.734375
1631290400250,-0.65625,-0.078125,0.734375
1631290400281,-0.65625,-0.078125,0.734375
1631290400312,-0.65625,-0.078125,0.734375
1631290400343,-0.640625,-0.078125,0.734375
1631290400375,-0.65625,-0.09375,0.734375
1631290400406,-0.65625,-0.09375,0.734375
1631290400437,-0.65625,-0.078125,0.734375
1631290400468,-0.65625,-0.09375,0.734375
1631290400500,-0.65625,-0.09375,0.734375
1631290400531,-0.65625,-0.09375,0.734375
1631290400562,-0.65625,-0.09375,0.734375
1631290400593,-0.640625,-0.09375,0.734375
1631290400625,-0.65625,-0.078125,0.734375
1631290400656,-0.65625,-0.09375,0.734375
1631290400687,-0.65625,-0.078125,0.734375
1631290400718,-0.65625,-0.078125,0.734375
1631290400750,-0.65625,-0.078125,0.75
1631290400781,-0.65625,-0.078125,0.734375
1631290400812,-0.65625,-0.09375,0.734375
1631290400843,-0.65625,-0.09375,0.734375
1631290400875,-0.65625,-0.09375,0.734375
1631290400906,-0.65625,-0.09375,0.734375
1631290400937,-0.65625,-0.078125,0.734375
1631290400968,-0.65625,-0.09375,0.734375
1631290401000,-0.65625,-0.078125,0.734375
1631290401031,-0.65625,-0.078125,0.734375
1631290401062,-0.65625,-0.09375,0.734375
1631290401093,-0.65625,-0.09375,0.734375
1631290401125,-0.65625,-0.078125,0.734375
1631290401156,-0.65625,-0.078125,0.734375
1631290401187,-0.65625,-0.078125,0.734375
1631290401218,-0.65625,-0.078125,0.734375
1631290401250,-0.65625,-0.078125,0.75
1631290401281,-0.65625,-0.078125,0.734375
1631290401312,-0.65625,-0.078125,0.734375
1631290401343,-0.65625,-0.078125,0.734375
1631290401375,-0.65625,-0.09375,0.734375
1631290401406,-0.65625,-0.09375,0.734375
1631290401437,-0.65625,-0.09375,0.734375
1631290401468,-0.65625,-0.078125,0.75
1631290401500,-0.65625,-0.078125,0.734375
1631290401531,-0.65625,-0.078125,0.734375
1631290401562,-0.65625,-0.078125,0.734375
1631290401593,-0.65625,-0.078125,0.734375
1631290401625,-0.65625,-0.078125,0.734375
1631290401656,-0.65625,-0.078125,0.734375
1631290401687,-0.65625,-0.078125,0.734375
1631290401718,-0.65625,-0.078125,0.734375
1631290401750,-0.65625,-0.078125,0.734375
1631290401781,-0.65625,-0.078125,0.734375
1631290401812,-0.65625,-0.078125,0.734375
1631290401843,-0.65625,-0.078125,0.734375
1631290401875,-0.65625,-0.09375,0.734375
1631290401906,-0.65625,-0.078125,0.734375
1631290401937,-0.65625,-0.078125,0.734375
1631290401968,-0.65625,-0.078125,0.734375
1631290402000,-0.65625,-0.078125,0.734375
1631290402031,-0.671875,-0.078125,0.75
1631290402062,-0.65625,-0.078125,0.734375
1631290402093,-0.65625,-0.078125,0.734375
1631290402125,-0.65625,-0.09375,0.734375
1631290402156,-0.65625,-0.078125,0.734375
1631290402187,-0.65625,-0.078125,0.734375
1631290402218,-0.65625,-0.078125,0.734375
1631290402250,-0.65625,-0.078125,0.734375
1631290402281,-0.65625,-0.078125,0.734375
1631290402312,-0.65625,-0.078125,0.734375
1631290402343,-0.65625,-0.078125,0.734375
1631290402375,-0.65625,-0.078125,0.734375
1631290402406,-0.65625,-0.078125,0.734375
1631290402437,-0.65625,-0.09375,0.734375
1631290402468,-0.65625,-0.078125,0.734375
1631290402500,-0.65625,-0.078125,0.734375
1631290402531,-0.65625,-0.078125,0.734375
1631290402562,-0.65625,-0.078125,0.734375
1631290402593,-0.65625,-0.078125,0.734375
1631290402625,-0.65625,-0.078125,0.734375
1631290402656,-0.65625,-0.078125,0.734375
1631290402687,-0.65625,-0.09375,0.734375
1631290402718,-0.65625,-0.09375,0.734375
1631290402750,-0.671875,-0.09375,0.734375
1631290402781,-0.671875,-0.09375,0.734375
1631290402812,-0.65625,-0.09375,0.734375
1631290402843,-0.65625,-0.078125,0.75
1631290402875,-0.640625,-0.078125,0.734375
1631290402906,-0.640625,-0.078125,0.734375
1631290402937,-0.640625,-0.078125,0.734375
1631290402968,-0.671875,-0.078125,0.734375
1631290403000,-0.671875,-0.109375,0.734375
1631290403031,-0.65625,-0.09375,0.734375
1631290403062,-0.640625,-0.078125,0.734375
1631290403093,-0.640625,-0.0625,0.734375
1631290403125,-0.640625,-0.0625,0.734375
1631290403156,-0.640625,-0.078125,0.734375
1631290403187,-0.65625,-0.078125,0.734375
1631290403218,-0.65625,-0.078125,0.734375
1631290403250,-0.65625,-0.078125,0.734375
1631290403281,-0.65625,-0.078125,0.734375
1631290403312,-0.65625,-0.09375,0.734375
1631290403343,-0.65625,-0.078125,0.734375
1631290403375,-0.65625,-0.078125,0.734375
1631290403406,-0.65625,-0.078125,0.734375
1631290403437,-0.65625,-0.078125,0.734375
1631290403468,-0.65625,-0.078125,0.734375
1631290403500,-0.65625,-0.078125,0.734375
1631290403531,-0.65625,-0.078125,0.734375
1631290403562,-0.65625,-0.078125,0.734375
1631290403593,-0.65625,-0.078125,0.734375
1631290403625,-0.65625,-0.078125,0.734375
1631290403656,-0.65625,-0.078125,0.734375
1631290403687,-0.671875,-0.078125,0.734375
1631290403718,-0.65625,-0.078125,0.734375
1631290403750,-0.65625,-0.078125,0.734375
1631290403781,-0.65625,-0.078125,0.734375
1631290403812,-0.65625,-0.078125,0.734375
1631290403843,-0.65625,-0.078125,0.734375
1631290403875,-0.671875,-0.078125,0.734375
1631290403906,-0.65625,-0.078125,0.734375
1631290403937,-0.65625,-0.078125,0.734375
1631290403968,-0.65625,-0.078125,0.734375
1631290404000,-0.65625,-0.078125,0.734375
1631290404031,-0.65625,-0.078125,0.734375
1631290404062,-0.65625,-0.078125,0.734375
1631290404093,-0.65625,-0.078125,0.734375
1631290404125,-0.65625,-0.078125,0.734375
1631290404156,-0.65625,-0.078125,0.734375
1631290404187,-0.65625,-0.078125,0.734375
1631290404218,-0.65625,-0.078125,0.734375
1631290404250,-0.65625,-0.078125,0.734375
1631290404281,-0.65625,-0.078125,0.734375
1631290404312,-0.65625,-0.078125,0.734375
1631290404343,-0.65625,-0.078125,0.734375
1631290404375,-0.65625,-0.078125,0.734375
1631290404406,-0.65625,-0.078125,0.734375
1631290404437,-0.65625,-0.078125,0.734375
1631290404468,-0.65625,-0.078125,0.734375
1631290404500,-0.65625,-0.078125,0.734375
1631290404531,-0.65625,-0.078125,0.734375
1631290404562,-0.671875,-0.078125,0.734375
1631290404593,-0.65625,-0.078125,0.734375
1631290404625,-0.65625,-0.078125,0.734375
1631290404656,-0.65625,-0.078125,0.734375
1631290404687,-0.65625,-0.078125,0.734375
1631290404718,-0.65625,-0.078125,0.734375
1631290404750,-0.65625,-0.078125,0.734375
1631290404781,-0.65625,-0.078125,0.734375
1631290404812,-0.65625,-0.078125,0.734375
1631290404843,-0.65625,-0.078125,0.734375
1631290404875,-0.65625,-0.078125,0.734375
1631290404906,-0.65625,-0.078125,0.734375
1631290404937,-0.65625,-0.078125,0.734375
1631290404968,-0.65625,-0.078125,0.734375
1631290405000,-0.65625,-0.078125,0.734375
1631290405031,-0.65625,-0.078125,0.734375
1631290405062,-0.65625,-0.078125,0.734375
1631290405093,-0.65625,-0.078125,0.734375
1631290405125,-0.65625,-0.078125,0.734375
1631290405156,-0.65625,-0.078125,0.734375
1631290405187,-0.65625,-0.078125,0.734375
1631290405218,-0.65625,-0.078125,0.734375
1631290405250,-0.65625,-0.078125,0.734375
1631290405281,-0.65625,-0.078125,0.734375
1631290405312,-0.65625,-0.078125,0.734375
1631290405343,-0.65625,-0.078125,0.734375
1631290405375,-0.65625,-0.078125,0.734375
1631290405406,-0.65625,-0.078125,0.734375
1631290405437,-0.65625,-0.078125,0.734375
1631290405468,-0.65625,-0.078125,0.734375
1631290405500,-0.65625,-0.078125,0.734375
1631290405531,-0.65625,-0.078125,0.734375
1631290405562,-0.65625,-0.078125,0.734375
1631290405593,-0.65625,-0.078125,0.734375
1631290405625,-0.65625,-0.078125,0.734375
1631290405656,-0.65625,-0.078125,0.734375
1631290405687,-0.65625,-0.078125,0.734375
1631290405718,-0.65625,-0.078125,0.734375
1631290405750,-0.65625,-0.078125,0.734375
1631290405781,-0.65625,-0.078125,0.734375
1631290405812,-0.65625,-0.078125,0.734375
1631290405843,-0.65625,-0.09375,0.734375
1631290405875,-0.65625,-0.078125,0.734375
1631290405906,-0.65625,-0.078125,0.734375
1631290405937,-0.65625,-0.078125,0.734375
1631290405968,-0.65625,-0.09375,0.734375
1631290406000,-0.65625,-0.078125,0.734375
1631290406031,-0.671875,-0.078125,0.734375
1631290406062,-0.65625,-0.078125,0.734375
1631290406093,-0.65625,-0.078125,0.734375
1631290406125,-0.65625,-0.078125,0.734375
1631290406156,-0.65625,-0.078125,0.734375
1631290406187,-0.65625,-0.078125,0.734375
1631290406218,-0.65625,-0.09375,0.734375
1631290406250,-0.65625,-0.09375,0.734375
1631290406281,-0.65625,-0.078125,0.734375
1631290406312,-0.671875,-0.078125,0.734375
1631290406343,-0.65625,-0.078125,0.734375
1631290406375,-0.65625,-0.078125,0.734375
1631290406406,-0.65625,-0.09375,0.734375
1631290406437,-0.65625,-0.09375,0.734375
1631290406468,-0.65625,-0.09375,0.734375
1631290406500,-0.671875,-0.09375,0.734375
1631290406531,-0.65625,-0.09375,0.734375
1631290406562,-0.65625,-0.078125,0.734375
1631290406593,-0.65625,-0.078125,0.734375
1631290406625,-0.65625,-0.078125,0.734375
1631290406656,-0.65625,-0.078125,0.734375
1631290406687,-0.65625,-0.09375,0.734375
1631290406718,-0.671875,-0.078125,0.734375
1631290406750,-0.65625,-0.078125,0.734375
1631290406781,-0.65625,-0.078125,0.734375
1631290406812,-0.65625,-0.078125,0.734375
1631290406843,-0.65625,-0.078125,0.734375
1631290406875,-0.65625,-0.078125,0.734375
1631290406906,-0.65625,-0.078125,0.734375
1631290406937,-0.65625,-0.078125,0.734375
1631290406968,-0.671875,-0.078125,0.734375
1631290407000,-0.65625,-0.078125,0.734375
1631290407031,-0.65625,-0.078125,0.734375
1631290407062,-0.65625,-0.078125,0.734375
1631290407093,-0.65625,-0.078125,0.734375
1631290407125,-0.65625,-0.078125,0.734375
1631290407156,-0.671875,-0.078125,0.734375
1631290407187,-0.671875,-0.078125,0.734375
1631290407218,-0.65625,-0.078125,0.734375
1631290407250,-0.65625,-0.078125,0.734375
1631290407281,-0.65625,-0.09375,0.734375
1631290407312,-0.65625,-0.078125,0.734375
1631290407343,-0.65625,-0.078125,0.734375
1631290407375,-0.65625,-0.078125,0.734375
1631290407406,-0.65625,-0.078125,0.734375
1631290407437,-0.65625,-0.078125,0.734375
1631290407468,-0.65625,-0.078125,0.734375
1631290407500,-0.65625,-0.078125,0.734375
1631290407531,-0.65625,-0.078125,0.734375
1631290407562,-0.65625,-0.078125,0.734375
1631290407593,-0.65625,-0.078125,0.734375
1631290407625,-0.65625,-0.078125,0.734375
1631290407656,-0.65625,-0.078125,0.734375
1631290407687,-0.65625,-0.078125,0.734375
1631290407718,-0.65625,-0.078125,0.734375
1631290407750,-0.65625,-0.078125,0.734375
1631290407781,-0.65625,-0.078125,0.734375
1631290407812,-0.65625,-0.078125,0.734375
1631290407843,-0.671875,-0.078125,0.734375
1631290407875,-0.671875,-0.078125,0.734375
1631290407906,-0.65625,-0.078125,0.734375
1631290407937,-0.671875,-0.078125,0.734375
1631290407968,-0.65625,-0.078125,0.734375
1631290408000,-0.65625,-0.078125,0.734375
1631290408031,-0.671875,-0.078125,0.734375
1631290408062,-0.671875,-0.078125,0.734375
1631290408093,-0.65625,-0.078125,0.734375
1631290408125,-0.65625,-0.078125,0.734375
1631290408156,-0.65625,-0.09375,0.734375
1631290408187,-0.65625,-0.078125,0.734375
1631290408218,-0.65625,-0.078125,0.734375
1631290408250,-0.65625,-0.078125,0.734375
1631290408281,-0.65625,-0.078125,0.734375
1631290408312,-0.65625,-0.078125,0.734375
1631290408343,-0.671875,-0.078125,0.734375
1631290408375,-0.65625,-0.078125,0.734375
1631290408406,-0.671875,-0.078125,0.734375
1631290408437,-0.65625,-0.078125,0.734375
1631290408468,-0.65625,-0.078125,0.734375
1631290408500,-0.671875,-0.078125,0.734375
1631290408531,-0.65625,-0.078125,0.734375
1631290408562,-0.65625,-0.078125,0.734375
1631290408593,-0.671875,-0.078125,0.734375
1631290408625,-0.65625,-0.078125,0.734375
1631290408656,-0.65625,-0.078125,0.734375
1631290408687,-0.671875,-0.09375,0.734375
1631290408718,-0.65625,-0.078125,0.734375
1631290408750,-0.65625,-0.078125,0.734375
1631290408781,-0.65625,-0.078125,0.734375
1631290408812,-0.65625,-0.078125,0.734375
1631290408843,-0.65625,-0.09375,0.734375
1631290408875,-0.65625,-0.078125,0.734375
1631290408906,-0.671875,-0.078125,0.734375
1631290408937,-0.671875,-0.078125,0.734375
1631290408968,-0.65625,-0.078125,0.734375
1631290409000,-0.65625,-0.09375,0.734375
1631290409031,-0.65625,-0.09375,0.734375
1631290409062,-0.65625,-0.09375,0.734375
1631290409093,-0.671875,-0.09375,0.734375
1631290409125,-0.671875,-0.09375,0.734375
1631290409156,-0.65625,-0.078125,0.734375
1631290409187,-0.65625,-0.078125,0.734375
1631290409218,-0.65625,-0.078125,0.734375
1631290409250,-0.671875,-0.09375,0.734375
1631290409281,-0.671875,-0.09375,0.734375
1631290409312,-0.65625,-0.078125,0.734375
1631290409343,-0.671875,-0.078125,0.734375
1631290409375,-0.65625,-0.078125,0.734375
1631290409406,-0.65625,-0.09375,0.71875
1631290409437,-0.65625,-0.09375,0.734375
1631290409468,-0.671875,-0.09375,0.71875
1631290409500,-0.671875,-0.09375,0.734375
1631290409531,-0.65625,-0.09375,0.734375
1631290409562,-0.671875,-0.09375,0.734375
1631290409593,-0.671875,-0.078125,0.734375
1631290409625,-0.671875,-0.078125,0.734375
1631290409656,-0.671875,-0.078125,0.734375
1631290409687,-0.671875,-0.078125,0.734375
1631290409718,-0.671875,-0.078125,0.734375
1631290409750,-0.671875,-0.078125,0.734375
1631290409781,-0.671875,-0.09375,0.734375
1631290409812,-0.65625,-0.078125,0.734375
1631290409843,-0.671875,-0.09375,0.734375
1631290409875,-0.65625,-0.09375,0.734375
1631290409906,-0.65625,-0.09375,0.734375
1631290409937,-0.671875,-0.078125,0.734375
1631290409968,-0.671875,-0.078125,0.71875
1631290410000,-0.671875,-0.078125,0.734375
1631290410031,-0.671875,-0.078125,0.734375
1631290410062,-0.65625,-0.078125,0.734375
1631290410093,-0.65625,-0.078125,0.734375
1631290410125,-0.671875,-0.078125,0.734375
1631290410156,-0.671875,-0.078125,0.734375
1631290410187,-0.671875,-0.078125,0.734375
1631290410218,-0.671875,-0.078125,0.734375
1631290410250,-0.65625,-0.078125,0.734375
1631290410281,-0.671875,-0.078125,0.734375
1631290410312,-0.671875,-0.078125,0.734375
1631290410343,-0.671875,-0.078125,0.734375
1631290410375,-0.671875,-0.078125,0.734375
1631290410406,-0.671875,-0.078125,0.734375
1631290410437,-0.671875,-0.078125,0.734375
1631290410468,-0.671875,-0.09375,0.734375
1631290410500,-0.671875,-0.078125,0.734375
1631290410531,-0.671875,-0.078125,0.734375
1631290410562,-0.671875,-0.078125,0.734375
1631290410593,-0.671875,-0.078125,0.734375
1631290410625,-0.671875,-0.078125,0.734375
1631290410656,-0.65625,-0.078125,0.734375
1631290410687,-0.65625,-0.09375,0.734375
1631290410718,-0.65625,-0.09375,0.734375
1631290410750,-0.65625,-0.078125,0.734375
1631290410781,-0.671875,-0.078125,0.734375
1631290410812,-0.671875,-0.078125,0.734375
1631290410843,-0.65625,-0.078125,0.734375
1631290410875,-0.671875,-0.078125,0.734375
1631290410906,-0.65625,-0.078125,0.734375
1631290410937,-0.671875,-0.078125,0.734375
1631290410968,-0.65625,-0.078125,0.734375
1631290411000,-0.671875,-0.078125,0.734375
1631290411031,-0.65625,-0.078125,0.734375
1631290411062,-0.671875,-0.078125,0.734375
1631290411093,-0.671875,-0.078125,0.734375
1631290411125,-0.671875,-0.078125,0.734375
1631290411156,-0.671875,-0.078125,0.734375
1631290411187,-0.671875,-0.078125,0.734375
1631290411218,-0.671875,-0.078125,0.734375
1631290411250,-0.671875,-0.078125,0.734375
1631290411281,-0.671875,-0.078125,0.734375
1631290411312,-0.671875,-0.078125,0.734375
1631290411343,-0.65625,-0.078125,0.734375
1631290411375,-0.671875,-0.078125,0.734375
1631290411406,-0.671875,-0.078125,0.734375
1631290411437,-0.671875,-0.078125,0.734375
1631290411468,-0.671875,-0.078125,0.734375
1631290411500,-0.65625,-0.078125,0.734375
1631290411531,-0.65625,-0.078125,0.734375
1631290411562,-0.65625,-0.078125,0.734375
1631290411593,-0.671875,-0.078125,0.734375
1631290411625,-0.671875,-0.078125,0.734375
1631290411656,-0.671875,-0.078125,0.734375
1631290411687,-0.65625,-0.078125,0.734375
1631290411718,-0.671875,-0.078125,0.734375
1631290411750,-0.671875,-0.078125,0.734375
1631290411781,-0.671875,-0.078125,0.734375
1631290411812,-0.65625,-0.09375,0.734375
1631290411843,-0.671875,-0.078125,0.734375
1631290411875,-0.671875,-0.078125,0.734375
1631290411906,-0.671875,-0.078125,0.734375
1631290411937,-0.671875,-0.09375,0.734375
1631290411968,-0.671875,-0.078125,0.734375
1631290412000,-0.65625,-0.078125,0.734375
1631290412031,-0.671875,-0.09375,0.734375
1631290412062,-0.671875,-0.09375,0.734375
1631290412093,-0.671875,-0.078125,0.734375
1631290412125,-0.671875,-0.078125,0.734375
1631290412156,-0.671875,-0.078125,0.734375
1631290412187,-0.671875,-0.078125,0.734375
1631290412218,-0.65625,-0.09375,0.734375
1631290412250,-0.65625,-0.078125,0.734375
1631290412281,-0.671875,-0.078125,0.734375
1631290412312,-0.671875,-0.078125,0.734375
1631290412343,-0.65625,-0.078125,0.734375
1631290412375,-0.65625,-0.078125,0.734375
1631290412406,-0.65625,-0.09375,0.734375
1631290412437,-0.671875,-0.09375,0.71875
1631290412468,-0.671875,-0.09375,0.734375
1631290412500,-0.671875,-0.078125,0.734375
1631290412531,-0.671875,-0.09375,0.734375
1631290412562,-0.65625,-0.078125,0.734375
1631290412593,-0.65625,-0.078125,0.734375
1631290412625,-0.671875,-0.078125,0.734375
1631290412656,-0.671875,-0.09375,0.734375
1631290412687,-0.671875,-0.09375,0.734375
1631290412718,-0.671875,-0.09375,0.734375
1631290412750,-0.671875,-0.09375,0.734375
1631290412781,-0.671875,-0.078125,0.734375
1631290412812,-0.671875,-0.078125,0.734375
1631290412843,-0.671875,-0.09375,0.734375
1631290412875,-0.65625,-0.078125,0.734375
1631290412906,-0.671875,-0.078125,0.734375
1631290412937,-0.671875,-0.078125,0.734375
1631290412968,-0.671875,-0.078125,0.734375
1631290413000,-0.671875,-0.078125,0.734375
1631290413031,-0.671875,-0.078125,0.734375
1631290413062,-0.671875,-0.078125,0.734375
1631290413093,-0.671875,-0.09375,0.734375
1631290413125,-0.671875,-0.078125,0.734375
1631290413156,-0.671875,-0.078125,0.734375
1631290413187,-0.671875,-0.078125,0.71875
1631290413218,-0.65625,-0.078125,0.734375
1631290413250,-0.671875,-0.09375,0.734375
1631290413281,-0.65625,-0.09375,0.734375
1631290413312,-0.671875,-0.078125,0.734375
1631290413343,-0.671875,-0.078125,0.734375
1631290413375,-0.671875,-0.078125,0.734375
1631290413406,-0.671875,-0.078125,0.734375
1631290413437,-0.671875,-0.078125,0.734375
1631290413468,-0.65625,-0.078125,0.734375
1631290413500,-0.65625,-0.078125,0.734375
1631290413531,-0.671875,-0.078125,0.734375
1631290413562,-0.671875,-0.078125,0.734375
1631290413593,-0.671875,-0.078125,0.734375
1631290413625,-0.671875,-0.078125,0.734375
1631290413656,-0.671875,-0.078125,0.734375
1631290413687,-0.671875,-0.078125,0.734375
1631290413718,-0.671875,-0.078125,0.734375
1631290413750,-0.671875,-0.078125,0.734375
1631290413781,-0.671875,-0.078125,0.734375
1631290413812,-0.671875,-0.078125,0.734375
1631290413843,-0.671875,-0.078125,0.734375
1631290413875,-0.671875,-0.078125,0.734375
1631290413906,-0.671875,-0.078125,0.734375
1631290413937,-0.671875,-0.078125,0.734375
1631290413968,-0.671875,-0.078125,0.734375
1631290414000,-0.671875,-0.078125,0.734375
1631290414031,-0.671875,-0.078125,0.734375
1631290414062,-0.65625,-0.078125,0.734375
1631290414093,-0.65625,-0.078125,0.734375
1631290414125,-0.671875,-0.09375,0.734375
1631290414156,-0.65625,-0.078125,0.734375
1631290414187,-0.671875,-0.078125,0.734375
1631290414218,-0.671875,-0.078125,0.734375
1631290414250,-0.671875,-0.078125,0.734375
1631290414281,-0.671875,-0.078125,0.734375
1631290414312,-0.65625,-0.078125,0.734375
1631290414343,-0.671875,-0.078125,0.734375
1631290414375,-0.671875,-0.078125,0.734375
1631290414406,-0.671875,-0.078125,0.734375
1631290414437,-0.671875,-0.078125,0.734375
1631290414468,-0.671875,-0.078125,0.734375
1631290414500,-0.671875,-0.078125,0.734375
1631290414531,-0.671875,-0.078125,0.734375
1631290414562,-0.65625,-0.078125,0.734375
1631290414593,-0.671875,-0.078125,0.734375
1631290414625,-0.671875,-0.078125,0.734375
1631290414656,-0.671875,-0.078125,0.734375
1631290414687,-0.671875,-0.078125,0.734375
1631290414718,-0.671875,-0.078125,0.734375
1631290414750,-0.671875,-0.078125,0.734375
1631290414781,-0.671875,-0.078125,0.734375
1631290414812,-0.671875,-0.078125,0.71875
1631290414843,-0.65625,-0.078125,0.734375
1631290414875,-0.65625,-0.078125,0.734375
1631290414906,-0.671875,-0.078125,0.734375
1631290414937,-0.671875,-0.078125,0.734375
1631290414968,-0.65625,-0.078125,0.734375
1631290415000,-0.65625,-0.09375,0.734375
1631290415031,-0.671875,-0.078125,0.734375
1631290415062,-0.65625,-0.078125,0.734375
1631290415093,-0.65625,-0.078125,0.734375
1631290415125,-0.671875,-0.078125,0.734375
1631290415156,-0.65625,-0.078125,0.734375
1631290415187,-0.671875,-0.078125,0.734375
1631290415218,-0.671875,-0.078125,0.734375
1631290415250,-0.671875,-0.078125,0.734375
1631290415281,-0.671875,-0.09375,0.71875
1631290415312,-0.671875,-0.078125,0.734375
1631290415343,-0.671875,-0.078125,0.734375
1631290415375,-0.65625,-0.078125,0.734375
1631290415406,-0.671875,-0.078125,0.734375
1631290415437,-0.671875,-0.078125,0.734375
1631290415468,-0.65625,-0.078125,0.734375
1631290415500,-0.65625,-0.078125,0.734375
1631290415531,-0.671875,-0.078125,0.734375
1631290415562,-0.671875,-0.078125,0.734375
1631290415593,-0.671875,-0.09375,0.734375
1631290415625,-0.671875,-0.078125,0.734375
1631290415656,-0.671875,-0.09375,0.734375
1631290415687,-0.671875,-0.09375,0.734375
1631290415718,-0.671875,-0.078125,0.734375
1631290415750,-0.671875,-0.09375,0.734375
1631290415781,-0.65625,-0.09375,0.734375
1631290415812,-0.671875,-0.078125,0.71875
1631290415843,-0.671875,-0.078125,0.734375
1631290415875,-0.65625,-0.09375,0.71875
1631290415906,-0.65625,-0.09375,0.71875
1631290415937,-0.65625,-0.09375,0.734375
1631290415968,-0.65625,-0.09375,0.734375
1631290416000,-0.671875,-0.078125,0.734375
1631290416031,-0.671875,-0.078125,0.734375
1631290416062,-0.671875,-0.078125,0.734375
1631290416093,-0.671875,-0.078125,0.734375
1631290416125,-0.65625,-0.078125,0.734375
1631290416156,-0.671875,-0.078125,0.71875
1631290416187,-0.671875,-0.078125,0.734375
1631290416218,-0.671875,-0.078125,0.734375
1631290416250,-0.671875,-0.078125,0.71875
1631290416281,-0.671875,-0.078125,0.71875
1631290416312,-0.671875,-0.078125,0.734375
1631290416343,-0.671875,-0.078125,0.734375
1631290416375,-0.671875,-0.078125,0.734375
1631290416406,-0.671875,-0.078125,0.734375
1631290416437,-0.671875,-0.078125,0.734375
1631290416468,-0.671875,-0.078125,0.734375
1631290416500,-0.671875,-0.078125,0.734375
1631290416531,-0.671875,-0.078125,0.734375
1631290416562,-0.671875,-0.078125,0.734375
1631290416593,-0.671875,-0.078125,0.734375
1631290416625,-0.671875,-0.078125,0.734375
1631290416656,-0.671875,-0.078125,0.734375
1631290416687,-0.671875,-0.078125,0.734375
1631290416718,-0.65625,-0.078125,0.734375
1631290416750,-0.671875,-0.078125,0.734375
1631290416781,-0.671875,-0.078125,0.734375
1631290416812,-0.65625,-0.078125,0.734375
1631290416843,-0.671875,-0.078125,0.734375
1631290416875,-0.65625,-0.09375,0.734375
1631290416906,-0.671875,-0.078125,0.734375
1631290416937,-0.671875,-0.078125,0.734375
1631290416968,-0.671875,-0.078125,0.734375
1631290417000,-0.671875,-0.078125,0.734375
1631290417031,-0.703125,-0.0625,0.734375
1631290417062,-0.640625,-0.078125,0.734375
1631290417093,-0.640625,-0.078125,0.71875
1631290417125,-0.671875,-0.09375,0.71875
1631290417156,-0.6875,-0.078125,0.734375
1631290417187,-0.671875,-0.078125,0.734375
1631290417218,-0.65625,-0.078125,0.71875
1631290417250,-0.640625,-0.09375,0.71875
1631290417281,-0.671875,-0.09375,0.71875
1631290417312,-0.6875,-0.078125,0.734375
1631290417343,-0.671875,-0.078125,0.734375
1631290417375,-0.65625,-0.078125,0.734375
1631290417406,-0.671875,-0.078125,0.734375
1631290417437,-0.671875,-0.078125,0.734375
1631290417468,-0.671875,-0.078125,0.734375
1631290417500,-0.65625,-0.078125,0.734375
1631290417531,-0.671875,-0.078125,0.734375
1631290417562,-0.671875,-0.078125,0.734375
1631290417593,-0.671875,-0.078125,0.734375
1631290417625,-0.671875,-0.078125,0.71875
1631290417656,-0.671875,-0.078125,0.734375
1631290417687,-0.671875,-0.078125,0.734375
1631290417718,-0.671875,-0.078125,0.734375
1631290417750,-0.671875,-0.0625,0.71875
1631290417781,-0.65625,-0.078125,0.734375
1631290417812,-0.65625,-0.09375,0.734375
1631290417843,-0.671875,-0.09375,0.734375
1631290417875,-0.671875,-0.078125,0.734375
1631290417906,-0.671875,-0.078125,0.734375
1631290417937,-0.671875,-0.078125,0.734375
1631290417968,-0.671875,-0.078125,0.734375
1631290418000,-0.671875,-0.0625,0.734375
1631290418031,-0.671875,-0.078125,0.734375
1631290418062,-0.671875,-0.078125,0.734375
1631290418093,-0.671875,-0.078125,0.734375
1631290418125,-0.671875,-0.078125,0.734375
1631290418156,-0.671875,-0.078125,0.734375
1631290418187,-0.671875,-0.09375,0.734375
1631290418218,-0.671875,-0.078125,0.734375
1631290418250,-0.671875,-0.078125,0.71875
1631290418281,-0.671875,-0.078125,0.734375
1631290418312,-0.65625,-0.078125,0.734375
1631290418343,-0.671875,-0.078125,0.734375
1631290418375,-0.671875,-0.078125,0.734375
1631290418406,-0.671875,-0.0625,0.734375
1631290418437,-0.671875,-0.0625,0.734375
1631290418468,-0.671875,-0.09375,0.71875
1631290418500,-0.671875,-0.09375,0.71875
1631290418531,-0.6875,-0.078125,0.71875
1631290418562,-0.640625,-0.078125,0.734375
1631290418593,-0.640625,-0.09375,0.734375
1631290418625,-0.65625,-0.09375,0.734375
1631290418656,-0.65625,-0.09375,0.75
1631290418687,-0.65625,-0.09375,0.734375
1631290418718,-0.671875,-0.078125,0.71875
1631290418750,-0.671875,-0.078125,0.71875
1631290418781,-0.65625,-0.078125,0.734375
1631290418812,-0.671875,-0.078125,0.734375
1631290418843,-0.671875,-0.078125,0.734375
1631290418875,-0.671875,-0.09375,0.734375
1631290418906,-0.671875,-0.078125,0.734375
1631290418937,-0.671875,-0.078125,0.71875
1631290418968,-0.671875,-0.09375,0.734375
1631290419000,-0.671875,-0.078125,0.734375
1631290419031,-0.671875,-0.078125,0.71875
1631290419062,-0.671875,-0.078125,0.71875
1631290419093,-0.671875,-0.078125,0.71875
1631290419125,-0.671875,-0.078125,0.734375
1631290419156,-0.671875,-0.078125,0.734375
1631290419187,-0.671875,-0.078125,0.71875
1631290419218,-0.65625,-0.078125,0.71875
1631290419250,-0.671875,-0.078125,0.71875
1631290419281,-0.671875,-0.09375,0.734375
1631290419312,-0.671875,-0.09375,0.734375
1631290419343,-0.671875,-0.078125,0.71875
1631290419375,-0.65625,-0.078125,0.734375
1631290419406,-0.65625,-0.078125,0.734375
1631290419437,-0.671875,-0.0625,0.734375
1631290419468,-0.65625,-0.09375,0.71875
1631290419500,-0.671875,-0.09375,0.71875
1631290419531,-0.671875,-0.09375,0.734375
1631290419562,-0.671875,-0.078125,0.734375
1631290419593,-0.65625,-0.078125,0.71875
1631290419625,-0.671875,-0.09375,0.71875
1631290419656,-0.671875,-0.09375,0.734375
1631290419687,-0.640625,-0.09375,0.734375
1631290419718,-0.640625,-0.09375,0.75
1631290419750,-0.671875,-0.09375,0.734375
1631290419781,-0.671875,-0.078125,0.734375
1631290419812,-0.671875,-0.078125,0.734375
1631290419843,-0.671875,-0.078125,0.734375
1631290419875,-0.671875,-0.078125,0.71875
1631290419906,-0.671875,-0.078125,0.734375
1631290419937,-0.671875,-0.078125,0.71875
1631290419968,-0.671875,-0.078125,0.71875
1631290420000,-0.65625,-0.078125,0.71875
1631290420031,-0.671875,-0.078125,0.734375
1631290420062,-0.671875,-0.078125,0.734375
1631290420093,-0.65625,-0.078125,0.734375
1631290420125,-0.6875,-0.078125,0.734375
1631290420156,-0.65625,-0.078125,0.71875
1631290420187,-0.640625,-0.09375,0.71875
1631290420218,-0.671875,-0.09375,0.734375
1631290420250,-0.671875,-0.078125,0.734375
1631290420281,-0.671875,-0.078125,0.734375
1631290420312,-0.671875,-0.078125,0.71875
1631290420343,-0.65625,-0.078125,0.734375
1631290420375,-0.671875,-0.09375,0.734375
1631290420406,-0.671875,-0.078125,0.71875
1631290420437,-0.671875,-0.078125,0.734375
1631290420468,-0.671875,-0.078125,0.734375
1631290420500,-0.671875,-0.078125,0.734375
1631290420531,-0.671875,-0.078125,0.734375
1631290420562,-0.671875,-0.078125,0.71875
1631290420593,-0.671875,-0.078125,0.734375
1631290420625,-0.671875,-0.078125,0.71875
1631290420656,-0.671875,-0.078125,0.734375
1631290420687,-0.671875,-0.078125,0.734375
1631290420718,-0.671875,-0.078125,0.734375
1631290420750,-0.671875,-0.078125,0.734375
1631290420781,-0.671875,-0.078125,0.734375
1631290420812,-0.671875,-0.078125,0.734375
1631290420843,-0.6875,-0.0625,0.71875
1631290420875,-0.640625,-0.078125,0.734375
1631290420906,-0.65625,-0.078125,0.734375
1631290420937,-0.640625,-0.09375,0.734375
1631290420968,-0.65625,-0.09375,0.734375
1631290421000,-0.671875,-0.078125,0.734375
1631290421031,-0.671875,-0.078125,0.734375
1631290421062,-0.65625,-0.078125,0.734375
1631290421093,-0.671875,-0.078125,0.734375
1631290421125,-0.671875,-0.078125,0.734375
1631290421156,-0.671875,-0.078125,0.734375
1631290421187,-0.671875,-0.078125,0.734375
1631290421218,-0.671875,-0.078125,0.734375
1631290421250,-0.671875,-0.078125,0.734375
1631290421281,-0.671875,-0.078125,0.71875
1631290421312,-0.65625,-0.078125,0.734375
1631290421343,-0.65625,-0.09375,0.71875
1631290421375,-0.671875,-0.09375,0.734375
1631290421406,-0.65625,-0.09375,0.734375
1631290421437,-0.671875,-0.078125,0.734375
1631290421468,-0.65625,-0.078125,0.734375
1631290421500,-0.65625,-0.078125,0.734375
1631290421531,-0.65625,-0.078125,0.734375
1631290421562,-0.671875,-0.078125,0.734375
1631290421593,-0.65625,-0.078125,0.734375
1631290421625,-0.671875,-0.078125,0.734375
1631290421656,-0.65625,-0.078125,0.734375
1631290421687,-0.671875,-0.0625,0.734375
1631290421718,-0.65625,-0.0625,0.734375
1631290421750,-0.65625,-0.09375,0.734375
1631290421781,-0.671875,-0.09375,0.734375
1631290421812,-0.671875,-0.09375,0.734375
1631290421843,-0.671875,-0.078125,0.734375
1631290421875,-0.6875,-0.078125,0.71875
1631290421906,-0.65625,-0.078125,0.734375
1631290421937,-0.640625,-0.109375,0.734375
1631290421968,-0.65625,-0.09375,0.734375
1631290422000,-0.65625,-0.078125,0.734375
1631290422031,-0.65625,-0.078125,0.734375
1631290422062,-0.640625,-0.078125,0.75
1631290422093,-0.640625,-0.09375,0.734375
1631290422125,-0.671875,-0.09375,0.734375
1631290422156,-0.671875,-0.078125,0.71875
1631290422187,-0.671875,-0.078125,0.734375
1631290422218,-0.671875,-0.078125,0.734375
1631290422250,-0.671875,-0.078125,0.71875
1631290422281,-0.671875,-0.078125,0.71875
1631290422312,-0.671875,-0.09375,0.734375
1631290422343,-0.671875,-0.078125,0.734375
1631290422375,-0.671875,-0.078125,0.71875
1631290422406,-0.65625,-0.078125,0.734375
1631290422437,-0.671875,-0.078125,0.734375
1631290422468,-0.65625,-0.09375,0.734375
1631290422500,-0.671875,-0.09375,0.734375
1631290422531,-0.671875,-0.09375,0.734375
1631290422562,-0.671875,-0.078125,0.734375
1631290422593,-0.671875,-0.078125,0.734375
1631290422625,-0.671875,-0.078125,0.734375
1631290422656,-0.671875,-0.046875,0.71875
1631290422687,-0.640625,-0.078125,0.734375
1631290422718,-0.65625,-0.109375,0.71875
1631290422750,-0.6875,-0.109375,0.71875
1631290422781,-0.671875,-0.078125,0.734375
1631290422812,-0.671875,-0.078125,0.71875
1631290422843,-0.671875,-0.0625,0.71875
1631290422875,-0.640625,-0.09375,0.734375
1631290422906,-0.625,-0.109375,0.734375
1631290422937,-0.65625,-0.109375,0.734375
1631290422968,-0.65625,-0.09375,0.734375
1631290423000,-0.671875,-0.078125,0.734375
1631290423031,-0.65625,-0.0625,0.734375
1631290423062,-0.65625,-0.078125,0.734375
1631290423093,-0.671875,-0.09375,0.734375
1631290423125,-0.671875,-0.078125,0.734375
1631290423156,-0.671875,-0.078125,0.734375
1631290423187,-0.65625,-0.078125,0.71875
1631290423218,-0.671875,-0.078125,0.734375
1631290423250,-0.65625,-0.078125,0.71875
1631290423281,-0.65625,-0.09375,0.734375
1631290423312,-0.65625,-0.09375,0.71875
1631290423343,-0.65625,-0.078125,0.734375
1631290423375,-0.671875,-0.078125,0.734375
1631290423406,-0.671875,-0.078125,0.734375
1631290423437,-0.671875,-0.078125,0.734375
1631290423468,-0.65625,-0.078125,0.734375
1631290423500,-0.65625,-0.078125,0.71875
1631290423531,-0.671875,-0.078125,0.734375
1631290423562,-0.671875,-0.078125,0.734375
1631290423593,-0.671875,-0.078125,0.734375
1631290423625,-0.671875,-0.078125,0.734375
1631290423656,-0.6875,-0.078125,0.71875
1631290423687,-0.65625,-0.078125,0.734375
1631290423718,-0.625,-0.078125,0.75
1631290423750,-0.65625,-0.078125,0.734375
1631290423781,-0.640625,-0.09375,0.734375
1631290423812,-0.65625,-0.09375,0.734375
1631290423843,-0.65625,-0.09375,0.734375
1631290423875,-0.671875,-0.09375,0.734375
1631290423906,-0.65625,-0.078125,0.734375
1631290423937,-0.65625,-0.078125,0.734375
1631290423968,-0.65625,-0.078125,0.734375
1631290424000,-0.671875,-0.078125,0.734375
1631290424031,-0.65625,-0.078125,0.734375
1631290424062,-0.671875,-0.078125,0.734375
1631290424093,-0.671875,-0.078125,0.734375
1631290424125,-0.65625,-0.0625,0.734375
1631290424156,-0.65625,-0.078125,0.734375
1631290424187,-0.65625,-0.09375,0.734375
1631290424218,-0.65625,-0.09375,0.734375
1631290424250,-0.671875,-0.09375,0.734375
1631290424281,-0.671875,-0.078125,0.734375
1631290424312,-0.65625,-0.078125,0.734375
1631290424343,-0.65625,-0.078125,0.734375
1631290424375,-0.671875,-0.078125,0.734375
1631290424406,-0.671875,-0.0625,0.734375
1631290424437,-0.65625,-0.0625,0.734375
1631290424468,-0.65625,-0.09375,0.734375
1631290424500,-0.671875,-0.078125,0.734375
1631290424531,-0.671875,-0.078125,0.734375
1631290424562,-0.6875,-0.078125,0.71875
1631290424593,-0.65625,-0.078125,0.734375
1631290424625,-0.65625,-0.09375,0.734375
1631290424656,-0.640625,-0.09375,0.734375
1631290424687,-0.640625,-0.09375,0.734375
1631290424718,-0.640625,-0.09375,0.75
1631290424750,-0.640625,-0.09375,0.734375
1631290424781,-0.6875,-0.078125,0.71875
1631290424812,-0.65625,-0.078125,0.734375
1631290424843,-0.65625,-0.078125,0.734375
1631290424875,-0.65625,-0.078125,0.734375
1631290424906,-0.671875,-0.078125,0.734375
1631290424937,-0.6875,-0.078125,0.734375
1631290424968,-0.65625,-0.078125,0.734375
1631290425000,-0.65625,-0.078125,0.734375
1631290425031,-0.671875,-0.09375,0.734375
1631290425062,-0.65625,-0.09375,0.734375
1631290425093,-0.65625,-0.078125,0.734375
1631290425125,-0.671875,-0.09375,0.734375
1631290425156,-0.671875,-0.078125,0.734375
1631290425187,-0.65625,-0.078125,0.734375
1631290425218,-0.65625,-0.09375,0.734375
1631290425250,-0.65625,-0.09375,0.734375
1631290425281,-0.6875,-0.09375,0.734375
1631290425312,-0.6875,-0.078125,0.734375
1631290425343,-0.671875,-0.0625,0.734375
1631290425375,-0.65625,-0.078125,0.734375
1631290425406,-0.65625,-0.09375,0.734375
1631290425437,-0.65625,-0.109375,0.734375
1631290425468,-0.65625,-0.109375,0.734375
1631290425500,-0.671875,-0.09375,0.734375
1631290425531,-0.671875,-0.078125,0.734375
1631290425562,-0.671875,-0.078125,0.71875
1631290425593,-0.671875,-0.078125,0.734375
1631290425625,-0.671875,-0.09375,0.734375
1631290425656,-0.671875,-0.09375,0.734375
1631290425687,-0.671875,-0.078125,0.734375
1631290425718,-0.671875,-0.078125,0.734375
1631290425750,-0.671875,-0.09375,0.734375
1631290425781,-0.65625,-0.09375,0.734375
1631290425812,-0.671875,-0.09375,0.734375
1631290425843,-0.65625,-0.09375,0.734375
1631290425875,-0.65625,-0.078125,0.734375
1631290425906,-0.671875,-0.09375,0.734375
1631290425937,-0.671875,-0.09375,0.71875
1631290425968,-0.671875,-0.09375,0.734375
1631290426000,-0.671875,-0.078125,0.734375
1631290426031,-0.671875,-0.078125,0.734375
1631290426062,-0.671875,-0.078125,0.734375
1631290426093,-0.671875,-0.09375,0.734375
1631290426125,-0.671875,-0.078125,0.734375
1631290426156,-0.671875,-0.078125,0.71875
1631290426187,-0.671875,-0.078125,0.71875
1631290426218,-0.671875,-0.078125,0.71875
1631290426250,-0.671875,-0.078125,0.71875
1631290426281,-0.671875,-0.078125,0.734375
1631290426312,-0.671875,-0.078125,0.71875
1631290426343,-0.671875,-0.078125,0.71875
1631290426375,-0.671875,-0.078125,0.71875
1631290426406,-0.671875,-0.09375,0.71875
1631290426437,-0.671875,-0.078125,0.71875
1631290426468,-0.671875,-0.078125,0.734375
1631290426500,-0.671875,-0.078125,0.71875
1631290426531,-0.671875,-0.078125,0.734375
1631290426562,-0.671875,-0.078125,0.71875
1631290426593,-0.671875,-0.078125,0.71875
1631290426625,-0.671875,-0.078125,0.734375
1631290426656,-0.671875,-0.09375,0.71875
1631290426687,-0.671875,-0.078125,0.71875
1631290426718,-0.671875,-0.09375,0.734375
1631290426750,-0.671875,-0.078125,0.71875
1631290426781,-0.671875,-0.078125,0.71875
1631290426812,-0.671875,-0.078125,0.71875
1631290426843,-0.671875,-0.078125,0.734375
1631290426875,-0.671875,-0.078125,0.71875
1631290426906,-0.671875,-0.078125,0.71875
1631290426937,-0.671875,-0.09375,0.734375
1631290426968,-0.671875,-0.078125,0.71875
1631290427000,-0.671875,-0.078125,0.71875
1631290427031,-0.671875,-0.078125,0.71875
1631290427062,-0.671875,-0.078125,0.71875
1631290427093,-0.671875,-0.078125,0.71875
1631290427125,-0.671875,-0.078125,0.71875
1631290427156,-0.671875,-0.078125,0.71875
1631290427187,-0.671875,-0.078125,0.71875
1631290427218,-0.671875,-0.078125,0.71875
1631290427250,-0.671875,-0.078125,0.71875
1631290427281,-0.671875,-0.078125,0.71875
1631290427312,-0.671875,-0.078125,0.734375
1631290427343,-0.671875,-0.078125,0.71875
1631290427375,-0.671875,-0.078125,0.71875
1631290427406,-0.6875,-0.078125,0.734375
1631290427437,-0.671875,-0.078125,0.71875
1631290427468,-0.671875,-0.078125,0.71875
1631290427500,-0.671875,-0.09375,0.71875
1631290427531,-0.671875,-0.078125,0.71875
1631290427562,-0.671875,-0.078125,0.71875
1631290427593,-0.671875,-0.078125,0.734375
1631290427625,-0.671875,-0.078125,0.71875
1631290427656,-0.671875,-0.078125,0.71875
1631290427687,-0.671875,-0.078125,0.734375
1631290427718,-0.671875,-0.078125,0.71875
1631290427750,-0.671875,-0.078125,0.734375
1631290427781,-0.671875,-0.078125,0.71875
1631290427812,-0.671875,-0.078125,0.71875
1631290427843,-0.671875,-0.078125,0.71875
1631290427875,-0.671875,-0.078125,0.71875
1631290427906,-0.671875,-0.078125,0.71875
1631290427937,-0.671875,-0.078125,0.71875
1631290427968,-0.671875,-0.078125,0.71875
