timestamp,ax,ay,az
1630937420093,-0.4375,0.28125,0.828125
1630937420125,-0.421875,0.28125,0.84375
1630937420156,-0.40625,0.296875,0.859375
1630937420187,-0.40625,0.28125,0.84375
1630937420218,-0.40625,0.28125,0.859375
1630937420250,-0.421875,0.265625,0.84375
1630937420281,-0.40625,0.265625,0.859375
1630937420312,-0.421875,0.28125,0.859375
1630937420343,-0.40625,0.28125,0.859375
1630937420375,-0.40625,0.28125,0.84375
1630937420406,-0.421875,0.28125,0.84375
1630937420437,-0.421875,0.28125,0.84375
1630937420468,-0.40625,0.28125,0.859375
1630937420500,-0.421875,0.265625,0.84375
1630937420531,-0.421875,0.28125,0.859375
1630937420562,-0.421875,0.28125,0.859375
1630937420593,-0.40625,0.28125,0.859375
1630937420625,-0.40625,0.28125,0.859375
1630937420656,-0.4375,0.28125,0.84375
1630937420687,-0.4375,0.28125,0.828125
1630937420718,-0.4375,0.28125,0.84375
1630937420750,-0.4375,0.296875,0.84375
1630937420781,-0.453125,0.296875,0.84375
1630937420812,-0.4375,0.296875,0.84375
1630937420843,-0.453125,0.28125,0.84375
1630937420875,-0.4375,0.28125,0.859375
1630937420906,-0.40625,0.265625,0.859375
1630937420937,-0.421875,0.25,0.859375
1630937420968,-0.421875,0.265625,0.859375
1630937421000,-0.4375,0.25,0.828125
1630937421031,-0.4375,0.234375,0.828125
1630937421062,-0.40625,0.25,0.84375
1630937421093,-0.40625,0.265625,0.859375
1630937421125,-0.40625,0.265625,0.859375
1630937421156,-0.375,0.265625,0.859375
1630937421187,-0.375,0.265625,0.859375
1630937421218,-0.390625,0.28125,0.890625
1630937421250,-0.40625,0.265625,0.90625
1630937421281,-0.40625,0.296875,0.90625
1630937421312,-0.359375,0.21875,0.859375
1630937421343,-0.4375,0.21875,0.84375
1630937421375,-0.46875,0.25,0.84375
1630937421406,-0.40625,0.25,0.8125
1630937421437,-0.453125,0.25,0.796875
1630937421468,-0.46875,0.265625,0.78125
1630937421500,-0.484375,0.25,0.796875
1630937421531,-0.5625,0.265625,0.75
1630937421562,-0.546875,0.25,0.71875
1630937421593,-0.546875,0.265625,0.703125
1630937421625,-0.53125,0.265625,0.703125
1630937421656,-0.546875,0.28125,0.703125
1630937421687,-0.625,0.296875,0.765625
1630937421718,-0.71875,0.28125,0.765625
1630937421750,-0.75,0.28125,0.734375
1630937421781,-0.65625,0.296875,0.71875
1630937421812,-0.59375,0.3125,0.6875
1630937421843,-0.59375,0.3125,0.6875
1630937421875,-0.609375,0.328125,0.6875
1630937421906,-0.609375,0.328125,0.703125
1630937421937,-0.640625,0.328125,0.75
1630937421968,-0.65625,0.296875,0.734375
1630937422000,-0.640625,0.28125,0.71875
1630937422031,-0.625,0.265625,0.71875
1630937422062,-0.5625,0.265625,0.75
1630937422093,-0.53125,0.265625,0.765625
1630937422125,-0.515625,0.28125,0.828125
1630937422156,-0.578125,0.28125,0.8125
1630937422187,-0.5,0.265625,0.796875
1630937422218,-0.515625,0.265625,0.796875
1630937422250,-0.546875,0.265625,0.78125
1630937422281,-0.59375,0.265625,0.75
1630937422312,-0.625,0.25,0.71875
1630937422343,-0.5625,0.25,0.765625
1630937422375,-0.546875,0.265625,0.78125
1630937422406,-0.546875,0.265625,0.8125
1630937422437,-0.546875,0.25,0.796875
1630937422468,-0.578125,0.25,0.765625
1630937422500,-0.609375,0.234375,0.734375
1630937422531,-0.609375,0.234375,0.71875
1630937422562,-0.609375,0.234375,0.71875
1630937422593,-0.609375,0.234375,0.734375
1630937422625,-0.59375,0.234375,0.75
1630937422656,-0.59375,0.25,0.75
1630937422687,-0.5625,0.234375,0.734375
1630937422718,-0.5625,0.234375,0.75
1630937422750,-0.546875,0.21875,0.75
1630937422781,-0.546875,0.234375,0.78125
1630937422812,-0.53125,0.265625,0.828125
1630937422843,-0.578125,0.265625,0.796875
1630937422875,-0.59375,0.28125,0.765625
1630937422906,-0.578125,0.265625,0.734375
1630937422937,-0.5625,0.265625,0.734375
1630937422968,-0.53125,0.25,0.765625
1630937423000,-0.59375,0.234375,0.75
1630937423031,-0.609375,0.234375,0.75
1630937423062,-0.640625,0.25,0.75
1630937423093,-0.578125,0.25,0.75
1630937423125,-0.5625,0.25,0.78125
1630937423156,-0.578125,0.234375,0.765625
1630937423187,-0.59375,0.234375,0.765625
1630937423218,-0.625,0.25,0.75
1630937423250,-0.609375,0.265625,0.734375
1630937423281,-0.578125,0.265625,0.75
1630937423312,-0.546875,0.265625,0.765625
1630937423343,-0.5625,0.265625,0.78125
1630937423375,-0.578125,0.265625,0.78125
1630937423406,-0.53125,0.28125,0.8125
1630937423437,-0.390625,0.34375,0.90625
1630937423468,-0.625,0.1875,0.6875
1630937423500,-0.59375,0.21875,0.703125
1630937423531,-0.671875,0.234375,0.6875
1630937423562,-0.625,0.25,0.734375
1630937423593,-0.609375,0.25,0.75
1630937423625,-0.546875,0.25,0.796875
1630937423656,-0.53125,0.25,0.796875
1630937423687,-0.546875,0.234375,0.78125
1630937423718,-0.59375,0.234375,0.765625
1630937423750,-0.609375,0.234375,0.765625
1630937423781,-0.59375,0.25,0.765625
1630937423812,-0.5625,0.265625,0.765625
1630937423843,-0.578125,0.265625,0.75
1630937423875,-0.578125,0.265625,0.75
1630937423906,-0.578125,0.265625,0.734375
1630937423937,-0.5625,0.28125,0.75
1630937423968,-0.5625,0.265625,0.765625
1630937424000,-0.5625,0.265625,0.78125
1630937424031,-0.546875,0.234375,0.78125
1630937424062,-0.546875,0.234375,0.796875
1630937424093,-0.53125,0.234375,0.8125
1630937424125,-0.53125,0.234375,0.8125
1630937424156,-0.53125,0.25,0.796875
1630937424187,-0.5625,0.25,0.78125
1630937424218,-0.578125,0.25,0.765625
1630937424250,-0.5625,0.265625,0.765625
1630937424281,-0.5625,0.265625,0.78125
1630937424312,-0.46875,0.328125,0.875
1630937424343,-0.59375,0.21875,0.671875
1630937424375,-0.625,0.25,0.734375
1630937424406,-0.609375,0.25,0.765625
1630937424437,-0.578125,0.25,0.765625
1630937424468,-0.578125,0.25,0.796875
1630937424500,-0.46875,0.21875,0.828125
1630937424531,-0.5,0.21875,0.8125
1630937424562,-0.5625,0.1875,0.765625
1630937424593,-0.609375,0.203125,0.765625
1630937424625,-0.578125,0.21875,0.796875
1630937424656,-0.5625,0.21875,0.78125
1630937424687,-0.515625,0.21875,0.796875
1630937424718,-0.546875,0.21875,0.796875
1630937424750,-0.5625,0.21875,0.78125
1630937424781,-0.578125,0.21875,0.78125
1630937424812,-0.578125,0.234375,0.78125
1630937424843,-0.5625,0.25,0.78125
1630937424875,-0.5625,0.25,0.78125
1630937424906,-0.546875,0.234375,0.78125
1630937424937,-0.546875,0.234375,0.78125
1630937424968,-0.5625,0.21875,0.78125
1630937425000,-0.5625,0.234375,0.78125
1630937425031,-0.578125,0.234375,0.765625
1630937425062,-0.546875,0.21875,0.78125
1630937425093,-0.53125,0.21875,0.765625
1630937425125,-0.53125,0.203125,0.78125
1630937425156,-0.546875,0.21875,0.8125
1630937425187,-0.578125,0.21875,0.796875
1630937425218,-0.578125,0.234375,0.78125
1630937425250,-0.5625,0.234375,0.796875
1630937425281,-0.53125,0.234375,0.796875
1630937425312,-0.53125,0.234375,0.796875
1630937425343,-0.53125,0.21875,0.78125
1630937425375,-0.515625,0.234375,0.796875
1630937425406,-0.515625,0.234375,0.8125
1630937425437,-0.515625,0.234375,0.8125
1630937425468,-0.546875,0.25,0.8125
1630937425500,-0.546875,0.25,0.8125
1630937425531,-0.53125,0.234375,0.796875
1630937425562,-0.5,0.25,0.8125
1630937425593,-0.5,0.25,0.796875
1630937425625,-0.5,0.25,0.828125
1630937425656,-0.515625,0.265625,0.8125
1630937425687,-0.515625,0.265625,0.796875
1630937425718,-0.515625,0.265625,0.796875
1630937425750,-0.515625,0.265625,0.796875
1630937425781,-0.484375,0.25,0.796875
1630937425812,-0.5,0.25,0.8125
1630937425843,-0.5,0.25,0.84375
1630937425875,-0.546875,0.234375,0.765625
1630937425906,-0.5,0.234375,0.8125
1630937425937,-0.53125,0.25,0.796875
1630937425968,-0.546875,0.25,0.78125
1630937426000,-0.515625,0.25,0.796875
1630937426031,-0.46875,0.265625,0.84375
1630937426062,-0.484375,0.265625,0.8125
1630937426093,-0.5,0.265625,0.8125
1630937426125,-0.5,0.25,0.796875
1630937426156,-0.484375,0.25,0.8125
1630937426187,-0.5,0.25,0.828125
1630937426218,-0.5,0.265625,0.828125
1630937426250,-0.484375,0.25,0.828125
1630937426281,-0.5,0.25,0.8125
1630937426312,-0.5,0.25,0.8125
1630937426343,-0.515625,0.265625,0.8125
1630937426375,-0.484375,0.25,0.8125
1630937426406,-0.5,0.25,0.8125
1630937426437,-0.515625,0.25,0.796875
1630937426468,-0.515625,0.25,0.796875
1630937426500,-0.515625,0.265625,0.796875
1630937426531,-0.515625,0.25,0.8125
1630937426562,-0.5,0.265625,0.8125
1630937426593,-0.515625,0.25,0.8125
1630937426625,-0.515625,0.25,0.8125
1630937426656,-0.5,0.25,0.796875
1630937426687,-0.515625,0.25,0.796875
1630937426718,-0.515625,0.25,0.8125
1630937426750,-0.515625,0.25,0.796875
1630937426781,-0.515625,0.25,0.796875
1630937426812,-0.515625,0.25,0.796875
1630937426843,-0.515625,0.265625,0.8125
1630937426875,-0.5,0.265625,0.8125
1630937426906,-0.5,0.265625,0.8125
1630937426937,-0.5,0.265625,0.8125
1630937426968,-0.5,0.265625,0.796875
1630937427000,-0.5,0.265625,0.796875
1630937427031,-0.5,0.25,0.8125
1630937427062,-0.5,0.25,0.828125
1630937427093,-0.5,0.25,0.828125
1630937427125,-0.5,0.265625,0.828125
1630937427156,-0.5,0.25,0.8125
1630937427187,-0.5,0.25,0.8125
1630937427218,-0.5,0.265625,0.8125
1630937427250,-0.5,0.265625,0.796875
1630937427281,-0.515625,0.265625,0.796875
1630937427312,-0.484375,0.265625,0.796875
1630937427343,-0.484375,0.28125,0.828125
1630937427375,-0.515625,0.234375,0.796875
1630937427406,-0.53125,0.234375,0.796875
1630937427437,-0.515625,0.21875,0.8125
1630937427468,-0.5,0.234375,0.84375
1630937427500,-0.46875,0.234375,0.84375
1630937427531,-0.484375,0.234375,0.828125
1630937427562,-0.53125,0.234375,0.78125
1630937427593,-0.546875,0.25,0.8125
1630937427625,-0.5625,0.25,0.8125
1630937427656,-0.515625,0.25,0.8125
1630937427687,-0.515625,0.234375,0.796875
1630937427718,-0.546875,0.234375,0.8125
1630937427750,-0.546875,0.234375,0.796875
1630937427781,-0.53125,0.21875,0.796875
1630937427812,-0.515625,0.21875,0.796875
1630937427843,-0.46875,0.203125,0.8125
1630937427875,-0.484375,0.21875,0.84375
1630937427906,-0.484375,0.234375,0.84375
1630937427937,-0.484375,0.25,0.84375
1630937427968,-0.484375,0.234375,0.828125
1630937428000,-0.453125,0.25,0.828125
1630937428031,-0.4375,0.234375,0.828125
1630937428062,-0.453125,0.234375,0.8125
1630937428093,-0.484375,0.234375,0.8125
1630937428125,-0.46875,0.234375,0.8125
1630937428156,-0.453125,0.234375,0.828125
1630937428187,-0.453125,0.25,0.875
1630937428218,-0.46875,0.25,0.890625
1630937428250,-0.46875,0.265625,0.859375
1630937428281,-0.484375,0.265625,0.8125
1630937428312,-0.5,0.28125,0.8125
1630937428343,-0.5,0.234375,0.8125
1630937428375,-0.484375,0.234375,0.828125
1630937428406,-0.453125,0.234375,0.828125
1630937428437,-0.453125,0.234375,0.828125
1630937428468,-0.484375,0.25,0.84375
1630937428500,-0.5,0.25,0.84375
1630937428531,-0.484375,0.25,0.84375
1630937428562,-0.484375,0.25,0.828125
1630937428593,-0.46875,0.265625,0.8125
1630937428625,-0.46875,0.265625,0.828125
1630937428656,-0.46875,0.25,0.796875
1630937428687,-0.46875,0.234375,0.78125
1630937428718,-0.453125,0.25,0.828125
1630937428750,-0.5,0.25,0.8125
1630937428781,-0.53125,0.265625,0.828125
1630937428812,-0.59375,0.3125,0.8125
1630937428843,-0.5625,0.296875,0.796875
1630937428875,-0.375,0.234375,0.8125
1630937428906,-0.421875,0.21875,0.796875
1630937428937,-0.453125,0.28125,0.84375
1630937428968,-0.546875,0.296875,0.84375
1630937429000,-0.5,0.28125,0.796875
1630937429031,-0.5,0.265625,0.78125
1630937429062,-0.46875,0.25,0.8125
1630937429093,-0.46875,0.25,0.84375
1630937429125,-0.5,0.28125,0.859375
1630937429156,-0.5,0.265625,0.828125
1630937429187,-0.484375,0.25,0.8125
1630937429218,-0.453125,0.265625,0.828125
1630937429250,-0.4375,0.265625,0.84375
1630937429281,-0.46875,0.265625,0.828125
1630937429312,-0.5,0.265625,0.796875
1630937429343,-0.515625,0.265625,0.796875
1630937429375,-0.46875,0.265625,0.8125
1630937429406,-0.453125,0.265625,0.828125
1630937429437,-0.46875,0.265625,0.828125
1630937429468,-0.484375,0.265625,0.828125
1630937429500,-0.453125,0.25,0.828125
1630937429531,-0.46875,0.265625,0.859375
1630937429562,-0.515625,0.234375,0.828125
1630937429593,-0.515625,0.234375,0.78125
1630937429625,-0.484375,0.203125,0.734375
1630937429656,-0.46875,0.234375,0.765625
1630937429687,-0.484375,0.265625,0.828125
1630937429718,-0.546875,0.28125,0.8125
1630937429750,-0.53125,0.28125,0.8125
1630937429781,-0.53125,0.3125,0.84375
1630937429812,-0.5625,0.265625,0.796875
1630937429843,-0.421875,0.265625,0.828125
1630937429875,-0.390625,0.25,0.8125
1630937429906,-0.40625,0.25,0.8125
1630937429937,-0.484375,0.265625,0.8125
1630937429968,-0.5,0.296875,0.8125
1630937430000,-0.484375,0.296875,0.8125
1630937430031,-0.515625,0.28125,0.8125
1630937430062,-0.515625,0.265625,0.796875
1630937430093,-0.5,0.265625,0.796875
1630937430125,-0.5,0.25,0.8125
1630937430156,-0.515625,0.25,0.8125
1630937430187,-0.515625,0.25,0.8125
1630937430218,-0.515625,0.25,0.8125
1630937430250,-0.515625,0.25,0.796875
1630937430281,-0.5625,0.234375,0.796875
1630937430312,-0.515625,0.234375,0.8125
1630937430343,-0.5625,0.21875,0.78125
1630937430375,-0.515625,0.21875,0.796875
1630937430406,-0.515625,0.25,0.8125
1630937430437,-0.5,0.265625,0.8125
1630937430468,-0.484375,0.265625,0.796875
1630937430500,-0.484375,0.28125,0.8125
1630937430531,-0.484375,0.28125,0.8125
1630937430562,-0.484375,0.28125,0.8125
1630937430593,-0.46875,0.265625,0.8125
1630937430625,-0.484375,0.265625,0.8125
1630937430656,-0.484375,0.265625,0.8125
1630937430687,-0.46875,0.265625,0.828125
1630937430718,-0.46875,0.265625,0.828125
1630937430750,-0.484375,0.28125,0.8125
1630937430781,-0.484375,0.28125,0.8125
1630937430812,-0.46875,0.296875,0.8125
1630937430843,-0.453125,0.296875,0.828125
1630937430875,-0.5,0.265625,0.8125
1630937430906,-0.5,0.265625,0.8125
1630937430937,-0.484375,0.265625,0.8125
1630937430968,-0.46875,0.265625,0.828125
1630937431000,-0.484375,0.265625,0.828125
1630937431031,-0.484375,0.265625,0.828125
1630937431062,-0.453125,0.265625,0.828125
1630937431093,-0.484375,0.28125,0.828125
1630937431125,-0.46875,0.265625,0.8125
1630937431156,-0.484375,0.28125,0.8125
1630937431187,-0.46875,0.28125,0.8125
1630937431218,-0.46875,0.28125,0.8125
1630937431250,-0.46875,0.28125,0.8125
1630937431281,-0.46875,0.28125,0.8125
1630937431312,-0.484375,0.28125,0.8125
1630937431343,-0.484375,0.28125,0.8125
1630937431375,-0.484375,0.265625,0.8125
1630937431406,-0.484375,0.28125,0.828125
1630937431437,-0.46875,0.265625,0.828125
1630937431468,-0.46875,0.265625,0.828125
1630937431500,-0.46875,0.28125,0.828125
1630937431531,-0.484375,0.265625,0.8125
1630937431562,-0.484375,0.265625,0.8125
1630937431593,-0.46875,0.28125,0.828125
1630937431625,-0.46875,0.265625,0.8125
1630937431656,-0.46875,0.265625,0.8125
1630937431687,-0.484375,0.265625,0.828125
1630937431718,-0.46875,0.265625,0.828125
1630937431750,-0.46875,0.28125,0.8125
1630937431781,-0.4375,0.28125,0.84375
1630937431812,-0.46875,0.265625,0.828125
1630937431843,-0.484375,0.28125,0.8125
1630937431875,-0.5,0.28125,0.796875
1630937431906,-0.5,0.28125,0.796875
1630937431937,-0.484375,0.28125,0.8125
1630937431968,-0.484375,0.28125,0.8125
1630937432000,-0.484375,0.28125,0.8125
1630937432031,-0.5,0.28125,0.8125
1630937432062,-0.5,0.28125,0.8125
1630937432093,-0.5,0.28125,0.8125
1630937432125,-0.5,0.265625,0.8125
1630937432156,-0.515625,0.265625,0.796875
1630937432187,-0.515625,0.265625,0.796875
1630937432218,-0.5,0.265625,0.8125
1630937432250,-0.5,0.265625,0.8125
1630937432281,-0.515625,0.265625,0.796875
1630937432312,-0.53125,0.265625,0.796875
1630937432343,-0.53125,0.265625,0.796875
1630937432375,-0.515625,0.265625,0.796875
1630937432406,-0.515625,0.265625,0.796875
1630937432437,-0.5,0.265625,0.8125
1630937432468,-0.5,0.265625,0.8125
1630937432500,-0.5,0.265625,0.8125
1630937432531,-0.5,0.265625,0.8125
1630937432562,-0.5,0.28125,0.8125
1630937432593,-0.484375,0.265625,0.8125
1630937432625,-0.484375,0.265625,0.8125
1630937432656,-0.484375,0.28125,0.8125
1630937432687,-0.484375,0.28125,0.8125
1630937432718,-0.484375,0.28125,0.8125
1630937432750,-0.484375,0.28125,0.8125
1630937432781,-0.5,0.265625,0.8125
1630937432812,-0.5,0.265625,0.8125
1630937432843,-0.5,0.265625,0.8125
1630937432875,-0.484375,0.265625,0.8125
1630937432906,-0.5,0.265625,0.8125
1630937432937,-0.5,0.265625,0.8125
1630937432968,-0.484375,0.28125,0.8125
1630937433000,-0.484375,0.28125,0.8125
1630937433031,-0.484375,0.28125,0.8125
1630937433062,-0.484375,0.265625,0.8125
1630937433093,-0.484375,0.265625,0.8125
1630937433125,-0.484375,0.265625,0.828125
1630937433156,-0.484375,0.265625,0.8125
1630937433187,-0.484375,0.265625,0.8125
1630937433218,-0.484375,0.265625,0.8125
1630937433250,-0.484375,0.265625,0.8125
1630937433281,-0.484375,0.265625,0.8125
1630937433312,-0.484375,0.265625,0.8125
1630937433343,-0.484375,0.28125,0.8125
1630937433375,-0.484375,0.265625,0.8125
1630937433406,-0.484375,0.265625,0.8125
1630937433437,-0.5,0.265625,0.8125
1630937433468,-0.484375,0.265625,0.8125
1630937433500,-0.484375,0.28125,0.8125
1630937433531,-0.484375,0.28125,0.8125
1630937433562,-0.484375,0.28125,0.8125
1630937433593,-0.5,0.28125,0.8125
1630937433625,-0.484375,0.265625,0.8125
1630937433656,-0.484375,0.265625,0.8125
1630937433687,-0.484375,0.265625,0.8125
1630937433718,-0.5,0.265625,0.8125
1630937433750,-0.484375,0.265625,0.8125
1630937433781,-0.484375,0.265625,0.8125
1630937433812,-0.484375,0.28125,0.8125
1630937433843,-0.484375,0.265625,0.8125
1630937433875,-0.484375,0.265625,0.8125
1630937433906,-0.484375,0.265625,0.8125
1630937433937,-0.5,0.265625,0.8125
1630937433968,-0.484375,0.265625,0.8125
1630937434000,-0.484375,0.28125,0.8125
1630937434031,-0.484375,0.28125,0.8125
1630937434062,-0.484375,0.28125,0.8125
1630937434093,-0.484375,0.28125,0.8125
1630937434125,-0.484375,0.28125,0.8125
1630937434156,-0.484375,0.265625,0.8125
1630937434187,-0.484375,0.28125,0.8125
1630937434218,-0.5,0.28125,0.8125
1630937434250,-0.484375,0.265625,0.8125
1630937434281,-0.484375,0.265625,0.8125
1630937434312,-0.484375,0.265625,0.8125
1630937434343,-0.484375,0.265625,0.8125
1630937434375,-0.484375,0.265625,0.8125
1630937434406,-0.484375,0.28125,0.8125
1630937434437,-0.5,0.265625,0.8125
1630937434468,-0.484375,0.265625,0.8125
1630937434500,-0.484375,0.265625,0.8125
1630937434531,-0.484375,0.265625,0.8125
1630937434562,-0.484375,0.28125,0.8125
1630937434593,-0.484375,0.28125,0.8125
1630937434625,-0.484375,0.28125,0.8125
1630937434656,-0.5,0.28125,0.8125
1630937434687,-0.484375,0.265625,0.8125
1630937434718,-0.484375,0.265625,0.8125
1630937434750,-0.484375,0.28125,0.8125
1630937434781,-0.484375,0.265625,0.8125
1630937434812,-0.484375,0.265625,0.8125
1630937434843,-0.484375,0.265625,0.8125
1630937434875,-0.484375,0.265625,0.8125
1630937434906,-0.484375,0.265625,0.8125
1630937434937,-0.484375,0.28125,0.8125
1630937434968,-0.484375,0.265625,0.8125
1630937435000,-0.484375,0.265625,0.8125
1630937435031,-0.484375,0.28125,0.8125
1630937435062,-0.484375,0.265625,0.8125
1630937435093,-0.484375,0.265625,0.8125
1630937435125,-0.484375,0.28125,0.8125
1630937435156,-0.5,0.28125,0.8125
1630937435187,-0.484375,0.265625,0.8125
1630937435218,-0.484375,0.265625,0.8125
1630937435250,-0.484375,0.265625,0.8125
1630937435281,-0.484375,0.28125,0.8125
1630937435312,-0.484375,0.28125,0.8125
1630937435343,-0.484375,0.28125,0.8125
1630937435375,-0.484375,0.28125,0.8125
1630937435406,-0.484375,0.265625,0.8125
1630937435437,-0.484375,0.265625,0.8125
1630937435468,-0.484375,0.265625,0.8125
1630937435500,-0.484375,0.265625,0.8125
1630937435531,-0.484375,0.28125,0.8125
1630937435562,-0.484375,0.28125,0.8125
1630937435593,-0.484375,0.265625,0.8125
1630937435625,-0.484375,0.28125,0.8125
1630937435656,-0.484375,0.265625,0.8125
1630937435687,-0.484375,0.265625,0.8125
1630937435718,-0.484375,0.28125,0.8125
1630937435750,-0.484375,0.265625,0.8125
1630937435781,-0.484375,0.28125,0.8125
1630937435812,-0.484375,0.28125,0.8125
1630937435843,-0.484375,0.265625,0.8125
1630937435875,-0.484375,0.265625,0.8125
1630937435906,-0.484375,0.265625,0.8125
1630937435937,-0.484375,0.28125,0.8125
1630937435968,-0.484375,0.265625,0.8125
1630937436000,-0.484375,0.28125,0.8125
1630937436031,-0.484375,0.265625,0.8125
1630937436062,-0.484375,0.265625,0.8125
1630937436093,-0.484375,0.28125,0.828125
1630937436125,-0.484375,0.28125,0.8125
1630937436156,-0.484375,0.265625,0.8125
1630937436187,-0.484375,0.265625,0.8125
1630937436218,-0.484375,0.28125,0.8125
1630937436250,-0.484375,0.28125,0.8125
1630937436281,-0.484375,0.28125,0.8125
1630937436312,-0.484375,0.28125,0.8125
1630937436343,-0.484375,0.28125,0.8125
1630937436375,-0.484375,0.28125,0.8125
1630937436406,-0.484375,0.265625,0.8125
1630937436437,-0.484375,0.28125,0.8125
1630937436468,-0.484375,0.28125,0.8125
1630937436500,-0.484375,0.28125,0.8125
1630937436531,-0.484375,0.28125,0.8125
1630937436562,-0.484375,0.28125,0.8125
1630937436593,-0.484375,0.265625,0.8125
1630937436625,-0.484375,0.265625,0.8125
1630937436656,-0.484375,0.28125,0.8125
1630937436687,-0.484375,0.265625,0.8125
1630937436718,-0.484375,0.28125,0.8125
1630937436750,-0.484375,0.28125,0.8125
1630937436781,-0.484375,0.28125,0.8125
1630937436812,-0.484375,0.265625,0.8125
1630937436843,-0.484375,0.28125,0.8125
1630937436875,-0.484375,0.28125,0.8125
1630937436906,-0.484375,0.265625,0.8125
1630937436937,-0.484375,0.265625,0.8125
1630937436968,-0.484375,0.265625,0.8125
1630937437000,-0.484375,0.28125,0.8125
1630937437031,-0.484375,0.28125,0.8125
1630937437062,-0.484375,0.28125,0.8125
1630937437093,-0.484375,0.28125,0.8125
1630937437125,-0.484375,0.265625,0.8125
1630937437156,-0.484375,0.28125,0.8125
1630937437187,-0.484375,0.28125,0.8125
1630937437218,-0.484375,0.265625,0.8125
1630937437250,-0.484375,0.265625,0.8125
1630937437281,-0.484375,0.28125,0.8125
1630937437312,-0.484375,0.265625,0.8125
1630937437343,-0.484375,0.265625,0.8125
1630937437375,-0.484375,0.28125,0.8125
1630937437406,-0.484375,0.265625,0.8125
1630937437437,-0.484375,0.28125,0.8125
1630937437468,-0.484375,0.28125,0.8125
1630937437500,-0.484375,0.28125,0.8125
1630937437531,-0.484375,0.28125,0.8125
1630937437562,-0.484375,0.265625,0.8125
1630937437593,-0.484375,0.265625,0.8125
1630937437625,-0.484375,0.28125,0.8125
1630937437656,-0.484375,0.28125,0.8125
1630937437687,-0.484375,0.28125,0.8125
1630937437718,-0.484375,0.28125,0.8125
1630937437750,-0.484375,0.265625,0.8125
1630937437781,-0.484375,0.265625,0.8125
1630937437812,-0.484375,0.28125,0.8125
1630937437843,-0.484375,0.265625,0.8125
1630937437875,-0.484375,0.265625,0.8125
1630937437906,-0.484375,0.265625,0.8125
1630937437937,-0.484375,0.265625,0.8125
1630937437968,-0.484375,0.28125,0.8125
1630937438000,-0.484375,0.265625,0.8125
1630937438031,-0.484375,0.28125,0.8125
1630937438062,-0.484375,0.265625,0.8125
1630937438093,-0.484375,0.265625,0.8125
1630937438125,-0.484375,0.265625,0.8125
1630937438156,-0.484375,0.28125,0.8125
1630937438187,-0.484375,0.265625,0.8125
1630937438218,-0.484375,0.265625,0.8125
1630937438250,-0.484375,0.265625,0.8125
1630937438281,-0.484375,0.265625,0.8125
1630937438312,-0.484375,0.265625,0.8125
1630937438343,-0.484375,0.28125,0.8125
1630937438375,-0.484375,0.265625,0.8125
1630937438406,-0.484375,0.265625,0.8125
1630937438437,-0.484375,0.28125,0.8125
1630937438468,-0.484375,0.28125,0.8125
1630937438500,-0.484375,0.265625,0.8125
1630937438531,-0.484375,0.265625,0.8125
1630937438562,-0.484375,0.265625,0.8125
1630937438593,-0.484375,0.265625,0.8125
1630937438625,-0.484375,0.265625,0.8125
1630937438656,-0.484375,0.265625,0.8125
1630937438687,-0.484375,0.265625,0.8125
1630937438718,-0.484375,0.265625,0.8125
1630937438750,-0.484375,0.265625,0.8125
1630937438781,-0.484375,0.265625,0.8125
1630937438812,-0.484375,0.265625,0.8125
1630937438843,-0.484375,0.265625,0.8125
1630937438875,-0.484375,0.265625,0.8125
1630937438906,-0.484375,0.265625,0.8125
1630937438937,-0.484375,0.28125,0.8125
1630937438968,-0.484375,0.28125,0.8125
1630937439000,-0.484375,0.265625,0.8125
1630937439031,-0.484375,0.265625,0.8125
1630937439062,-0.484375,0.265625,0.8125
1630937439093,-0.484375,0.265625,0.8125
1630937439125,-0.484375,0.265625,0.8125
1630937439156,-0.484375,0.265625,0.8125
1630937439187,-0.484375,0.265625,0.8125
1630937439218,-0.484375,0.265625,0.8125
1630937439250,-0.484375,0.265625,0.8125
1630937439281,-0.484375,0.265625,0.8125
1630937439312,-0.484375,0.28125,0.8125
1630937439343,-0.484375,0.28125,0.8125
1630937439375,-0.484375,0.265625,0.8125
1630937439406,-0.484375,0.28125,0.8125
1630937439437,-0.484375,0.265625,0.8125
1630937439468,-0.484375,0.265625,0.8125
1630937439500,-0.484375,0.28125,0.8125
1630937439531,-0.484375,0.265625,0.8125
1630937439562,-0.484375,0.265625,0.8125
1630937439593,-0.484375,0.265625,0.8125
1630937439625,-0.484375,0.28125,0.8125
1630937439656,-0.484375,0.28125,0.8125
1630937439687,-0.484375,0.28125,0.8125
1630937439718,-0.484375,0.265625,0.8125
1630937439750,-0.484375,0.265625,0.8125
1630937439781,-0.484375,0.265625,0.8125
1630937439812,-0.484375,0.265625,0.8125
1630937439843,-0.484375,0.28125,0.8125
1630937439875,-0.484375,0.28125,0.8125
1630937439906,-0.484375,0.28125,0.8125
1630937439937,-0.484375,0.28125,0.8125
1630937439968,-0.484375,0.28125,0.8125
1630937440000,-0.484375,0.28125,0.8125
1630937440031,-0.484375,0.28125,0.8125
1630937440062,-0.484375,0.28125,0.8125
1630937440093,-0.484375,0.28125,0.8125
1630937440125,-0.484375,0.28125,0.8125
1630937440156,-0.484375,0.265625,0.8125
1630937440187,-0.484375,0.265625,0.8125
1630937440218,-0.484375,0.28125,0.8125
1630937440250,-0.484375,0.28125,0.8125
1630937440281,-0.484375,0.28125,0.8125
1630937440312,-0.484375,0.28125,0.8125
1630937440343,-0.484375,0.265625,0.8125
1630937440375,-0.484375,0.28125,0.8125
1630937440406,-0.484375,0.265625,0.8125
1630937440437,-0.484375,0.28125,0.8125
1630937440468,-0.484375,0.265625,0.8125
1630937440500,-0.484375,0.28125,0.8125
1630937440531,-0.484375,0.28125,0.8125
1630937440562,-0.484375,0.265625,0.8125
1630937440593,-0.484375,0.28125,0.8125
1630937440625,-0.484375,0.28125,0.8125
1630937440656,-0.484375,0.265625,0.8125
1630937440687,-0.484375,0.28125,0.8125
1630937440718,-0.484375,0.265625,0.8125
1630937440750,-0.484375,0.28125,0.8125
1630937440781,-0.484375,0.28125,0.8125
1630937440812,-0.484375,0.265625,0.8125
1630937440843,-0.484375,0.265625,0.8125
1630937440875,-0.484375,0.28125,0.8125
1630937440906,-0.484375,0.265625,0.8125
1630937440937,-0.484375,0.265625,0.8125
1630937440968,-0.484375,0.28125,0.8125
1630937441000,-0.484375,0.265625,0.8125
1630937441031,-0.484375,0.28125,0.8125
1630937441062,-0.484375,0.28125,0.8125
1630937441093,-0.484375,0.265625,0.8125
1630937441125,-0.484375,0.265625,0.8125
1630937441156,-0.484375,0.28125,0.8125
1630937441187,-0.484375,0.28125,0.8125
1630937441218,-0.484375,0.28125,0.8125
1630937441250,-0.484375,0.28125,0.8125
1630937441281,-0.484375,0.265625,0.8125
1630937441312,-0.484375,0.265625,0.8125
1630937441343,-0.484375,0.28125,0.8125
1630937441375,-0.484375,0.265625,0.8125
1630937441406,-0.484375,0.28125,0.8125
1630937441437,-0.484375,0.265625,0.8125
1630937441468,-0.484375,0.28125,0.8125
1630937441500,-0.484375,0.28125,0.8125
1630937441531,-0.484375,0.265625,0.8125
1630937441562,-0.484375,0.28125,0.8125
1630937441593,-0.484375,0.265625,0.8125
1630937441625,-0.484375,0.265625,0.8125
1630937441656,-0.484375,0.265625,0.8125
1630937441687,-0.484375,0.28125,0.8125
1630937441718,-0.484375,0.265625,0.8125
1630937441750,-0.484375,0.28125,0.8125
1630937441781,-0.484375,0.265625,0.8125
1630937441812,-0.484375,0.265625,0.8125
1630937441843,-0.484375,0.28125,0.8125
1630937441875,-0.484375,0.28125,0.8125
1630937441906,-0.484375,0.265625,0.8125
1630937441937,-0.484375,0.265625,0.8125
1630937441968,-0.484375,0.265625,0.8125
1630937442000,-0.484375,0.265625,0.8125
1630937442031,-0.484375,0.28125,0.8125
1630937442062,-0.484375,0.265625,0.8125
1630937442093,-0.484375,0.265625,0.8125
1630937442125,-0.484375,0.265625,0.8125
1630937442156,-0.484375,0.265625,0.8125
1630937442187,-0.484375,0.265625,0.8125
1630937442218,-0.484375,0.28125,0.8125
1630937442250,-0.484375,0.28125,0.8125
1630937442281,-0.484375,0.265625,0.8125
1630937442312,-0.484375,0.265625,0.8125
1630937442343,-0.484375,0.265625,0.8125
1630937442375,-0.484375,0.28125,0.8125
1630937442406,-0.484375,0.265625,0.8125
1630937442437,-0.484375,0.265625,0.8125
1630937442468,-0.484375,0.265625,0.8125
1630937442500,-0.484375,0.265625,0.8125
1630937442531,-0.484375,0.28125,0.8125
1630937442562,-0.484375,0.28125,0.8125
1630937442593,-0.484375,0.28125,0.8125
1630937442625,-0.484375,0.265625,0.828125
1630937442656,-0.484375,0.265625,0.8125
1630937442687,-0.484375,0.265625,0.8125
1630937442718,-0.484375,0.28125,0.8125
1630937442750,-0.484375,0.28125,0.8125
1630937442781,-0.484375,0.265625,0.8125
1630937442812,-0.484375,0.28125,0.828125
1630937442843,-0.484375,0.28125,0.8125
1630937442875,-0.484375,0.265625,0.8125
1630937442906,-0.484375,0.265625,0.8125
1630937442937,-0.484375,0.265625,0.8125
1630937442968,-0.484375,0.265625,0.8125
1630937443000,-0.484375,0.28125,0.8125
1630937443031,-0.484375,0.28125,0.8125
1630937443062,-0.484375,0.265625,0.8125
1630937443093,-0.484375,0.265625,0.8125
1630937443125,-0.484375,0.265625,0.8125
1630937443156,-0.484375,0.265625,0.8125
1630937443187,-0.484375,0.265625,0.8125
1630937443218,-0.484375,0.28125,0.8125
1630937443250,-0.484375,0.28125,0.8125
1630937443281,-0.484375,0.265625,0.8125
1630937443312,-0.484375,0.265625,0.8125
1630937443343,-0.484375,0.28125,0.8125
1630937443375,-0.484375,0.28125,0.8125
1630937443406,-0.484375,0.28125,0.8125
1630937443437,-0.484375,0.28125,0.8125
1630937443468,-0.484375,0.28125,0.8125
1630937443500,-0.484375,0.28125,0.8125
1630937443531,-0.484375,0.28125,0.8125
1630937443562,-0.484375,0.28125,0.8125
1630937443593,-0.484375,0.265625,0.8125
1630937443625,-0.484375,0.28125,0.8125
1630937443656,-0.484375,0.28125,0.8125
1630937443687,-0.484375,0.28125,0.8125
1630937443718,-0.484375,0.28125,0.8125
1630937443750,-0.484375,0.265625,0.8125
1630937443781,-0.484375,0.28125,0.8125
1630937443812,-0.484375,0.28125,0.8125
1630937443843,-0.484375,0.265625,0.8125
1630937443875,-0.484375,0.265625,0.8125
1630937443906,-0.484375,0.28125,0.8125
1630937443937,-0.484375,0.28125,0.8125
1630937443968,-0.484375,0.28125,0.8125
1630937444000,-0.484375,0.265625,0.8125
1630937444031,-0.484375,0.28125,0.8125
1630937444062,-0.484375,0.265625,0.8125
1630937444093,-0.484375,0.28125,0.8125
1630937444125,-0.484375,0.265625,0.8125
1630937444156,-0.484375,0.28125,0.8125
1630937444187,-0.484375,0.28125,0.8125
1630937444218,-0.484375,0.28125,0.8125
1630937444250,-0.484375,0.28125,0.8125
1630937444281,-0.484375,0.28125,0.8125
1630937444312,-0.484375,0.28125,0.8125
1630937444343,-0.484375,0.28125,0.8125
1630937444375,-0.484375,0.28125,0.8125
1630937444406,-0.484375,0.28125,0.8125
1630937444437,-0.484375,0.28125,0.8125
1630937444468,-0.484375,0.265625,0.8125
1630937444500,-0.484375,0.28125,0.8125
1630937444531,-0.484375,0.28125,0.8125
1630937444562,-0.484375,0.28125,0.8125
1630937444593,-0.484375,0.28125,0.8125
1630937444625,-0.484375,0.28125,0.8125
1630937444656,-0.484375,0.265625,0.8125
1630937444687,-0.484375,0.265625,0.8125
1630937444718,-0.484375,0.28125,0.8125
1630937444750,-0.484375,0.28125,0.8125
1630937444781,-0.484375,0.265625,0.8125
1630937444812,-0.484375,0.28125,0.8125
1630937444843,-0.484375,0.28125,0.8125
1630937444875,-0.484375,0.28125,0.8125
1630937444906,-0.484375,0.28125,0.8125
1630937444937,-0.484375,0.265625,0.8125
1630937444968,-0.484375,0.265625,0.8125
1630937445000,-0.484375,0.28125,0.8125
1630937445031,-0.484375,0.28125,0.8125
1630937445062,-0.484375,0.28125,0.8125
1630937445093,-0.484375,0.28125,0.8125
1630937445125,-0.484375,0.265625,0.8125
1630937445156,-0.484375,0.28125,0.8125
1630937445187,-0.484375,0.28125,0.8125
1630937445218,-0.484375,0.265625,0.8125
1630937445250,-0.484375,0.28125,0.8125
1630937445281,-0.484375,0.28125,0.8125
1630937445312,-0.484375,0.265625,0.8125
1630937445343,-0.484375,0.28125,0.8125
1630937445375,-0.484375,0.265625,0.8125
1630937445406,-0.484375,0.28125,0.8125
1630937445437,-0.484375,0.28125,0.8125
1630937445468,-0.484375,0.265625,0.8125
1630937445500,-0.484375,0.265625,0.8125
1630937445531,-0.484375,0.28125,0.8125
1630937445562,-0.484375,0.28125,0.8125
1630937445593,-0.484375,0.265625,0.8125
1630937445625,-0.484375,0.265625,0.8125
1630937445656,-0.484375,0.28125,0.8125
1630937445687,-0.484375,0.28125,0.8125
1630937445718,-0.484375,0.28125,0.8125
1630937445750,-0.484375,0.265625,0.8125
1630937445781,-0.484375,0.265625,0.8125
1630937445812,-0.484375,0.28125,0.8125
1630937445843,-0.484375,0.28125,0.8125
1630937445875,-0.484375,0.28125,0.8125
1630937445906,-0.484375,0.28125,0.8125
1630937445937,-0.484375,0.265625,0.8125
1630937445968,-0.484375,0.28125,0.8125
1630937446000,-0.484375,0.265625,0.8125
1630937446031,-0.484375,0.265625,0.8125
1630937446062,-0.484375,0.265625,0.8125
1630937446093,-0.484375,0.28125,0.8125
1630937446125,-0.484375,0.265625,0.8125
1630937446156,-0.484375,0.28125,0.8125
1630937446187,-0.484375,0.28125,0.8125
1630937446218,-0.484375,0.265625,0.8125
1630937446250,-0.484375,0.28125,0.8125
1630937446281,-0.484375,0.28125,0.8125
1630937446312,-0.484375,0.265625,0.8125
1630937446343,-0.484375,0.28125,0.8125
1630937446375,-0.484375,0.265625,0.8125
1630937446406,-0.484375,0.28125,0.8125
1630937446437,-0.484375,0.265625,0.8125
1630937446468,-0.484375,0.28125,0.8125
1630937446500,-0.484375,0.28125,0.8125
1630937446531,-0.484375,0.28125,0.8125
1630937446562,-0.484375,0.265625,0.8125
1630937446593,-0.484375,0.28125,0.8125
1630937446625,-0.484375,0.265625,0.8125
1630937446656,-0.484375,0.28125,0.8125
1630937446687,-0.484375,0.28125,0.8125
1630937446718,-0.484375,0.28125,0.8125
1630937446750,-0.484375,0.265625,0.8125
1630937446781,-0.484375,0.28125,0.8125
1630937446812,-0.484375,0.28125,0.8125
1630937446843,-0.484375,0.28125,0.8125
1630937446875,-0.484375,0.28125,0.8125
1630937446906,-0.484375,0.265625,0.8125
1630937446937,-0.484375,0.265625,0.8125
1630937446968,-0.484375,0.265625,0.8125
1630937447000,-0.484375,0.28125,0.8125
1630937447031,-0.484375,0.28125,0.8125
1630937447062,-0.484375,0.265625,0.8125
1630937447093,-0.484375,0.28125,0.8125
1630937447125,-0.484375,0.28125,0.8125
1630937447156,-0.484375,0.28125,0.8125
1630937447187,-0.484375,0.28125,0.8125
1630937447218,-0.484375,0.28125,0.8125
1630937447250,-0.484375,0.28125,0.8125
1630937447281,-0.484375,0.28125,0.8125
1630937447312,-0.484375,0.28125,0.8125
1630937447343,-0.484375,0.28125,0.8125
1630937447375,-0.484375,0.28125,0.8125
1630937447406,-0.484375,0.28125,0.8125
1630937447437,-0.484375,0.265625,0.8125
1630937447468,-0.484375,0.28125,0.8125
1630937447500,-0.484375,0.28125,0.8125
1630937447531,-0.484375,0.265625,0.8125
1630937447562,-0.484375,0.28125,0.8125
1630937447593,-0.484375,0.28125,0.828125
1630937447625,-0.484375,0.28125,0.8125
1630937447656,-0.484375,0.265625,0.8125
1630937447687,-0.484375,0.28125,0.8125
1630937447718,-0.484375,0.28125,0.8125
1630937447750,-0.484375,0.28125,0.8125
1630937447781,-0.484375,0.28125,0.8125
1630937447812,-0.484375,0.28125,0.8125
1630937447843,-0.484375,0.265625,0.8125
1630937447875,-0.484375,0.265625,0.8125
1630937447906,-0.484375,0.28125,0.8125
1630937447937,-0.484375,0.28125,0.8125
1630937447968,-0.484375,0.28125,0.8125
1630937448000,-0.484375,0.265625,0.8125
1630937448031,-0.484375,0.265625,0.8125
1630937448062,-0.484375,0.28125,0.8125
1630937448093,-0.484375,0.28125,0.8125
1630937448125,-0.5,0.28125,0.8125
1630937448156,-0.484375,0.265625,0.8125
1630937448187,-0.484375,0.265625,0.8125
1630937448218,-0.484375,0.28125,0.8125
1630937448250,-0.484375,0.265625,0.8125
1630937448281,-0.484375,0.28125,0.8125
1630937448312,-0.484375,0.28125,0.8125
1630937448343,-0.484375,0.28125,0.8125
1630937448375,-0.484375,0.265625,0.8125
1630937448406,-0.484375,0.28125,0.8125
1630937448437,-0.484375,0.28125,0.8125
1630937448468,-0.484375,0.28125,0.8125
1630937448500,-0.484375,0.265625,0.8125
1630937448531,-0.484375,0.28125,0.8125
1630937448562,-0.484375,0.28125,0.8125
1630937448593,-0.484375,0.28125,0.8125
1630937448625,-0.484375,0.265625,0.8125
1630937448656,-0.484375,0.28125,0.8125
1630937448687,-0.484375,0.265625,0.8125
1630937448718,-0.484375,0.28125,0.8125
1630937448750,-0.484375,0.28125,0.8125
1630937448781,-0.484375,0.28125,0.8125
1630937448812,-0.484375,0.28125,0.8125
1630937448843,-0.484375,0.28125,0.8125
1630937448875,-0.484375,0.265625,0.8125
1630937448906,-0.484375,0.265625,0.8125
1630937448937,-0.484375,0.28125,0.8125
1630937448968,-0.484375,0.265625,0.8125
1630937449000,-0.484375,0.265625,0.8125
1630937449031,-0.484375,0.28125,0.8125
1630937449062,-0.484375,0.28125,0.8125
1630937449093,-0.484375,0.28125,0.8125
1630937449125,-0.484375,0.28125,0.8125
1630937449156,-0.484375,0.28125,0.8125
1630937449187,-0.484375,0.265625,0.8125
1630937449218,-0.484375,0.28125,0.8125
1630937449250,-0.484375,0.265625,0.8125
1630937449281,-0.484375,0.28125,0.8125
1630937449312,-0.484375,0.28125,0.8125
1630937449343,-0.484375,0.28125,0.8125
1630937449375,-0.484375,0.265625,0.8125
1630937449406,-0.484375,0.265625,0.8125
1630937449437,-0.484375,0.28125,0.8125
1630937449468,-0.484375,0.28125,0.8125
1630937449500,-0.484375,0.265625,0.8125
1630937449531,-0.484375,0.265625,0.8125
1630937449562,-0.484375,0.28125,0.8125
1630937449593,-0.484375,0.28125,0.8125
1630937449625,-0.484375,0.28125,0.8125
1630937449656,-0.484375,0.28125,0.8125
1630937449687,-0.484375,0.265625,0.8125
1630937449718,-0.484375,0.28125,0.8125
1630937449750,-0.484375,0.28125,0.8125
1630937449781,-0.484375,0.265625,0.8125
1630937449812,-0.484375,0.28125,0.8125
1630937449843,-0.484375,0.265625,0.8125
1630937449875,-0.484375,0.265625,0.8125
1630937449906,-0.484375,0.28125,0.8125
1630937449937,-0.484375,0.265625,0.8125
1630937449968,-0.484375,0.28125,0.8125
1630937450000,-0.484375,0.28125,0.8125
1630937450031,-0.484375,0.265625,0.8125
1630937450062,-0.484375,0.28125,0.8125
1630937450093,-0.484375,0.28125,0.8125
1630937450125,-0.484375,0.265625,0.8125
1630937450156,-0.484375,0.265625,0.8125
1630937450187,-0.484375,0.28125,0.8125
1630937450218,-0.484375,0.265625,0.8125
1630937450250,-0.484375,0.28125,0.8125
1630937450281,-0.484375,0.28125,0.8125
1630937450312,-0.484375,0.28125,0.8125
1630937450343,-0.484375,0.28125,0.8125
1630937450375,-0.484375,0.28125,0.8125
1630937450406,-0.484375,0.28125,0.8125
1630937450437,-0.484375,0.28125,0.8125
1630937450468,-0.484375,0.28125,0.8125
1630937450500,-0.484375,0.28125,0.8125
1630937450531,-0.484375,0.28125,0.8125
1630937450562,-0.484375,0.28125,0.8125
1630937450593,-0.484375,0.28125,0.8125
1630937450625,-0.484375,0.28125,0.8125
1630937450656,-0.484375,0.28125,0.8125
1630937450687,-0.484375,0.28125,0.8125
1630937450718,-0.484375,0.28125,0.8125
1630937450750,-0.484375,0.28125,0.828125
1630937450781,-0.484375,0.28125,0.8125
1630937450812,-0.484375,0.265625,0.8125
1630937450843,-0.484375,0.28125,0.8125
1630937450875,-0.484375,0.28125,0.8125
1630937450906,-0.484375,0.28125,0.8125
1630937450937,-0.484375,0.28125,0.8125
1630937450968,-0.484375,0.265625,0.8125
1630937451000,-0.484375,0.28125,0.8125
1630937451031,-0.484375,0.28125,0.8125
1630937451062,-0.484375,0.28125,0.8125
1630937451093,-0.484375,0.28125,0.8125
1630937451125,-0.484375,0.265625,0.8125
1630937451156,-0.484375,0.28125,0.8125
1630937451187,-0.484375,0.28125,0.8125
1630937451218,-0.484375,0.28125,0.8125
1630937451250,-0.484375,0.28125,0.8125
1630937451281,-0.484375,0.28125,0.8125
1630937451312,-0.484375,0.28125,0.8125
1630937451343,-0.484375,0.265625,0.8125
1630937451375,-0.484375,0.28125,0.8125
1630937451406,-0.484375,0.265625,0.8125
1630937451437,-0.484375,0.28125,0.8125
1630937451468,-0.484375,0.28125,0.8125
1630937451500,-0.484375,0.28125,0.8125
1630937451531,-0.484375,0.265625,0.8125
1630937451562,-0.484375,0.265625,0.8125
1630937451593,-0.484375,0.28125,0.8125
1630937451625,-0.484375,0.265625,0.8125
1630937451656,-0.484375,0.28125,0.8125
1630937451687,-0.484375,0.28125,0.8125
1630937451718,-0.484375,0.28125,0.8125
1630937451750,-0.484375,0.265625,0.8125
1630937451781,-0.484375,0.265625,0.8125
1630937451812,-0.484375,0.265625,0.8125
1630937451843,-0.484375,0.265625,0.8125
1630937451875,-0.484375,0.28125,0.8125
1630937451906,-0.484375,0.28125,0.8125
1630937451937,-0.484375,0.28125,0.8125
1630937451968,-0.484375,0.28125,0.8125
1630937452000,-0.484375,0.28125,0.8125
1630937452031,-0.484375,0.28125,0.8125
1630937452062,-0.484375,0.28125,0.8125
1630937452093,-0.484375,0.265625,0.8125
1630937452125,-0.484375,0.265625,0.8125
1630937452156,-0.484375,0.28125,0.8125
1630937452187,-0.484375,0.28125,0.8125
1630937452218,-0.484375,0.265625,0.8125
1630937452250,-0.484375,0.265625,0.8125
1630937452281,-0.484375,0.265625,0.8125
1630937452312,-0.484375,0.28125,0.8125
1630937452343,-0.484375,0.28125,0.8125
1630937452375,-0.484375,0.265625,0.8125
1630937452406,-0.484375,0.28125,0.8125
1630937452437,-0.5,0.28125,0.8125
1630937452468,-0.484375,0.28125,0.8125
1630937452500,-0.484375,0.265625,0.8125
1630937452531,-0.484375,0.265625,0.8125
1630937452562,-0.484375,0.28125,0.8125
1630937452593,-0.484375,0.265625,0.8125
1630937452625,-0.484375,0.265625,0.8125
1630937452656,-0.484375,0.28125,0.8125
1630937452687,-0.484375,0.28125,0.8125
1630937452718,-0.484375,0.265625,0.8125
1630937452750,-0.484375,0.265625,0.8125
1630937452781,-0.484375,0.265625,0.8125
1630937452812,-0.484375,0.28125,0.8125
1630937452843,-0.484375,0.28125,0.8125
1630937452875,-0.484375,0.265625,0.8125
1630937452906,-0.484375,0.265625,0.8125
1630937452937,-0.484375,0.28125,0.8125
1630937452968,-0.484375,0.28125,0.8125
1630937453000,-0.484375,0.265625,0.8125
1630937453031,-0.484375,0.28125,0.8125
1630937453062,-0.484375,0.265625,0.8125
1630937453093,-0.484375,0.28125,0.8125
1630937453125,-0.484375,0.28125,0.8125
1630937453156,-0.484375,0.265625,0.8125
1630937453187,-0.484375,0.28125,0.8125
1630937453218,-0.484375,0.28125,0.8125
1630937453250,-0.484375,0.28125,0.8125
1630937453281,-0.484375,0.28125,0.8125
1630937453312,-0.484375,0.28125,0.8125
1630937453343,-0.484375,0.28125,0.8125
1630937453375,-0.484375,0.28125,0.8125
1630937453406,-0.484375,0.265625,0.8125
1630937453437,-0.484375,0.265625,0.8125
1630937453468,-0.484375,0.28125,0.8125
1630937453500,-0.484375,0.28125,0.8125
1630937453531,-0.484375,0.28125,0.8125
1630937453562,-0.484375,0.28125,0.8125
1630937453593,-0.484375,0.265625,0.8125
1630937453625,-0.484375,0.265625,0.8125
1630937453656,-0.484375,0.28125,0.8125
1630937453687,-0.484375,0.28125,0.8125
1630937453718,-0.484375,0.28125,0.8125
1630937453750,-0.484375,0.28125,0.8125
1630937453781,-0.484375,0.28125,0.8125
1630937453812,-0.484375,0.28125,0.8125
1630937453843,-0.484375,0.28125,0.8125
1630937453875,-0.484375,0.28125,0.8125
1630937453906,-0.484375,0.28125,0.8125
1630937453937,-0.484375,0.28125,0.8125
1630937453968,-0.484375,0.28125,0.8125
1630937454000,-0.484375,0.28125,0.8125
1630937454031,-0.484375,0.28125,0.8125
1630937454062,-0.484375,0.28125,0.8125
1630937454093,-0.484375,0.28125,0.8125
1630937454125,-0.484375,0.28125,0.8125
1630937454156,-0.484375,0.28125,0.8125
1630937454187,-0.484375,0.265625,0.8125
1630937454218,-0.484375,0.28125,0.8125
1630937454250,-0.484375,0.28125,0.8125
1630937454281,-0.484375,0.28125,0.8125
1630937454312,-0.484375,0.28125,0.8125
1630937454343,-0.484375,0.265625,0.8125
1630937454375,-0.484375,0.28125,0.8125
1630937454406,-0.484375,0.28125,0.8125
1630937454437,-0.484375,0.28125,0.8125
1630937454468,-0.484375,0.28125,0.8125
1630937454500,-0.484375,0.28125,0.8125
1630937454531,-0.484375,0.28125,0.8125
1630937454562,-0.484375,0.28125,0.8125
1630937454593,-0.484375,0.28125,0.8125
1630937454625,-0.484375,0.28125,0.8125
1630937454656,-0.484375,0.265625,0.8125
1630937454687,-0.484375,0.28125,0.8125
1630937454718,-0.484375,0.28125,0.8125
1630937454750,-0.484375,0.265625,0.8125
1630937454781,-0.484375,0.28125,0.8125
1630937454812,-0.484375,0.28125,0.8125
1630937454843,-0.484375,0.28125,0.8125
1630937454875,-0.484375,0.28125,0.8125
1630937454906,-0.484375,0.28125,0.8125
1630937454937,-0.484375,0.28125,0.8125
1630937454968,-0.484375,0.28125,0.8125
1630937455000,-0.484375,0.265625,0.8125
1630937455031,-0.484375,0.28125,0.8125
1630937455062,-0.484375,0.265625,0.8125
1630937455093,-0.484375,0.28125,0.8125
1630937455125,-0.484375,0.265625,0.8125
1630937455156,-0.484375,0.28125,0.8125
1630937455187,-0.484375,0.28125,0.8125
1630937455218,-0.484375,0.28125,0.8125
1630937455250,-0.484375,0.265625,0.8125
1630937455281,-0.484375,0.28125,0.8125
1630937455312,-0.484375,0.265625,0.8125
1630937455343,-0.484375,0.265625,0.8125
1630937455375,-0.484375,0.28125,0.8125
1630937455406,-0.484375,0.28125,0.8125
1630937455437,-0.484375,0.265625,0.8125
1630937455468,-0.484375,0.265625,0.8125
1630937455500,-0.484375,0.265625,0.8125
1630937455531,-0.484375,0.265625,0.8125
1630937455562,-0.484375,0.28125,0.8125
1630937455593,-0.484375,0.28125,0.8125
1630937455625,-0.484375,0.28125,0.828125
1630937455656,-0.484375,0.28125,0.8125
1630937455687,-0.484375,0.28125,0.8125
1630937455718,-0.484375,0.28125,0.8125
1630937455750,-0.484375,0.265625,0.8125
1630937455781,-0.484375,0.28125,0.8125
1630937455812,-0.484375,0.265625,0.8125
1630937455843,-0.484375,0.28125,0.8125
1630937455875,-0.484375,0.265625,0.8125
1630937455906,-0.484375,0.28125,0.8125
1630937455937,-0.484375,0.28125,0.8125
1630937455968,-0.484375,0.28125,0.8125
1630937456000,-0.484375,0.28125,0.8125
1630937456031,-0.484375,0.28125,0.8125
1630937456062,-0.484375,0.265625,0.8125
1630937456093,-0.484375,0.28125,0.8125
1630937456125,-0.484375,0.28125,0.8125
1630937456156,-0.484375,0.28125,0.8125
1630937456187,-0.484375,0.265625,0.8125
1630937456218,-0.484375,0.28125,0.8125
1630937456250,-0.484375,0.28125,0.8125
1630937456281,-0.484375,0.28125,0.8125
1630937456312,-0.484375,0.265625,0.8125
1630937456343,-0.484375,0.265625,0.8125
1630937456375,-0.484375,0.28125,0.8125
1630937456406,-0.484375,0.28125,0.8125
1630937456437,-0.484375,0.28125,0.8125
1630937456468,-0.484375,0.28125,0.8125
1630937456500,-0.484375,0.28125,0.8125
1630937456531,-0.484375,0.265625,0.8125
1630937456562,-0.484375,0.28125,0.8125
1630937456593,-0.484375,0.28125,0.8125
1630937456625,-0.484375,0.265625,0.8125
1630937456656,-0.484375,0.28125,0.8125
1630937456687,-0.484375,0.28125,0.8125
1630937456718,-0.484375,0.28125,0.8125
1630937456750,-0.484375,0.28125,0.8125
1630937456781,-0.484375,0.28125,0.8125
1630937456812,-0.484375,0.28125,0.8125
1630937456843,-0.484375,0.28125,0.8125
1630937456875,-0.484375,0.28125,0.8125
1630937456906,-0.484375,0.28125,0.8125
1630937456937,-0.484375,0.28125,0.8125
1630937456968,-0.484375,0.28125,0.8125
1630937457000,-0.484375,0.28125,0.8125
1630937457031,-0.484375,0.28125,0.8125
1630937457062,-0.484375,0.28125,0.8125
1630937457093,-0.484375,0.28125,0.8125
1630937457125,-0.484375,0.28125,0.8125
1630937457156,-0.484375,0.28125,0.8125
1630937457187,-0.484375,0.28125,0.8125
1630937457218,-0.484375,0.265625,0.8125
1630937457250,-0.484375,0.28125,0.8125
1630937457281,-0.484375,0.28125,0.8125
1630937457312,-0.484375,0.265625,0.8125
1630937457343,-0.484375,0.28125,0.8125
1630937457375,-0.484375,0.28125,0.8125
1630937457406,-0.484375,0.28125,0.8125
1630937457437,-0.484375,0.28125,0.8125
1630937457468,-0.484375,0.28125,0.8125
1630937457500,-0.484375,0.265625,0.8125
1630937457531,-0.484375,0.28125,0.8125
1630937457562,-0.484375,0.28125,0.8125
1630937457593,-0.484375,0.28125,0.8125
1630937457625,-0.484375,0.28125,0.8125
1630937457656,-0.484375,0.28125,0.8125
1630937457687,-0.484375,0.265625,0.8125
1630937457718,-0.484375,0.265625,0.8125
1630937457750,-0.484375,0.28125,0.8125
1630937457781,-0.484375,0.28125,0.8125
1630937457812,-0.484375,0.265625,0.8125
1630937457843,-0.484375,0.28125,0.8125
1630937457875,-0.484375,0.28125,0.8125
1630937457906,-0.484375,0.28125,0.8125
1630937457937,-0.484375,0.28125,0.8125
1630937457968,-0.484375,0.28125,0.8125
1630937458000,-0.484375,0.28125,0.8125
1630937458031,-0.484375,0.28125,0.8125
1630937458062,-0.484375,0.28125,0.8125
1630937458093,-0.484375,0.265625,0.8125
1630937458125,-0.484375,0.265625,0.8125
1630937458156,-0.484375,0.265625,0.8125
1630937458187,-0.484375,0.28125,0.8125
1630937458218,-0.484375,0.28125,0.8125
1630937458250,-0.484375,0.28125,0.8125
1630937458281,-0.484375,0.28125,0.8125
1630937458312,-0.484375,0.265625,0.8125
1630937458343,-0.484375,0.265625,0.8125
1630937458375,-0.484375,0.28125,0.8125
1630937458406,-0.484375,0.28125,0.8125
1630937458437,-0.484375,0.28125,0.8125
1630937458468,-0.484375,0.28125,0.8125
1630937458500,-0.484375,0.265625,0.8125
1630937458531,-0.484375,0.28125,0.8125
1630937458562,-0.484375,0.28125,0.8125
1630937458593,-0.484375,0.28125,0.8125
1630937458625,-0.484375,0.265625,0.8125
1630937458656,-0.484375,0.28125,0.8125
1630937458687,-0.484375,0.28125,0.8125
1630937458718,-0.484375,0.28125,0.8125
1630937458750,-0.484375,0.265625,0.8125
1630937458781,-0.484375,0.265625,0.8125
1630937458812,-0.484375,0.28125,0.8125
1630937458843,-0.484375,0.28125,0.8125
1630937458875,-0.484375,0.28125,0.8125
1630937458906,-0.484375,0.28125,0.8125
1630937458937,-0.484375,0.28125,0.8125
1630937458968,-0.484375,0.28125,0.8125
1630937459000,-0.484375,0.28125,0.8125
1630937459031,-0.484375,0.28125,0.8125
1630937459062,-0.484375,0.28125,0.8125
1630937459093,-0.484375,0.28125,0.8125
1630937459125,-0.484375,0.28125,0.8125
1630937459156,-0.484375,0.28125,0.8125
1630937459187,-0.484375,0.265625,0.8125
1630937459218,-0.484375,0.265625,0.8125
1630937459250,-0.484375,0.28125,0.8125
1630937459281,-0.484375,0.28125,0.8125
1630937459312,-0.484375,0.265625,0.8125
1630937459343,-0.484375,0.28125,0.8125
1630937459375,-0.484375,0.265625,0.8125
1630937459406,-0.484375,0.28125,0.8125
1630937459437,-0.484375,0.28125,0.8125
1630937459468,-0.484375,0.28125,0.8125
1630937459500,-0.484375,0.28125,0.8125
1630937459531,-0.484375,0.28125,0.8125
1630937459562,-0.484375,0.265625,0.8125
1630937459593,-0.484375,0.28125,0.8125
1630937459625,-0.484375,0.28125,0.8125
1630937459656,-0.484375,0.28125,0.8125
1630937459687,-0.484375,0.28125,0.8125
1630937459718,-0.484375,0.28125,0.8125
1630937459750,-0.484375,0.28125,0.8125
1630937459781,-0.484375,0.28125,0.8125
1630937459812,-0.484375,0.28125,0.8125
1630937459843,-0.484375,0.28125,0.8125
1630937459875,-0.484375,0.265625,0.8125
1630937459906,-0.484375,0.28125,0.8125
1630937459937,-0.484375,0.28125,0.8125
1630937459968,-0.484375,0.28125,0.8125
1630937460000,-0.484375,0.28125,0.8125
1630937460031,-0.484375,0.28125,0.8125
1630937460062,-0.484375,0.28125,0.8125
1630937460093,-0.484375,0.28125,0.8125
1630937460125,-0.484375,0.28125,0.8125
1630937460156,-0.484375,0.265625,0.8125
1630937460187,-0.484375,0.28125,0.8125
1630937460218,-0.484375,0.28125,0.8125
1630937460250,-0.484375,0.28125,0.8125
1630937460281,-0.484375,0.265625,0.8125
1630937460312,-0.484375,0.28125,0.8125
1630937460343,-0.484375,0.28125,0.8125
1630937460375,-0.484375,0.28125,0.8125
1630937460406,-0.484375,0.28125,0.8125
1630937460437,-0.484375,0.28125,0.8125
1630937460468,-0.484375,0.265625,0.8125
1630937460500,-0.484375,0.28125,0.8125
1630937460531,-0.484375,0.28125,0.8125
1630937460562,-0.484375,0.28125,0.828125
1630937460593,-0.484375,0.28125,0.8125
1630937460625,-0.484375,0.28125,0.8125
1630937460656,-0.484375,0.265625,0.8125
1630937460687,-0.484375,0.28125,0.8125
1630937460718,-0.484375,0.28125,0.8125
1630937460750,-0.484375,0.28125,0.8125
1630937460781,-0.484375,0.28125,0.8125
1630937460812,-0.484375,0.28125,0.8125
1630937460843,-0.484375,0.28125,0.8125
1630937460875,-0.484375,0.265625,0.8125
1630937460906,-0.484375,0.28125,0.8125
1630937460937,-0.484375,0.28125,0.8125
1630937460968,-0.484375,0.28125,0.8125
1630937461000,-0.484375,0.28125,0.8125
1630937461031,-0.484375,0.28125,0.8125
1630937461062,-0.484375,0.28125,0.8125
1630937461093,-0.484375,0.28125,0.8125
1630937461125,-0.484375,0.28125,0.8125
1630937461156,-0.484375,0.28125,0.8125
1630937461187,-0.484375,0.28125,0.8125
1630937461218,-0.484375,0.28125,0.8125
1630937461250,-0.484375,0.265625,0.8125
1630937461281,-0.484375,0.28125,0.8125
1630937461312,-0.484375,0.28125,0.8125
1630937461343,-0.484375,0.28125,0.8125
1630937461375,-0.484375,0.28125,0.8125
1630937461406,-0.484375,0.265625,0.8125
1630937461437,-0.484375,0.265625,0.8125
1630937461468,-0.484375,0.265625,0.8125
1630937461500,-0.484375,0.28125,0.8125
1630937461531,-0.484375,0.28125,0.8125
1630937461562,-0.484375,0.28125,0.8125
1630937461593,-0.484375,0.28125,0.8125
1630937461625,-0.484375,0.28125,0.8125
1630937461656,-0.484375,0.28125,0.8125
1630937461687,-0.484375,0.28125,0.8125
1630937461718,-0.484375,0.28125,0.8125
1630937461750,-0.484375,0.28125,0.8125
1630937461781,-0.484375,0.265625,0.8125
1630937461812,-0.484375,0.265625,0.8125
1630937461843,-0.484375,0.28125,0.8125
1630937461875,-0.484375,0.28125,0.8125
1630937461906,-0.484375,0.28125,0.8125
1630937461937,-0.484375,0.28125,0.8125
1630937461968,-0.484375,0.28125,0.8125
1630937462000,-0.484375,0.265625,0.8125
1630937462031,-0.484375,0.265625,0.8125
1630937462062,-0.484375,0.28125,0.8125
1630937462093,-0.484375,0.28125,0.8125
1630937462125,-0.484375,0.28125,0.8125
1630937462156,-0.484375,0.265625,0.8125
1630937462187,-0.484375,0.265625,0.8125
1630937462218,-0.484375,0.28125,0.8125
1630937462250,-0.484375,0.28125,0.8125
1630937462281,-0.484375,0.28125,0.8125
1630937462312,-0.484375,0.28125,0.8125
1630937462343,-0.484375,0.28125,0.8125
1630937462375,-0.484375,0.265625,0.8125
1630937462406,-0.484375,0.28125,0.8125
1630937462437,-0.484375,0.28125,0.8125
1630937462468,-0.484375,0.28125,0.8125
1630937462500,-0.484375,0.28125,0.8125
1630937462531,-0.484375,0.28125,0.8125
1630937462562,-0.484375,0.28125,0.8125
1630937462593,-0.484375,0.28125,0.8125
1630937462625,-0.484375,0.28125,0.8125
1630937462656,-0.484375,0.28125,0.8125
1630937462687,-0.484375,0.28125,0.8125
1630937462718,-0.484375,0.28125,0.8125
1630937462750,-0.484375,0.28125,0.8125
1630937462781,-0.484375,0.28125,0.8125
1630937462812,-0.484375,0.28125,0.8125
1630937462843,-0.484375,0.28125,0.8125
1630937462875,-0.484375,0.28125,0.8125
1630937462906,-0.484375,0.28125,0.8125
1630937462937,-0.484375,0.28125,0.8125
1630937462968,-0.484375,0.28125,0.8125
1630937463000,-0.484375,0.28125,0.8125
1630937463031,-0.484375,0.28125,0.8125
1630937463062,-0.484375,0.28125,0.8125
1630937463093,-0.484375,0.28125,0.8125
1630937463125,-0.484375,0.265625,0.8125
1630937463156,-0.484375,0.265625,0.8125
1630937463187,-0.484375,0.28125,0.8125
1630937463218,-0.484375,0.28125,0.8125
1630937463250,-0.484375,0.28125,0.8125
1630937463281,-0.484375,0.28125,0.8125
1630937463312,-0.484375,0.28125,0.8125
1630937463343,-0.484375,0.28125,0.8125
1630937463375,-0.484375,0.28125,0.8125
1630937463406,-0.484375,0.28125,0.8125
1630937463437,-0.484375,0.28125,0.8125
1630937463468,-0.484375,0.28125,0.8125
1630937463500,-0.484375,0.28125,0.8125
1630937463531,-0.484375,0.28125,0.8125
1630937463562,-0.484375,0.28125,0.8125
1630937463593,-0.484375,0.28125,0.8125
1630937463625,-0.484375,0.28125,0.8125
1630937463656,-0.484375,0.28125,0.8125
1630937463687,-0.484375,0.28125,0.8125
1630937463718,-0.484375,0.28125,0.8125
1630937463750,-0.484375,0.28125,0.8125
1630937463781,-0.484375,0.28125,0.8125
1630937463812,-0.484375,0.28125,0.8125
1630937463843,-0.484375,0.28125,0.8125
1630937463875,-0.484375,0.28125,0.8125
1630937463906,-0.484375,0.28125,0.8125
1630937463937,-0.484375,0.265625,0.8125
1630937463968,-0.484375,0.28125,0.8125
1630937464000,-0.484375,0.28125,0.8125
1630937464031,-0.484375,0.28125,0.8125
1630937464062,-0.484375,0.28125,0.8125
1630937464093,-0.484375,0.28125,0.8125
1630937464125,-0.484375,0.28125,0.8125
1630937464156,-0.484375,0.28125,0.8125
1630937464187,-0.484375,0.28125,0.8125
1630937464218,-0.484375,0.265625,0.8125
1630937464250,-0.484375,0.265625,0.8125
1630937464281,-0.484375,0.28125,0.8125
1630937464312,-0.484375,0.28125,0.828125
1630937464343,-0.484375,0.28125,0.8125
1630937464375,-0.484375,0.28125,0.8125
1630937464406,-0.484375,0.28125,0.8125
1630937464437,-0.484375,0.28125,0.8125
1630937464468,-0.484375,0.28125,0.8125
1630937464500,-0.484375,0.28125,0.8125
1630937464531,-0.484375,0.28125,0.8125
1630937464562,-0.484375,0.28125,0.8125
1630937464593,-0.484375,0.265625,0.8125
1630937464625,-0.484375,0.28125,0.8125
1630937464656,-0.484375,0.28125,0.8125
1630937464687,-0.484375,0.28125,0.8125
1630937464718,-0.484375,0.28125,0.8125
1630937464750,-0.484375,0.28125,0.8125
1630937464781,-0.484375,0.265625,0.8125
1630937464812,-0.484375,0.265625,0.8125
1630937464843,-0.484375,0.28125,0.8125
1630937464875,-0.484375,0.28125,0.8125
1630937464906,-0.484375,0.28125,0.8125
1630937464937,-0.484375,0.265625,0.8125
1630937464968,-0.484375,0.28125,0.8125
1630937465000,-0.484375,0.28125,0.8125
1630937465031,-0.484375,0.28125,0.8125
1630937465062,-0.484375,0.28125,0.8125
1630937465093,-0.484375,0.265625,0.8125
1630937465125,-0.484375,0.28125,0.8125
1630937465156,-0.484375,0.28125,0.8125
1630937465187,-0.484375,0.28125,0.8125
1630937465218,-0.484375,0.265625,0.8125
1630937465250,-0.484375,0.28125,0.8125
1630937465281,-0.484375,0.28125,0.8125
1630937465312,-0.484375,0.28125,0.8125
1630937465343,-0.484375,0.28125,0.8125
1630937465375,-0.484375,0.28125,0.8125
1630937465406,-0.484375,0.28125,0.8125
1630937465437,-0.484375,0.28125,0.8125
1630937465468,-0.484375,0.28125,0.8125
1630937465500,-0.484375,0.28125,0.8125
1630937465531,-0.484375,0.28125,0.8125
1630937465562,-0.484375,0.28125,0.8125
1630937465593,-0.484375,0.28125,0.8125
1630937465625,-0.484375,0.28125,0.8125
1630937465656,-0.484375,0.28125,0.8125
1630937465687,-0.484375,0.28125,0.8125
1630937465718,-0.484375,0.28125,0.8125
1630937465750,-0.484375,0.28125,0.8125
1630937465781,-0.484375,0.265625,0.8125
1630937465812,-0.484375,0.28125,0.8125
1630937465843,-0.484375,0.28125,0.8125
1630937465875,-0.484375,0.28125,0.8125
1630937465906,-0.484375,0.28125,0.8125
1630937465937,-0.484375,0.28125,0.8125
1630937465968,-0.484375,0.28125,0.828125
1630937466000,-0.484375,0.28125,0.8125
1630937466031,-0.484375,0.265625,0.8125
1630937466062,-0.484375,0.28125,0.8125
1630937466093,-0.484375,0.28125,0.8125
1630937466125,-0.484375,0.28125,0.8125
1630937466156,-0.484375,0.28125,0.8125
1630937466187,-0.484375,0.28125,0.8125
1630937466218,-0.484375,0.28125,0.8125
1630937466250,-0.484375,0.28125,0.8125
1630937466281,-0.484375,0.28125,0.8125
1630937466312,-0.484375,0.28125,0.8125
1630937466343,-0.484375,0.28125,0.8125
1630937466375,-0.484375,0.28125,0.8125
1630937466406,-0.484375,0.28125,0.8125
1630937466437,-0.484375,0.28125,0.8125
1630937466468,-0.484375,0.28125,0.8125
1630937466500,-0.484375,0.28125,0.8125
1630937466531,-0.484375,0.28125,0.8125
1630937466562,-0.484375,0.28125,0.8125
1630937466593,-0.484375,0.28125,0.8125
1630937466625,-0.484375,0.265625,0.8125
1630937466656,-0.484375,0.28125,0.8125
1630937466687,-0.484375,0.28125,0.8125
1630937466718,-0.484375,0.28125,0.8125
1630937466750,-0.484375,0.28125,0.8125
1630937466781,-0.484375,0.28125,0.8125
1630937466812,-0.484375,0.28125,0.8125
1630937466843,-0.484375,0.28125,0.8125
1630937466875,-0.484375,0.28125,0.8125
1630937466906,-0.484375,0.28125,0.8125
1630937466937,-0.484375,0.28125,0.8125
1630937466968,-0.484375,0.28125,0.8125
1630937467000,-0.484375,0.28125,0.8125
1630937467031,-0.484375,0.28125,0.8125
1630937467062,-0.484375,0.28125,0.8125
1630937467093,-0.484375,0.28125,0.8125
1630937467125,-0.484375,0.265625,0.8125
1630937467156,-0.484375,0.28125,0.8125
1630937467187,-0.484375,0.265625,0.8125
1630937467218,-0.484375,0.28125,0.8125
1630937467250,-0.484375,0.28125,0.8125
1630937467281,-0.484375,0.28125,0.8125
1630937467312,-0.484375,0.28125,0.828125
1630937467343,-0.484375,0.28125,0.8125
1630937467375,-0.484375,0.28125,0.8125
1630937467406,-0.484375,0.28125,0.8125
1630937467437,-0.484375,0.28125,0.8125
1630937467468,-0.484375,0.28125,0.8125
1630937467500,-0.484375,0.28125,0.8125
1630937467531,-0.484375,0.28125,0.8125
1630937467562,-0.484375,0.28125,0.8125
1630937467593,-0.484375,0.28125,0.8125
1630937467625,-0.484375,0.28125,0.8125
1630937467656,-0.484375,0.28125,0.8125
1630937467687,-0.484375,0.28125,0.8125
1630937467718,-0.484375,0.28125,0.8125
1630937467750,-0.484375,0.28125,0.8125
1630937467781,-0.484375,0.28125,0.8125
1630937467812,-0.484375,0.28125,0.8125
1630937467843,-0.484375,0.28125,0.8125
1630937467875,-0.484375,0.28125,0.8125
1630937467906,-0.484375,0.28125,0.8125
1630937467937,-0.484375,0.265625,0.8125
1630937467968,-0.484375,0.28125,0.8125
1630937468000,-0.484375,0.28125,0.8125
1630937468031,-0.484375,0.28125,0.8125
1630937468062,-0.484375,0.28125,0.8125
1630937468093,-0.484375,0.28125,0.8125
1630937468125,-0.484375,0.28125,0.8125
1630937468156,-0.484375,0.28125,0.8125
1630937468187,-0.484375,0.28125,0.8125
1630937468218,-0.484375,0.28125,0.8125
1630937468250,-0.484375,0.28125,0.8125
1630937468281,-0.484375,0.28125,0.8125
1630937468312,-0.484375,0.265625,0.8125
1630937468343,-0.484375,0.28125,0.8125
1630937468375,-0.484375,0.28125,0.8125
1630937468406,-0.484375,0.28125,0.8125
1630937468437,-0.484375,0.28125,0.8125
1630937468468,-0.484375,0.28125,0.8125
1630937468500,-0.484375,0.28125,0.8125
1630937468531,-0.484375,0.28125,0.8125
1630937468562,-0.484375,0.265625,0.8125
1630937468593,-0.484375,0.28125,0.8125
1630937468625,-0.484375,0.28125,0.8125
1630937468656,-0.484375,0.28125,0.8125
1630937468687,-0.484375,0.265625,0.8125
1630937468718,-0.484375,0.28125,0.8125
1630937468750,-0.484375,0.28125,0.8125
1630937468781,-0.484375,0.28125,0.8125
1630937468812,-0.484375,0.28125,0.8125
1630937468843,-0.484375,0.265625,0.8125
1630937468875,-0.484375,0.28125,0.8125
1630937468906,-0.484375,0.28125,0.8125
1630937468937,-0.484375,0.28125,0.8125
1630937468968,-0.484375,0.28125,0.8125
1630937469000,-0.484375,0.28125,0.8125
1630937469031,-0.484375,0.28125,0.8125
1630937469062,-0.484375,0.28125,0.8125
1630937469093,-0.484375,0.28125,0.8125
1630937469125,-0.484375,0.265625,0.8125
1630937469156,-0.484375,0.28125,0.8125
1630937469187,-0.484375,0.28125,0.8125
1630937469218,-0.484375,0.28125,0.8125
1630937469250,-0.484375,0.28125,0.8125
1630937469281,-0.484375,0.28125,0.8125
1630937469312,-0.484375,0.28125,0.8125
1630937469343,-0.484375,0.28125,0.8125
1630937469375,-0.484375,0.28125,0.8125
1630937469406,-0.484375,0.28125,0.8125
1630937469437,-0.484375,0.28125,0.8125
1630937469468,-0.484375,0.28125,0.8125
1630937469500,-0.484375,0.28125,0.8125
1630937469531,-0.484375,0.28125,0.8125
1630937469562,-0.484375,0.28125,0.8125
1630937469593,-0.484375,0.28125,0.8125
1630937469625,-0.484375,0.28125,0.8125
1630937469656,-0.484375,0.28125,0.8125
1630937469687,-0.484375,0.28125,0.8125
1630937469718,-0.484375,0.28125,0.8125
1630937469750,-0.484375,0.28125,0.8125
1630937469781,-0.484375,0.28125,0.8125
1630937469812,-0.484375,0.28125,0.8125
1630937469843,-0.484375,0.28125,0.8125
1630937469875,-0.484375,0.28125,0.8125
1630937469906,-0.46875,0.28125,0.8125
1630937469937,-0.484375,0.28125,0.8125
1630937469968,-0.484375,0.28125,0.8125
1630937470000,-0.484375,0.28125,0.8125
1630937470031,-0.484375,0.28125,0.8125
1630937470062,-0.484375,0.28125,0.8125
1630937470093,-0.484375,0.28125,0.8125
1630937470125,-0.484375,0.28125,0.8125
1630937470156,-0.484375,0.28125,0.8125
1630937470187,-0.484375,0.28125,0.8125
1630937470218,-0.484375,0.28125,0.8125
1630937470250,-0.484375,0.28125,0.8125
1630937470281,-0.484375,0.28125,0.8125
1630937470312,-0.484375,0.28125,0.8125
1630937470343,-0.484375,0.28125,0.8125
1630937470375,-0.484375,0.28125,0.8125
1630937470406,-0.484375,0.28125,0.8125
1630937470437,-0.484375,0.28125,0.8125
1630937470468,-0.484375,0.28125,0.8125
1630937470500,-0.484375,0.265625,0.8125
1630937470531,-0.484375,0.28125,0.8125
1630937470562,-0.484375,0.28125,0.8125
1630937470593,-0.484375,0.28125,0.8125
1630937470625,-0.484375,0.28125,0.828125
1630937470656,-0.484375,0.28125,0.8125
1630937470687,-0.484375,0.28125,0.8125
1630937470718,-0.484375,0.28125,0.8125
1630937470750,-0.484375,0.28125,0.8125
1630937470781,-0.484375,0.28125,0.8125
1630937470812,-0.484375,0.28125,0.8125
1630937470843,-0.484375,0.28125,0.8125
1630937470875,-0.484375,0.28125,0.8125
1630937470906,-0.484375,0.28125,0.8125
1630937470937,-0.484375,0.28125,0.8125
1630937470968,-0.484375,0.28125,0.8125
1630937471000,-0.484375,0.28125,0.8125
1630937471031,-0.484375,0.28125,0.8125
1630937471062,-0.484375,0.28125,0.8125
1630937471093,-0.484375,0.28125,0.8125
1630937471125,-0.484375,0.265625,0.8125
1630937471156,-0.484375,0.28125,0.8125
1630937471187,-0.484375,0.28125,0.8125
1630937471218,-0.484375,0.28125,0.8125
1630937471250,-0.484375,0.28125,0.8125
1630937471281,-0.484375,0.28125,0.8125
1630937471312,-0.484375,0.28125,0.8125
1630937471343,-0.484375,0.28125,0.8125
1630937471375,-0.484375,0.28125,0.8125
1630937471406,-0.484375,0.28125,0.8125
1630937471437,-0.484375,0.28125,0.8125
1630937471468,-0.484375,0.28125,0.8125
1630937471500,-0.484375,0.28125,0.8125
1630937471531,-0.484375,0.28125,0.8125
1630937471562,-0.484375,0.28125,0.8125
1630937471593,-0.484375,0.28125,0.8125
1630937471625,-0.484375,0.28125,0.8125
1630937471656,-0.484375,0.28125,0.8125
1630937471687,-0.484375,0.28125,0.8125
1630937471718,-0.484375,0.28125,0.8125
1630937471750,-0.484375,0.28125,0.8125
1630937471781,-0.484375,0.28125,0.8125
1630937471812,-0.484375,0.28125,0.8125
1630937471843,-0.484375,0.28125,0.8125
1630937471875,-0.484375,0.28125,0.8125
1630937471906,-0.484375,0.28125,0.8125
1630937471937,-0.484375,0.28125,0.8125
1630937471968,-0.484375,0.265625,0.8125
1630937472000,-0.484375,0.28125,0.8125
1630937472031,-0.484375,0.28125,0.8125
1630937472062,-0.484375,0.28125,0.8125
1630937472093,-0.484375,0.28125,0.8125
1630937472125,-0.484375,0.28125,0.8125
1630937472156,-0.484375,0.28125,0.8125
1630937472187,-0.484375,0.28125,0.8125
1630937472218,-0.484375,0.28125,0.8125
1630937472250,-0.484375,0.28125,0.8125
1630937472281,-0.484375,0.28125,0.8125
1630937472312,-0.484375,0.28125,0.8125
1630937472343,-0.484375,0.28125,0.8125
1630937472375,-0.484375,0.28125,0.8125
1630937472406,-0.484375,0.28125,0.8125
1630937472437,-0.484375,0.28125,0.8125
1630937472468,-0.484375,0.28125,0.8125
1630937472500,-0.484375,0.28125,0.8125
1630937472531,-0.484375,0.28125,0.8125
1630937472562,-0.484375,0.28125,0.8125
1630937472593,-0.484375,0.28125,0.8125
1630937472625,-0.484375,0.28125,0.8125
1630937472656,-0.484375,0.28125,0.8125
1630937472687,-0.484375,0.28125,0.8125
1630937472718,-0.484375,0.28125,0.8125
1630937472750,-0.484375,0.28125,0.8125
1630937472781,-0.484375,0.28125,0.8125
1630937472812,-0.484375,0.28125,0.8125
1630937472843,-0.484375,0.28125,0.8125
1630937472875,-0.484375,0.28125,0.8125
1630937472906,-0.484375,0.28125,0.8125
1630937472937,-0.484375,0.28125,0.8125
1630937472968,-0.484375,0.28125,0.8125
1630937473000,-0.484375,0.28125,0.8125
1630937473031,-0.484375,0.28125,0.8125
1630937473062,-0.484375,0.28125,0.8125
1630937473093,-0.484375,0.28125,0.8125
1630937473125,-0.484375,0.28125,0.8125
1630937473156,-0.484375,0.28125,0.8125
1630937473187,-0.484375,0.28125,0.8125
1630937473218,-0.484375,0.28125,0.8125
1630937473250,-0.484375,0.28125,0.8125
1630937473281,-0.484375,0.28125,0.8125
1630937473312,-0.484375,0.28125,0.8125
1630937473343,-0.484375,0.28125,0.8125
1630937473375,-0.484375,0.28125,0.8125
1630937473406,-0.484375,0.28125,0.8125
1630937473437,-0.484375,0.28125,0.8125
1630937473468,-0.484375,0.28125,0.8125
1630937473500,-0.484375,0.28125,0.8125
1630937473531,-0.484375,0.265625,0.8125
1630937473562,-0.484375,0.28125,0.8125
1630937473593,-0.484375,0.28125,0.8125
1630937473625,-0.484375,0.28125,0.8125
1630937473656,-0.484375,0.28125,0.8125
1630937473687,-0.484375,0.28125,0.8125
1630937473718,-0.484375,0.28125,0.8125
1630937473750,-0.484375,0.28125,0.8125
1630937473781,-0.484375,0.28125,0.8125
1630937473812,-0.484375,0.28125,0.8125
1630937473843,-0.484375,0.28125,0.8125
1630937473875,-0.484375,0.28125,0.8125
1630937473906,-0.484375,0.28125,0.8125
1630937473937,-0.484375,0.28125,0.8125
1630937473968,-0.484375,0.28125,0.8125
1630937474000,-0.484375,0.28125,0.8125
1630937474031,-0.484375,0.28125,0.8125
1630937474062,-0.484375,0.28125,0.8125
1630937474093,-0.484375,0.28125,0.8125
1630937474125,-0.484375,0.28125,0.8125
1630937474156,-0.484375,0.28125,0.8125
1630937474187,-0.484375,0.28125,0.8125
1630937474218,-0.484375,0.28125,0.8125
1630937474250,-0.484375,0.28125,0.8125
1630937474281,-0.484375,0.28125,0.8125
1630937474312,-0.484375,0.28125,0.8125
1630937474343,-0.484375,0.28125,0.8125
1630937474375,-0.484375,0.28125,0.8125
1630937474406,-0.484375,0.28125,0.8125
1630937474437,-0.484375,0.28125,0.8125
1630937474468,-0.484375,0.28125,0.8125
1630937474500,-0.484375,0.28125,0.8125
1630937474531,-0.484375,0.28125,0.8125
1630937474562,-0.484375,0.28125,0.8125
1630937474593,-0.484375,0.28125,0.8125
1630937474625,-0.484375,0.28125,0.8125
1630937474656,-0.484375,0.28125,0.8125
1630937474687,-0.484375,0.28125,0.8125
1630937474718,-0.484375,0.28125,0.8125
1630937474750,-0.484375,0.28125,0.8125
1630937474781,-0.484375,0.28125,0.8125
1630937474812,-0.484375,0.28125,0.8125
1630937474843,-0.484375,0.28125,0.8125
1630937474875,-0.484375,0.28125,0.8125
1630937474906,-0.484375,0.28125,0.8125
1630937474937,-0.484375,0.28125,0.8125
1630937474968,-0.484375,0.28125,0.8125
1630937475000,-0.484375,0.28125,0.8125
1630937475031,-0.484375,0.28125,0.8125
1630937475062,-0.484375,0.28125,0.8125
1630937475093,-0.484375,0.28125,0.8125
1630937475125,-0.484375,0.28125,0.8125
1630937475156,-0.484375,0.28125,0.8125
1630937475187,-0.484375,0.265625,0.8125
1630937475218,-0.484375,0.265625,0.8125
1630937475250,-0.484375,0.28125,0.8125
1630937475281,-0.484375,0.265625,0.8125
1630937475312,-0.484375,0.28125,0.8125
1630937475343,-0.484375,0.28125,0.8125
1630937475375,-0.484375,0.28125,0.8125
1630937475406,-0.484375,0.28125,0.8125
1630937475437,-0.484375,0.28125,0.8125
1630937475468,-0.484375,0.28125,0.8125
1630937475500,-0.484375,0.28125,0.8125
1630937475531,-0.484375,0.28125,0.8125
1630937475562,-0.484375,0.28125,0.8125
1630937475593,-0.484375,0.28125,0.8125
1630937475625,-0.484375,0.28125,0.8125
1630937475656,-0.484375,0.28125,0.8125
1630937475687,-0.484375,0.28125,0.8125
1630937475718,-0.484375,0.28125,0.8125
1630937475750,-0.484375,0.28125,0.8125
1630937475781,-0.484375,0.28125,0.8125
1630937475812,-0.484375,0.28125,0.8125
1630937475843,-0.484375,0.28125,0.8125
1630937475875,-0.484375,0.28125,0.8125
1630937475906,-0.484375,0.28125,0.8125
1630937475937,-0.484375,0.28125,0.8125
1630937475968,-0.484375,0.28125,0.8125
1630937476000,-0.484375,0.28125,0.8125
1630937476031,-0.484375,0.28125,0.8125
1630937476062,-0.484375,0.28125,0.8125
1630937476093,-0.484375,0.28125,0.8125
1630937476125,-0.484375,0.28125,0.8125
1630937476156,-0.484375,0.28125,0.8125
1630937476187,-0.484375,0.28125,0.8125
1630937476218,-0.484375,0.28125,0.8125
1630937476250,-0.484375,0.28125,0.8125
1630937476281,-0.484375,0.28125,0.8125
1630937476312,-0.484375,0.28125,0.8125
1630937476343,-0.46875,0.28125,0.8125
1630937476375,-0.484375,0.28125,0.8125
1630937476406,-0.484375,0.28125,0.8125
1630937476437,-0.484375,0.28125,0.8125
1630937476468,-0.484375,0.28125,0.8125
1630937476500,-0.484375,0.28125,0.8125
1630937476531,-0.484375,0.28125,0.8125
1630937476562,-0.484375,0.28125,0.8125
1630937476593,-0.484375,0.28125,0.8125
1630937476625,-0.484375,0.28125,0.8125
1630937476656,-0.484375,0.28125,0.8125
1630937476687,-0.484375,0.28125,0.8125
1630937476718,-0.484375,0.28125,0.8125
1630937476750,-0.484375,0.28125,0.8125
1630937476781,-0.484375,0.28125,0.8125
1630937476812,-0.484375,0.28125,0.8125
1630937476843,-0.484375,0.28125,0.8125
1630937476875,-0.484375,0.28125,0.8125
1630937476906,-0.484375,0.28125,0.8125
1630937476937,-0.484375,0.28125,0.8125
1630937476968,-0.484375,0.28125,0.8125
1630937477000,-0.484375,0.28125,0.8125
1630937477031,-0.484375,0.28125,0.8125
1630937477062,-0.484375,0.28125,0.8125
1630937477093,-0.484375,0.28125,0.8125
1630937477125,-0.484375,0.28125,0.8125
1630937477156,-0.484375,0.28125,0.8125
1630937477187,-0.484375,0.28125,0.8125
1630937477218,-0.484375,0.28125,0.8125
1630937477250,-0.484375,0.28125,0.8125
1630937477281,-0.484375,0.28125,0.8125
1630937477312,-0.484375,0.28125,0.8125
1630937477343,-0.484375,0.28125,0.8125
1630937477375,-0.484375,0.28125,0.8125
1630937477406,-0.484375,0.28125,0.8125
1630937477437,-0.484375,0.28125,0.8125
1630937477468,-0.484375,0.28125,0.8125
1630937477500,-0.484375,0.28125,0.8125
1630937477531,-0.484375,0.28125,0.8125
1630937477562,-0.484375,0.28125,0.8125
1630937477593,-0.484375,0.28125,0.8125
1630937477625,-0.484375,0.28125,0.8125
1630937477656,-0.484375,0.28125,0.8125
1630937477687,-0.484375,0.28125,0.8125
1630937477718,-0.484375,0.28125,0.8125
1630937477750,-0.484375,0.28125,0.8125
1630937477781,-0.484375,0.28125,0.8125
1630937477812,-0.484375,0.28125,0.8125
1630937477843,-0.484375,0.28125,0.8125
1630937477875,-0.484375,0.28125,0.8125
1630937477906,-0.484375,0.28125,0.8125
1630937477937,-0.484375,0.28125,0.8125
1630937477968,-0.484375,0.28125,0.8125
1630937478000,-0.484375,0.28125,0.8125
1630937478031,-0.484375,0.28125,0.8125
1630937478062,-0.484375,0.28125,0.8125
1630937478093,-0.484375,0.28125,0.8125
1630937478125,-0.484375,0.28125,0.8125
1630937478156,-0.484375,0.28125,0.8125
1630937478187,-0.484375,0.265625,0.8125
1630937478218,-0.484375,0.265625,0.8125
1630937478250,-0.484375,0.28125,0.8125
1630937478281,-0.484375,0.28125,0.8125
1630937478312,-0.484375,0.28125,0.8125
1630937478343,-0.484375,0.28125,0.8125
1630937478375,-0.484375,0.28125,0.8125
1630937478406,-0.484375,0.28125,0.8125
1630937478437,-0.484375,0.28125,0.8125
1630937478468,-0.484375,0.28125,0.8125
1630937478500,-0.484375,0.28125,0.8125
1630937478531,-0.484375,0.28125,0.8125
1630937478562,-0.484375,0.28125,0.8125
1630937478593,-0.484375,0.28125,0.8125
1630937478625,-0.484375,0.28125,0.8125
1630937478656,-0.484375,0.28125,0.8125
1630937478687,-0.484375,0.28125,0.8125
1630937478718,-0.484375,0.28125,0.8125
1630937478750,-0.484375,0.28125,0.8125
1630937478781,-0.484375,0.28125,0.8125
1630937478812,-0.484375,0.28125,0.8125
1630937478843,-0.484375,0.28125,0.8125
1630937478875,-0.484375,0.28125,0.8125
1630937478906,-0.484375,0.28125,0.8125
1630937478937,-0.46875,0.28125,0.8125
1630937478968,-0.484375,0.28125,0.828125
1630937479000,-0.484375,0.28125,0.8125
1630937479031,-0.484375,0.28125,0.8125
1630937479062,-0.484375,0.28125,0.8125
1630937479093,-0.484375,0.28125,0.8125
1630937479125,-0.484375,0.28125,0.8125
1630937479156,-0.484375,0.28125,0.8125
1630937479187,-0.484375,0.28125,0.8125
1630937479218,-0.484375,0.28125,0.8125
1630937479250,-0.484375,0.28125,0.8125
1630937479281,-0.484375,0.28125,0.828125
1630937479312,-0.484375,0.28125,0.8125
1630937479343,-0.46875,0.28125,0.8125
1630937479375,-0.484375,0.28125,0.8125
1630937479406,-0.484375,0.28125,0.8125
1630937479437,-0.484375,0.28125,0.828125
1630937479468,-0.484375,0.28125,0.8125
1630937479500,-0.484375,0.28125,0.8125
1630937479531,-0.484375,0.28125,0.8125
1630937479562,-0.484375,0.28125,0.8125
1630937479593,-0.484375,0.28125,0.8125
1630937479625,-0.484375,0.28125,0.8125
1630937479656,-0.46875,0.28125,0.8125
1630937479687,-0.484375,0.28125,0.8125
1630937479718,-0.484375,0.28125,0.8125
1630937479750,-0.484375,0.28125,0.8125
1630937479781,-0.484375,0.28125,0.8125
1630937479812,-0.484375,0.28125,0.8125
1630937479843,-0.484375,0.28125,0.8125
1630937479875,-0.484375,0.28125,0.828125
1630937479906,-0.484375,0.28125,0.8125
1630937479937,-0.484375,0.265625,0.8125
1630937479968,-0.484375,0.265625,0.8125
1630937480000,-0.484375,0.28125,0.8125
1630937480031,-0.484375,0.28125,0.8125
1630937480062,-0.484375,0.28125,0.8125
1630937480093,-0.484375,0.28125,0.8125
1630937480125,-0.484375,0.28125,0.8125
1630937480156,-0.484375,0.28125,0.8125
1630937480187,-0.484375,0.28125,0.8125
1630937480218,-0.484375,0.28125,0.8125
1630937480250,-0.484375,0.28125,0.8125
1630937480281,-0.484375,0.28125,0.8125
1630937480312,-0.484375,0.28125,0.8125
1630937480343,-0.484375,0.28125,0.8125
1630937480375,-0.484375,0.28125,0.8125
1630937480406,-0.484375,0.28125,0.8125
1630937480437,-0.484375,0.28125,0.8125
1630937480468,-0.484375,0.28125,0.8125
1630937480500,-0.484375,0.28125,0.8125
1630937480531,-0.484375,0.28125,0.8125
1630937480562,-0.484375,0.28125,0.8125
1630937480593,-0.484375,0.28125,0.8125
1630937480625,-0.484375,0.28125,0.8125
1630937480656,-0.484375,0.28125,0.8125
1630937480687,-0.484375,0.28125,0.8125
1630937480718,-0.484375,0.28125,0.8125
1630937480750,-0.484375,0.28125,0.8125
1630937480781,-0.484375,0.28125,0.8125
1630937480812,-0.484375,0.28125,0.8125
1630937480843,-0.484375,0.28125,0.8125
1630937480875,-0.484375,0.28125,0.8125
1630937480906,-0.484375,0.28125,0.8125
1630937480937,-0.484375,0.28125,0.8125
1630937480968,-0.484375,0.28125,0.8125
1630937481000,-0.484375,0.28125,0.8125
1630937481031,-0.484375,0.28125,0.8125
1630937481062,-0.484375,0.28125,0.8125
1630937481093,-0.484375,0.28125,0.8125
1630937481125,-0.484375,0.28125,0.8125
1630937481156,-0.484375,0.28125,0.8125
1630937481187,-0.484375,0.28125,0.8125
1630937481218,-0.484375,0.28125,0.8125
1630937481250,-0.484375,0.28125,0.8125
1630937481281,-0.484375,0.28125,0.8125
1630937481312,-0.484375,0.28125,0.8125
1630937481343,-0.484375,0.28125,0.8125
1630937481375,-0.484375,0.28125,0.8125
1630937481406,-0.484375,0.28125,0.8125
1630937481437,-0.484375,0.28125,0.8125
1630937481468,-0.484375,0.28125,0.8125
1630937481500,-0.484375,0.28125,0.8125
1630937481531,-0.484375,0.265625,0.8125
1630937481562,-0.484375,0.28125,0.8125
1630937481593,-0.484375,0.28125,0.8125
1630937481625,-0.484375,0.28125,0.8125
1630937481656,-0.484375,0.28125,0.8125
1630937481687,-0.484375,0.28125,0.8125
1630937481718,-0.484375,0.28125,0.8125
1630937481750,-0.484375,0.28125,0.8125
1630937481781,-0.484375,0.28125,0.8125
1630937481812,-0.484375,0.28125,0.8125
1630937481843,-0.484375,0.28125,0.8125
1630937481875,-0.484375,0.28125,0.8125
1630937481906,-0.484375,0.28125,0.8125
1630937481937,-0.484375,0.28125,0.8125
1630937481968,-0.484375,0.28125,0.8125
1630937482000,-0.484375,0.28125,0.8125
1630937482031,-0.484375,0.28125,0.828125
1630937482062,-0.484375,0.28125,0.828125
1630937482093,-0.484375,0.28125,0.8125
1630937482125,-0.484375,0.28125,0.8125
1630937482156,-0.484375,0.28125,0.8125
1630937482187,-0.484375,0.28125,0.8125
1630937482218,-0.484375,0.28125,0.8125
1630937482250,-0.484375,0.28125,0.8125
1630937482281,-0.484375,0.28125,0.8125
1630937482312,-0.484375,0.28125,0.8125
1630937482343,-0.484375,0.28125,0.8125
1630937482375,-0.484375,0.28125,0.8125
1630937482406,-0.484375,0.28125,0.8125
1630937482437,-0.484375,0.28125,0.8125
1630937482468,-0.484375,0.28125,0.8125
1630937482500,-0.46875,0.28125,0.8125
1630937482531,-0.46875,0.28125,0.8125
1630937482562,-0.484375,0.28125,0.8125
1630937482593,-0.46875,0.28125,0.8125
1630937482625,-0.484375,0.28125,0.8125
1630937482656,-0.484375,0.28125,0.8125
1630937482687,-0.484375,0.28125,0.8125
1630937482718,-0.484375,0.28125,0.8125
1630937482750,-0.484375,0.28125,0.8125
1630937482781,-0.46875,0.28125,0.828125
1630937482812,-0.46875,0.28125,0.8125
1630937482843,-0.484375,0.28125,0.8125
1630937482875,-0.484375,0.28125,0.8125
1630937482906,-0.484375,0.28125,0.8125
1630937482937,-0.484375,0.28125,0.8125
1630937482968,-0.484375,0.28125,0.8125
1630937483000,-0.484375,0.28125,0.8125
1630937483031,-0.484375,0.28125,0.8125
1630937483062,-0.46875,0.28125,0.8125
1630937483093,-0.46875,0.28125,0.8125
1630937483125,-0.484375,0.28125,0.828125
1630937483156,-0.484375,0.28125,0.8125
1630937483187,-0.484375,0.28125,0.828125
1630937483218,-0.484375,0.28125,0.8125
1630937483250,-0.484375,0.28125,0.8125
1630937483281,-0.484375,0.28125,0.8125
1630937483312,-0.46875,0.28125,0.8125
1630937483343,-0.484375,0.28125,0.8125
1630937483375,-0.484375,0.28125,0.8125
1630937483406,-0.484375,0.28125,0.8125
1630937483437,-0.484375,0.28125,0.8125
1630937483468,-0.484375,0.28125,0.8125
1630937483500,-0.484375,0.28125,0.8125
1630937483531,-0.484375,0.28125,0.8125
1630937483562,-0.484375,0.28125,0.8125
1630937483593,-0.484375,0.28125,0.8125
1630937483625,-0.46875,0.28125,0.8125
1630937483656,-0.484375,0.28125,0.8125
1630937483687,-0.484375,0.28125,0.8125
1630937483718,-0.484375,0.28125,0.8125
1630937483750,-0.484375,0.28125,0.8125
1630937483781,-0.484375,0.28125,0.8125
1630937483812,-0.484375,0.28125,0.8125
1630937483843,-0.484375,0.28125,0.8125
1630937483875,-0.484375,0.28125,0.8125
1630937483906,-0.484375,0.28125,0.8125
1630937483937,-0.484375,0.28125,0.8125
1630937483968,-0.484375,0.28125,0.8125
1630937484000,-0.484375,0.28125,0.8125
1630937484031,-0.484375,0.28125,0.8125
1630937484062,-0.484375,0.28125,0.8125
1630937484093,-0.484375,0.28125,0.8125
1630937484125,-0.484375,0.28125,0.8125
1630937484156,-0.484375,0.28125,0.8125
1630937484187,-0.484375,0.28125,0.8125
1630937484218,-0.484375,0.28125,0.8125
1630937484250,-0.484375,0.28125,0.8125
1630937484281,-0.484375,0.28125,0.8125
1630937484312,-0.484375,0.28125,0.8125
1630937484343,-0.484375,0.28125,0.8125
1630937484375,-0.484375,0.28125,0.8125
1630937484406,-0.484375,0.28125,0.8125
1630937484437,-0.484375,0.28125,0.8125
1630937484468,-0.484375,0.28125,0.8125
1630937484500,-0.484375,0.28125,0.8125
1630937484531,-0.484375,0.28125,0.8125
1630937484562,-0.484375,0.28125,0.8125
1630937484593,-0.484375,0.28125,0.8125
1630937484625,-0.484375,0.28125,0.8125
1630937484656,-0.484375,0.28125,0.8125
1630937484687,-0.484375,0.28125,0.828125
1630937484718,-0.484375,0.28125,0.8125
1630937484750,-0.484375,0.28125,0.8125
1630937484781,-0.484375,0.28125,0.8125
1630937484812,-0.484375,0.28125,0.8125
1630937484843,-0.484375,0.28125,0.8125
1630937484875,-0.484375,0.28125,0.8125
1630937484906,-0.484375,0.28125,0.8125
1630937484937,-0.484375,0.28125,0.8125
1630937484968,-0.484375,0.28125,0.8125
1630937485000,-0.484375,0.28125,0.8125
1630937485031,-0.484375,0.28125,0.8125
1630937485062,-0.484375,0.28125,0.8125
1630937485093,-0.484375,0.28125,0.8125
1630937485125,-0.484375,0.28125,0.8125
1630937485156,-0.484375,0.28125,0.8125
1630937485187,-0.484375,0.28125,0.8125
1630937485218,-0.484375,0.28125,0.8125
1630937485250,-0.484375,0.28125,0.8125
1630937485281,-0.484375,0.28125,0.8125
1630937485312,-0.484375,0.28125,0.8125
1630937485343,-0.484375,0.28125,0.8125
1630937485375,-0.484375,0.28125,0.8125
1630937485406,-0.484375,0.28125,0.8125
1630937485437,-0.484375,0.28125,0.8125
1630937485468,-0.484375,0.28125,0.8125
1630937485500,-0.484375,0.28125,0.8125
1630937485531,-0.484375,0.28125,0.8125
1630937485562,-0.484375,0.28125,0.8125
1630937485593,-0.484375,0.28125,0.8125
1630937485625,-0.484375,0.28125,0.8125
1630937485656,-0.484375,0.28125,0.8125
1630937485687,-0.484375,0.28125,0.8125
1630937485718,-0.484375,0.28125,0.8125
1630937485750,-0.484375,0.28125,0.8125
1630937485781,-0.484375,0.28125,0.8125
1630937485812,-0.484375,0.28125,0.8125
1630937485843,-0.46875,0.28125,0.8125
1630937485875,-0.484375,0.28125,0.8125
1630937485906,-0.484375,0.28125,0.8125
1630937485937,-0.484375,0.28125,0.8125
1630937485968,-0.484375,0.28125,0.8125
1630937486000,-0.484375,0.28125,0.8125
1630937486031,-0.484375,0.28125,0.8125
1630937486062,-0.46875,0.28125,0.8125
1630937486093,-0.484375,0.28125,0.8125
1630937486125,-0.484375,0.28125,0.8125
1630937486156,-0.484375,0.28125,0.8125
1630937486187,-0.484375,0.28125,0.8125
1630937486218,-0.484375,0.28125,0.8125
1630937486250,-0.484375,0.28125,0.8125
1630937486281,-0.46875,0.28125,0.8125
1630937486312,-0.484375,0.28125,0.8125
1630937486343,-0.484375,0.28125,0.8125
1630937486375,-0.46875,0.28125,0.8125
1630937486406,-0.484375,0.28125,0.8125
1630937486437,-0.46875,0.28125,0.8125
1630937486468,-0.484375,0.28125,0.8125
1630937486500,-0.484375,0.28125,0.8125
1630937486531,-0.484375,0.28125,0.8125
1630937486562,-0.484375,0.28125,0.8125
1630937486593,-0.484375,0.28125,0.8125
1630937486625,-0.46875,0.28125,0.8125
1630937486656,-0.484375,0.28125,0.8125
1630937486687,-0.484375,0.28125,0.8125
1630937486718,-0.46875,0.28125,0.8125
1630937486750,-0.484375,0.28125,0.8125
1630937486781,-0.484375,0.28125,0.8125
1630937486812,-0.484375,0.28125,0.828125
1630937486843,-0.484375,0.28125,0.8125
1630937486875,-0.484375,0.28125,0.8125
1630937486906,-0.484375,0.28125,0.8125
1630937486937,-0.484375,0.28125,0.8125
1630937486968,-0.484375,0.28125,0.8125
1630937487000,-0.484375,0.28125,0.8125
1630937487031,-0.484375,0.28125,0.8125
1630937487062,-0.484375,0.28125,0.8125
1630937487093,-0.46875,0.28125,0.8125
1630937487125,-0.484375,0.28125,0.8125
1630937487156,-0.484375,0.28125,0.8125
1630937487187,-0.484375,0.28125,0.8125
1630937487218,-0.484375,0.28125,0.8125
1630937487250,-0.484375,0.28125,0.8125
1630937487281,-0.484375,0.28125,0.8125
1630937487312,-0.484375,0.28125,0.8125
1630937487343,-0.484375,0.28125,0.8125
1630937487375,-0.484375,0.28125,0.8125
1630937487406,-0.484375,0.28125,0.8125
1630937487437,-0.484375,0.28125,0.8125
1630937487468,-0.484375,0.28125,0.8125
1630937487500,-0.484375,0.28125,0.8125
1630937487531,-0.484375,0.28125,0.8125
1630937487562,-0.484375,0.28125,0.8125
1630937487593,-0.484375,0.28125,0.8125
1630937487625,-0.484375,0.28125,0.8125
1630937487656,-0.484375,0.28125,0.8125
1630937487687,-0.484375,0.28125,0.8125
1630937487718,-0.484375,0.28125,0.8125
1630937487750,-0.484375,0.28125,0.8125
1630937487781,-0.484375,0.28125,0.8125
1630937487812,-0.484375,0.28125,0.8125
1630937487843,-0.484375,0.28125,0.8125
1630937487875,-0.484375,0.28125,0.8125
1630937487906,-0.484375,0.28125,0.8125
1630937487937,-0.484375,0.28125,0.8125
1630937487968,-0.484375,0.28125,0.8125
1630937488000,-0.484375,0.28125,0.8125
1630937488031,-0.484375,0.28125,0.8125
1630937488062,-0.484375,0.28125,0.8125
1630937488093,-0.484375,0.28125,0.8125
1630937488125,-0.484375,0.28125,0.8125
1630937488156,-0.484375,0.28125,0.8125
1630937488187,-0.484375,0.28125,0.8125
1630937488218,-0.484375,0.28125,0.8125
1630937488250,-0.484375,0.28125,0.8125
1630937488281,-0.484375,0.28125,0.8125
1630937488312,-0.484375,0.28125,0.8125
1630937488343,-0.484375,0.28125,0.8125
1630937488375,-0.484375,0.28125,0.8125
1630937488406,-0.484375,0.28125,0.8125
1630937488437,-0.484375,0.28125,0.8125
1630937488468,-0.484375,0.28125,0.8125
1630937488500,-0.484375,0.28125,0.8125
1630937488531,-0.484375,0.28125,0.8125
1630937488562,-0.484375,0.28125,0.8125
1630937488593,-0.484375,0.28125,0.8125
1630937488625,-0.484375,0.28125,0.8125
1630937488656,-0.484375,0.28125,0.8125
1630937488687,-0.484375,0.28125,0.8125
1630937488718,-0.484375,0.28125,0.8125
1630937488750,-0.484375,0.28125,0.8125
1630937488781,-0.484375,0.28125,0.8125
1630937488812,-0.484375,0.28125,0.8125
1630937488843,-0.484375,0.28125,0.8125
1630937488875,-0.484375,0.28125,0.8125
1630937488906,-0.484375,0.28125,0.8125
1630937488937,-0.484375,0.28125,0.8125
1630937488968,-0.484375,0.28125,0.8125
1630937489000,-0.484375,0.28125,0.8125
1630937489031,-0.484375,0.28125,0.8125
1630937489062,-0.484375,0.28125,0.8125
1630937489093,-0.484375,0.28125,0.8125
1630937489125,-0.484375,0.28125,0.8125
1630937489156,-0.484375,0.28125,0.8125
1630937489187,-0.484375,0.28125,0.8125
1630937489218,-0.484375,0.28125,0.8125
1630937489250,-0.484375,0.28125,0.8125
1630937489281,-0.484375,0.28125,0.8125
1630937489312,-0.484375,0.28125,0.8125
1630937489343,-0.484375,0.28125,0.8125
1630937489375,-0.484375,0.28125,0.8125
1630937489406,-0.484375,0.28125,0.8125
1630937489437,-0.484375,0.28125,0.8125
1630937489468,-0.484375,0.265625,0.8125
1630937489500,-0.484375,0.28125,0.8125
1630937489531,-0.484375,0.28125,0.8125
1630937489562,-0.484375,0.28125,0.8125
1630937489593,-0.484375,0.28125,0.8125
1630937489625,-0.484375,0.28125,0.8125
1630937489656,-0.484375,0.28125,0.8125
1630937489687,-0.46875,0.28125,0.8125
1630937489718,-0.484375,0.28125,0.8125
1630937489750,-0.484375,0.28125,0.8125
1630937489781,-0.484375,0.28125,0.8125
1630937489812,-0.484375,0.28125,0.8125
1630937489843,-0.484375,0.28125,0.8125
1630937489875,-0.484375,0.28125,0.828125
1630937489906,-0.484375,0.28125,0.8125
1630937489937,-0.484375,0.28125,0.8125
1630937489968,-0.484375,0.28125,0.8125
1630937490000,-0.484375,0.28125,0.828125
1630937490031,-0.484375,0.28125,0.8125
1630937490062,-0.484375,0.28125,0.8125
1630937490093,-0.484375,0.28125,0.8125
1630937490125,-0.46875,0.28125,0.8125
1630937490156,-0.484375,0.28125,0.828125
1630937490187,-0.484375,0.28125,0.8125
1630937490218,-0.46875,0.28125,0.8125
1630937490250,-0.46875,0.28125,0.8125
1630937490281,-0.46875,0.28125,0.8125
1630937490312,-0.484375,0.28125,0.8125
1630937490343,-0.484375,0.28125,0.8125
1630937490375,-0.46875,0.28125,0.8125
1630937490406,-0.484375,0.28125,0.8125
1630937490437,-0.484375,0.28125,0.8125
1630937490468,-0.484375,0.28125,0.8125
1630937490500,-0.46875,0.28125,0.828125
1630937490531,-0.484375,0.28125,0.8125
1630937490562,-0.484375,0.265625,0.8125
1630937490593,-0.484375,0.28125,0.8125
1630937490625,-0.46875,0.28125,0.8125
1630937490656,-0.484375,0.28125,0.8125
1630937490687,-0.484375,0.28125,0.8125
1630937490718,-0.484375,0.28125,0.8125
1630937490750,-0.46875,0.28125,0.8125
1630937490781,-0.484375,0.28125,0.8125
1630937490812,-0.46875,0.28125,0.8125
1630937490843,-0.484375,0.28125,0.8125
1630937490875,-0.484375,0.28125,0.8125
1630937490906,-0.484375,0.28125,0.8125
1630937490937,-0.484375,0.28125,0.8125
1630937490968,-0.484375,0.28125,0.8125
1630937491000,-0.484375,0.28125,0.8125
1630937491031,-0.484375,0.28125,0.8125
1630937491062,-0.484375,0.28125,0.8125
1630937491093,-0.484375,0.28125,0.8125
1630937491125,-0.484375,0.28125,0.8125
1630937491156,-0.484375,0.28125,0.8125
1630937491187,-0.484375,0.28125,0.8125
1630937491218,-0.484375,0.28125,0.8125
1630937491250,-0.484375,0.28125,0.8125
1630937491281,-0.484375,0.28125,0.8125
1630937491312,-0.484375,0.28125,0.8125
1630937491343,-0.484375,0.28125,0.8125
1630937491375,-0.484375,0.28125,0.8125
1630937491406,-0.484375,0.28125,0.8125
1630937491437,-0.484375,0.28125,0.8125
1630937491468,-0.484375,0.28125,0.8125
1630937491500,-0.484375,0.28125,0.8125
1630937491531,-0.484375,0.28125,0.8125
1630937491562,-0.484375,0.28125,0.8125
1630937491593,-0.484375,0.28125,0.8125
1630937491625,-0.484375,0.28125,0.8125
1630937491656,-0.484375,0.28125,0.8125
1630937491687,-0.484375,0.28125,0.8125
1630937491718,-0.484375,0.28125,0.8125
1630937491750,-0.484375,0.28125,0.8125
1630937491781,-0.484375,0.28125,0.8125
1630937491812,-0.484375,0.28125,0.8125
1630937491843,-0.484375,0.28125,0.8125
1630937491875,-0.484375,0.28125,0.8125
1630937491906,-0.484375,0.28125,0.8125
1630937491937,-0.46875,0.28125,0.8125
1630937491968,-0.484375,0.28125,0.8125
1630937492000,-0.46875,0.28125,0.8125
1630937492031,-0.484375,0.28125,0.8125
1630937492062,-0.484375,0.28125,0.8125
1630937492093,-0.484375,0.28125,0.8125
1630937492125,-0.484375,0.28125,0.8125
1630937492156,-0.484375,0.28125,0.8125
1630937492187,-0.484375,0.28125,0.8125
1630937492218,-0.484375,0.28125,0.828125
1630937492250,-0.484375,0.28125,0.8125
1630937492281,-0.484375,0.28125,0.8125
1630937492312,-0.484375,0.28125,0.8125
1630937492343,-0.484375,0.28125,0.8125
1630937492375,-0.484375,0.28125,0.8125
1630937492406,-0.484375,0.28125,0.8125
1630937492437,-0.484375,0.28125,0.8125
1630937492468,-0.484375,0.28125,0.828125
1630937492500,-0.484375,0.28125,0.8125
1630937492531,-0.484375,0.28125,0.8125
1630937492562,-0.484375,0.28125,0.8125
1630937492593,-0.484375,0.28125,0.8125
1630937492625,-0.484375,0.28125,0.8125
1630937492656,-0.484375,0.28125,0.8125
1630937492687,-0.484375,0.28125,0.8125
1630937492718,-0.484375,0.28125,0.8125
1630937492750,-0.484375,0.28125,0.8125
1630937492781,-0.484375,0.28125,0.8125
1630937492812,-0.484375,0.28125,0.8125
1630937492843,-0.46875,0.28125,0.8125
1630937492875,-0.484375,0.28125,0.8125
1630937492906,-0.484375,0.28125,0.8125
1630937492937,-0.484375,0.28125,0.8125
1630937492968,-0.484375,0.28125,0.8125
1630937493000,-0.484375,0.28125,0.8125
1630937493031,-0.484375,0.28125,0.8125
1630937493062,-0.484375,0.28125,0.8125
1630937493093,-0.46875,0.28125,0.8125
1630937493125,-0.484375,0.28125,0.8125
1630937493156,-0.484375,0.28125,0.8125
1630937493187,-0.484375,0.28125,0.8125
1630937493218,-0.46875,0.28125,0.8125
1630937493250,-0.484375,0.28125,0.8125
1630937493281,-0.484375,0.28125,0.8125
1630937493312,-0.484375,0.28125,0.8125
1630937493343,-0.484375,0.28125,0.8125
1630937493375,-0.46875,0.28125,0.8125
1630937493406,-0.484375,0.28125,0.8125
1630937493437,-0.484375,0.28125,0.8125
1630937493468,-0.484375,0.28125,0.828125
1630937493500,-0.484375,0.28125,0.8125
1630937493531,-0.484375,0.28125,0.8125
1630937493562,-0.484375,0.28125,0.8125
1630937493593,-0.46875,0.28125,0.8125
1630937493625,-0.484375,0.28125,0.8125
1630937493656,-0.484375,0.28125,0.8125
1630937493687,-0.46875,0.28125,0.8125
1630937493718,-0.484375,0.28125,0.8125
1630937493750,-0.46875,0.28125,0.8125
1630937493781,-0.484375,0.28125,0.8125
1630937493812,-0.484375,0.28125,0.8125
1630937493843,-0.46875,0.28125,0.8125
1630937493875,-0.484375,0.28125,0.8125
1630937493906,-0.46875,0.28125,0.8125
1630937493937,-0.46875,0.28125,0.8125
1630937493968,-0.484375,0.28125,0.8125
1630937494000,-0.484375,0.28125,0.8125
1630937494031,-0.484375,0.28125,0.8125
1630937494062,-0.484375,0.28125,0.8125
1630937494093,-0.484375,0.28125,0.8125
1630937494125,-0.46875,0.28125,0.8125
1630937494156,-0.46875,0.28125,0.8125
1630937494187,-0.46875,0.28125,0.8125
1630937494218,-0.46875,0.28125,0.8125
1630937494250,-0.484375,0.28125,0.8125
1630937494281,-0.46875,0.28125,0.8125
1630937494312,-0.484375,0.28125,0.8125
1630937494343,-0.46875,0.28125,0.8125
1630937494375,-0.484375,0.28125,0.8125
1630937494406,-0.484375,0.28125,0.828125
1630937494437,-0.484375,0.28125,0.8125
1630937494468,-0.484375,0.28125,0.8125
1630937494500,-0.46875,0.28125,0.8125
1630937494531,-0.484375,0.28125,0.8125
1630937494562,-0.484375,0.28125,0.8125
1630937494593,-0.484375,0.28125,0.8125
1630937494625,-0.46875,0.28125,0.8125
1630937494656,-0.484375,0.28125,0.8125
1630937494687,-0.484375,0.28125,0.8125
1630937494718,-0.484375,0.28125,0.8125
1630937494750,-0.484375,0.28125,0.8125
1630937494781,-0.484375,0.28125,0.8125
1630937494812,-0.484375,0.28125,0.8125
1630937494843,-0.484375,0.28125,0.8125
1630937494875,-0.484375,0.28125,0.8125
1630937494906,-0.484375,0.28125,0.8125
1630937494937,-0.484375,0.28125,0.8125
1630937494968,-0.484375,0.28125,0.8125
1630937495000,-0.484375,0.28125,0.8125
1630937495031,-0.484375,0.28125,0.8125
1630937495062,-0.46875,0.28125,0.8125
1630937495093,-0.484375,0.28125,0.8125
1630937495125,-0.484375,0.28125,0.8125
1630937495156,-0.46875,0.28125,0.8125
1630937495187,-0.46875,0.28125,0.8125
1630937495218,-0.484375,0.28125,0.8125
1630937495250,-0.484375,0.28125,0.8125
1630937495281,-0.46875,0.28125,0.8125
1630937495312,-0.46875,0.28125,0.8125
1630937495343,-0.484375,0.28125,0.8125
1630937495375,-0.484375,0.28125,0.8125
1630937495406,-0.484375,0.28125,0.8125
1630937495437,-0.484375,0.28125,0.8125
1630937495468,-0.484375,0.28125,0.8125
1630937495500,-0.46875,0.28125,0.8125
1630937495531,-0.484375,0.28125,0.8125
1630937495562,-0.484375,0.28125,0.8125
1630937495593,-0.484375,0.28125,0.8125
1630937495625,-0.484375,0.28125,0.8125
1630937495656,-0.484375,0.28125,0.8125
1630937495687,-0.484375,0.28125,0.8125
1630937495718,-0.484375,0.28125,0.8125
1630937495750,-0.484375,0.28125,0.8125
1630937495781,-0.484375,0.28125,0.8125
1630937495812,-0.484375,0.28125,0.8125
1630937495843,-0.484375,0.28125,0.8125
1630937495875,-0.484375,0.28125,0.8125
1630937495906,-0.484375,0.28125,0.8125
1630937495937,-0.484375,0.28125,0.8125
1630937495968,-0.484375,0.28125,0.8125
1630937496000,-0.46875,0.28125,0.8125
1630937496031,-0.484375,0.28125,0.8125
1630937496062,-0.484375,0.28125,0.8125
1630937496093,-0.484375,0.28125,0.8125
1630937496125,-0.484375,0.28125,0.8125
1630937496156,-0.484375,0.28125,0.8125
1630937496187,-0.484375,0.28125,0.8125
1630937496218,-0.484375,0.28125,0.8125
1630937496250,-0.484375,0.28125,0.828125
1630937496281,-0.484375,0.28125,0.8125
1630937496312,-0.484375,0.28125,0.8125
1630937496343,-0.484375,0.28125,0.8125
1630937496375,-0.484375,0.28125,0.8125
1630937496406,-0.484375,0.28125,0.8125
1630937496437,-0.484375,0.28125,0.8125
1630937496468,-0.484375,0.28125,0.8125
1630937496500,-0.484375,0.28125,0.8125
1630937496531,-0.484375,0.28125,0.8125
1630937496562,-0.484375,0.28125,0.8125
1630937496593,-0.46875,0.28125,0.8125
1630937496625,-0.46875,0.28125,0.8125
1630937496656,-0.484375,0.28125,0.8125
1630937496687,-0.484375,0.28125,0.8125
1630937496718,-0.484375,0.28125,0.8125
1630937496750,-0.484375,0.28125,0.8125
1630937496781,-0.484375,0.28125,0.8125
1630937496812,-0.484375,0.28125,0.8125
1630937496843,-0.484375,0.28125,0.8125
1630937496875,-0.484375,0.28125,0.8125
1630937496906,-0.484375,0.28125,0.8125
1630937496937,-0.484375,0.28125,0.8125
1630937496968,-0.484375,0.28125,0.8125
1630937497000,-0.484375,0.28125,0.8125
1630937497031,-0.484375,0.28125,0.8125
1630937497062,-0.484375,0.28125,0.8125
1630937497093,-0.484375,0.28125,0.8125
1630937497125,-0.484375,0.28125,0.8125
1630937497156,-0.484375,0.28125,0.8125
1630937497187,-0.484375,0.28125,0.8125
1630937497218,-0.484375,0.28125,0.8125
1630937497250,-0.46875,0.28125,0.8125
1630937497281,-0.46875,0.28125,0.8125
1630937497312,-0.484375,0.28125,0.8125
1630937497343,-0.484375,0.28125,0.8125
1630937497375,-0.484375,0.28125,0.8125
1630937497406,-0.484375,0.28125,0.8125
1630937497437,-0.484375,0.28125,0.8125
1630937497468,-0.484375,0.28125,0.8125
1630937497500,-0.484375,0.28125,0.8125
1630937497531,-0.484375,0.28125,0.8125
1630937497562,-0.484375,0.28125,0.8125
1630937497593,-0.484375,0.28125,0.8125
1630937497625,-0.484375,0.265625,0.8125
1630937497656,-0.484375,0.28125,0.8125
1630937497687,-0.484375,0.28125,0.8125
1630937497718,-0.484375,0.28125,0.8125
1630937497750,-0.484375,0.28125,0.8125
1630937497781,-0.484375,0.28125,0.8125
1630937497812,-0.484375,0.28125,0.8125
1630937497843,-0.484375,0.28125,0.8125
1630937497875,-0.484375,0.28125,0.8125
1630937497906,-0.484375,0.28125,0.8125
1630937497937,-0.484375,0.28125,0.8125
1630937497968,-0.484375,0.28125,0.8125
1630937498000,-0.484375,0.28125,0.8125
1630937498031,-0.484375,0.28125,0.8125
1630937498062,-0.484375,0.28125,0.8125
1630937498093,-0.484375,0.28125,0.8125
1630937498125,-0.484375,0.28125,0.8125
1630937498156,-0.484375,0.28125,0.8125
1630937498187,-0.484375,0.28125,0.8125
1630937498218,-0.484375,0.28125,0.8125
1630937498250,-0.484375,0.28125,0.8125
1630937498281,-0.484375,0.28125,0.8125
1630937498312,-0.484375,0.28125,0.8125
1630937498343,-0.484375,0.28125,0.8125
1630937498375,-0.484375,0.28125,0.8125
1630937498406,-0.484375,0.28125,0.8125
1630937498437,-0.484375,0.28125,0.8125
1630937498468,-0.484375,0.28125,0.8125
1630937498500,-0.484375,0.28125,0.8125
1630937498531,-0.484375,0.28125,0.8125
1630937498562,-0.484375,0.28125,0.8125
1630937498593,-0.484375,0.28125,0.8125
1630937498625,-0.484375,0.28125,0.8125
1630937498656,-0.484375,0.28125,0.8125
1630937498687,-0.484375,0.28125,0.8125
1630937498718,-0.46875,0.28125,0.8125
1630937498750,-0.484375,0.28125,0.8125
1630937498781,-0.484375,0.28125,0.8125
1630937498812,-0.484375,0.28125,0.8125
1630937498843,-0.484375,0.28125,0.8125
1630937498875,-0.484375,0.28125,0.8125
1630937498906,-0.484375,0.28125,0.8125
1630937498937,-0.484375,0.28125,0.8125
1630937498968,-0.484375,0.28125,0.8125
1630937499000,-0.484375,0.28125,0.8125
1630937499031,-0.484375,0.28125,0.8125
1630937499062,-0.46875,0.28125,0.8125
1630937499093,-0.46875,0.28125,0.8125
1630937499125,-0.46875,0.28125,0.8125
1630937499156,-0.484375,0.28125,0.8125
1630937499187,-0.46875,0.28125,0.8125
1630937499218,-0.484375,0.28125,0.8125
1630937499250,-0.46875,0.28125,0.8125
1630937499281,-0.484375,0.28125,0.8125
1630937499312,-0.484375,0.28125,0.8125
1630937499343,-0.484375,0.28125,0.8125
1630937499375,-0.46875,0.28125,0.828125
1630937499406,-0.484375,0.28125,0.8125
1630937499437,-0.46875,0.28125,0.8125
1630937499468,-0.484375,0.28125,0.8125
1630937499500,-0.484375,0.28125,0.8125
1630937499531,-0.484375,0.28125,0.8125
1630937499562,-0.484375,0.28125,0.8125
1630937499593,-0.46875,0.28125,0.8125
1630937499625,-0.46875,0.28125,0.8125
1630937499656,-0.484375,0.28125,0.8125
1630937499687,-0.484375,0.28125,0.8125
1630937499718,-0.484375,0.28125,0.8125
1630937499750,-0.484375,0.28125,0.8125
1630937499781,-0.484375,0.28125,0.8125
1630937499812,-0.484375,0.28125,0.8125
1630937499843,-0.484375,0.28125,0.8125
1630937499875,-0.484375,0.28125,0.8125
1630937499906,-0.484375,0.28125,0.8125
1630937499937,-0.484375,0.28125,0.8125
1630937499968,-0.484375,0.28125,0.8125
1630937500000,-0.484375,0.28125,0.8125
1630937500031,-0.46875,0.28125,0.8125
1630937500062,-0.46875,0.28125,0.8125
1630937500093,-0.484375,0.28125,0.8125
1630937500125,-0.484375,0.28125,0.8125
1630937500156,-0.484375,0.28125,0.8125
1630937500187,-0.46875,0.28125,0.8125
1630937500218,-0.484375,0.28125,0.8125
1630937500250,-0.484375,0.28125,0.8125
1630937500281,-0.484375,0.28125,0.828125
1630937500312,-0.484375,0.28125,0.8125
1630937500343,-0.484375,0.28125,0.8125
1630937500375,-0.46875,0.28125,0.8125
1630937500406,-0.484375,0.28125,0.8125
1630937500437,-0.46875,0.28125,0.8125
1630937500468,-0.46875,0.28125,0.8125
1630937500500,-0.484375,0.28125,0.8125
1630937500531,-0.484375,0.28125,0.8125
1630937500562,-0.484375,0.28125,0.8125
1630937500593,-0.46875,0.28125,0.8125
1630937500625,-0.484375,0.28125,0.8125
1630937500656,-0.484375,0.28125,0.8125
1630937500687,-0.46875,0.28125,0.8125
1630937500718,-0.484375,0.28125,0.8125
1630937500750,-0.484375,0.28125,0.8125
1630937500781,-0.484375,0.28125,0.8125
1630937500812,-0.484375,0.28125,0.828125
1630937500843,-0.484375,0.28125,0.8125
1630937500875,-0.484375,0.28125,0.8125
1630937500906,-0.484375,0.28125,0.8125
1630937500937,-0.484375,0.28125,0.8125
1630937500968,-0.484375,0.28125,0.8125
1630937501000,-0.484375,0.28125,0.8125
1630937501031,-0.484375,0.28125,0.8125
1630937501062,-0.484375,0.28125,0.8125
1630937501093,-0.484375,0.28125,0.8125
1630937501125,-0.484375,0.28125,0.8125
1630937501156,-0.484375,0.28125,0.8125
1630937501187,-0.484375,0.28125,0.8125
1630937501218,-0.484375,0.28125,0.8125
1630937501250,-0.484375,0.28125,0.8125
1630937501281,-0.484375,0.28125,0.8125
1630937501312,-0.484375,0.28125,0.8125
1630937501343,-0.46875,0.28125,0.8125
1630937501375,-0.484375,0.28125,0.8125
1630937501406,-0.484375,0.28125,0.8125
1630937501437,-0.484375,0.28125,0.8125
1630937501468,-0.484375,0.28125,0.8125
1630937501500,-0.484375,0.28125,0.8125
1630937501531,-0.484375,0.28125,0.8125
1630937501562,-0.484375,0.28125,0.8125
1630937501593,-0.484375,0.28125,0.8125
1630937501625,-0.484375,0.28125,0.8125
1630937501656,-0.46875,0.28125,0.8125
1630937501687,-0.484375,0.28125,0.8125
1630937501718,-0.484375,0.28125,0.8125
1630937501750,-0.484375,0.28125,0.8125
1630937501781,-0.484375,0.28125,0.8125
1630937501812,-0.484375,0.28125,0.8125
1630937501843,-0.484375,0.28125,0.8125
1630937501875,-0.484375,0.28125,0.8125
1630937501906,-0.484375,0.28125,0.8125
1630937501937,-0.484375,0.28125,0.8125
1630937501968,-0.484375,0.28125,0.8125
1630937502000,-0.484375,0.28125,0.8125
1630937502031,-0.484375,0.28125,0.8125
1630937502062,-0.484375,0.28125,0.8125
1630937502093,-0.484375,0.28125,0.8125
1630937502125,-0.484375,0.28125,0.8125
1630937502156,-0.46875,0.28125,0.8125
1630937502187,-0.484375,0.28125,0.8125
1630937502218,-0.484375,0.28125,0.8125
1630937502250,-0.484375,0.28125,0.8125
1630937502281,-0.484375,0.28125,0.8125
1630937502312,-0.484375,0.28125,0.8125
1630937502343,-0.484375,0.28125,0.8125
1630937502375,-0.484375,0.28125,0.8125
1630937502406,-0.484375,0.28125,0.8125
1630937502437,-0.484375,0.28125,0.8125
1630937502468,-0.484375,0.28125,0.8125
1630937502500,-0.484375,0.28125,0.8125
1630937502531,-0.484375,0.28125,0.8125
1630937502562,-0.484375,0.28125,0.8125
1630937502593,-0.484375,0.28125,0.8125
1630937502625,-0.484375,0.28125,0.8125
1630937502656,-0.484375,0.28125,0.8125
1630937502687,-0.484375,0.28125,0.8125
1630937502718,-0.484375,0.28125,0.8125
1630937502750,-0.484375,0.28125,0.8125
1630937502781,-0.484375,0.28125,0.8125
1630937502812,-0.484375,0.28125,0.828125
1630937502843,-0.484375,0.28125,0.8125
1630937502875,-0.484375,0.28125,0.8125
1630937502906,-0.484375,0.28125,0.8125
1630937502937,-0.484375,0.28125,0.8125
1630937502968,-0.484375,0.28125,0.8125
1630937503000,-0.484375,0.28125,0.8125
1630937503031,-0.484375,0.28125,0.8125
1630937503062,-0.484375,0.28125,0.8125
1630937503093,-0.484375,0.28125,0.8125
1630937503125,-0.484375,0.28125,0.8125
1630937503156,-0.484375,0.28125,0.8125
1630937503187,-0.484375,0.28125,0.8125
1630937503218,-0.46875,0.28125,0.8125
1630937503250,-0.484375,0.28125,0.8125
1630937503281,-0.484375,0.28125,0.8125
1630937503312,-0.484375,0.28125,0.8125
1630937503343,-0.484375,0.28125,0.8125
1630937503375,-0.484375,0.28125,0.8125
1630937503406,-0.484375,0.28125,0.8125
1630937503437,-0.484375,0.28125,0.8125
1630937503468,-0.46875,0.28125,0.8125
1630937503500,-0.484375,0.28125,0.8125
1630937503531,-0.484375,0.28125,0.8125
1630937503562,-0.484375,0.28125,0.8125
1630937503593,-0.484375,0.28125,0.8125
1630937503625,-0.484375,0.28125,0.8125
1630937503656,-0.484375,0.28125,0.8125
1630937503687,-0.46875,0.28125,0.8125
1630937503718,-0.46875,0.28125,0.828125
1630937503750,-0.484375,0.28125,0.8125
1630937503781,-0.484375,0.28125,0.8125
1630937503812,-0.484375,0.28125,0.8125
1630937503843,-0.46875,0.28125,0.8125
1630937503875,-0.484375,0.28125,0.8125
1630937503906,-0.484375,0.28125,0.8125
1630937503937,-0.46875,0.28125,0.8125
1630937503968,-0.484375,0.28125,0.8125
1630937504000,-0.484375,0.28125,0.8125
1630937504031,-0.46875,0.28125,0.8125
1630937504062,-0.46875,0.28125,0.8125
1630937504093,-0.46875,0.28125,0.8125
1630937504125,-0.484375,0.28125,0.8125
1630937504156,-0.46875,0.28125,0.8125
1630937504187,-0.484375,0.28125,0.8125
1630937504218,-0.46875,0.28125,0.8125
1630937504250,-0.484375,0.28125,0.828125
1630937504281,-0.46875,0.28125,0.8125
1630937504312,-0.46875,0.28125,0.8125
1630937504343,-0.484375,0.28125,0.8125
1630937504375,-0.46875,0.28125,0.8125
1630937504406,-0.46875,0.28125,0.8125
1630937504437,-0.484375,0.28125,0.8125
1630937504468,-0.484375,0.28125,0.8125
1630937504500,-0.46875,0.28125,0.8125
1630937504531,-0.46875,0.28125,0.8125
1630937504562,-0.46875,0.28125,0.8125
1630937504593,-0.484375,0.28125,0.8125
1630937504625,-0.484375,0.28125,0.8125
1630937504656,-0.46875,0.28125,0.8125
1630937504687,-0.484375,0.28125,0.8125
1630937504718,-0.484375,0.28125,0.8125
1630937504750,-0.46875,0.28125,0.8125
1630937504781,-0.484375,0.28125,0.8125
1630937504812,-0.484375,0.28125,0.8125
1630937504843,-0.484375,0.28125,0.8125
1630937504875,-0.46875,0.28125,0.8125
1630937504906,-0.46875,0.28125,0.8125
1630937504937,-0.46875,0.28125,0.8125
1630937504968,-0.484375,0.28125,0.8125
1630937505000,-0.46875,0.28125,0.828125
1630937505031,-0.484375,0.28125,0.8125
1630937505062,-0.46875,0.28125,0.8125
1630937505093,-0.46875,0.28125,0.8125
1630937505125,-0.46875,0.28125,0.8125
1630937505156,-0.484375,0.28125,0.8125
1630937505187,-0.46875,0.28125,0.8125
1630937505218,-0.484375,0.28125,0.8125
1630937505250,-0.484375,0.28125,0.8125
1630937505281,-0.46875,0.28125,0.8125
1630937505312,-0.484375,0.28125,0.8125
1630937505343,-0.484375,0.28125,0.8125
1630937505375,-0.484375,0.28125,0.8125
1630937505406,-0.484375,0.28125,0.8125
1630937505437,-0.46875,0.28125,0.8125
1630937505468,-0.484375,0.28125,0.8125
1630937505500,-0.484375,0.28125,0.8125
1630937505531,-0.484375,0.28125,0.828125
1630937505562,-0.484375,0.28125,0.8125
1630937505593,-0.484375,0.28125,0.8125
1630937505625,-0.484375,0.28125,0.8125
1630937505656,-0.484375,0.28125,0.8125
1630937505687,-0.484375,0.28125,0.8125
1630937505718,-0.484375,0.28125,0.8125
1630937505750,-0.484375,0.28125,0.8125
1630937505781,-0.484375,0.28125,0.8125
1630937505812,-0.484375,0.28125,0.8125
1630937505843,-0.484375,0.28125,0.8125
1630937505875,-0.484375,0.28125,0.8125
1630937505906,-0.484375,0.28125,0.8125
1630937505937,-0.46875,0.28125,0.8125
1630937505968,-0.484375,0.28125,0.8125
1630937506000,-0.484375,0.28125,0.8125
1630937506031,-0.484375,0.28125,0.8125
1630937506062,-0.484375,0.28125,0.8125
1630937506093,-0.484375,0.28125,0.8125
1630937506125,-0.484375,0.28125,0.8125
1630937506156,-0.484375,0.28125,0.8125
1630937506187,-0.484375,0.28125,0.8125
1630937506218,-0.484375,0.28125,0.8125
1630937506250,-0.484375,0.28125,0.8125
1630937506281,-0.484375,0.28125,0.8125
1630937506312,-0.484375,0.28125,0.8125
1630937506343,-0.484375,0.28125,0.8125
1630937506375,-0.484375,0.28125,0.8125
1630937506406,-0.484375,0.28125,0.8125
1630937506437,-0.484375,0.28125,0.8125
1630937506468,-0.484375,0.28125,0.8125
1630937506500,-0.484375,0.28125,0.8125
1630937506531,-0.484375,0.28125,0.8125
1630937506562,-0.484375,0.28125,0.8125
1630937506593,-0.484375,0.28125,0.8125
1630937506625,-0.484375,0.28125,0.8125
1630937506656,-0.484375,0.28125,0.8125
1630937506687,-0.484375,0.28125,0.8125
1630937506718,-0.484375,0.28125,0.8125
1630937506750,-0.484375,0.28125,0.8125
1630937506781,-0.484375,0.28125,0.8125
1630937506812,-0.484375,0.28125,0.8125
1630937506843,-0.484375,0.28125,0.8125
1630937506875,-0.484375,0.28125,0.8125
1630937506906,-0.484375,0.28125,0.8125
1630937506937,-0.484375,0.28125,0.8125
1630937506968,-0.484375,0.28125,0.8125
1630937507000,-0.484375,0.28125,0.8125
1630937507031,-0.484375,0.28125,0.8125
1630937507062,-0.484375,0.28125,0.8125
1630937507093,-0.484375,0.28125,0.8125
1630937507125,-0.484375,0.28125,0.8125
1630937507156,-0.484375,0.28125,0.8125
1630937507187,-0.484375,0.28125,0.8125
1630937507218,-0.484375,0.28125,0.8125
1630937507250,-0.484375,0.28125,0.8125
1630937507281,-0.46875,0.28125,0.8125
1630937507312,-0.484375,0.28125,0.8125
1630937507343,-0.484375,0.28125,0.8125
1630937507375,-0.484375,0.28125,0.8125
1630937507406,-0.484375,0.28125,0.8125
1630937507437,-0.46875,0.28125,0.8125
1630937507468,-0.46875,0.28125,0.8125
1630937507500,-0.46875,0.28125,0.8125
1630937507531,-0.484375,0.28125,0.8125
1630937507562,-0.484375,0.28125,0.8125
1630937507593,-0.484375,0.28125,0.8125
1630937507625,-0.46875,0.28125,0.8125
1630937507656,-0.484375,0.28125,0.8125
1630937507687,-0.484375,0.28125,0.8125
1630937507718,-0.484375,0.28125,0.8125
1630937507750,-0.484375,0.28125,0.8125
1630937507781,-0.484375,0.28125,0.8125
1630937507812,-0.484375,0.28125,0.8125
1630937507843,-0.484375,0.28125,0.8125
1630937507875,-0.484375,0.28125,0.8125
1630937507906,-0.46875,0.28125,0.8125
1630937507937,-0.46875,0.28125,0.8125
1630937507968,-0.46875,0.28125,0.828125
1630937508000,-0.46875,0.28125,0.8125
1630937508031,-0.484375,0.28125,0.8125
1630937508062,-0.484375,0.28125,0.8125
1630937508093,-0.46875,0.28125,0.8125
1630937508125,-0.46875,0.28125,0.8125
1630937508156,-0.484375,0.28125,0.8125
1630937508187,-0.484375,0.28125,0.8125
1630937508218,-0.484375,0.28125,0.8125
1630937508250,-0.484375,0.28125,0.8125
1630937508281,-0.46875,0.28125,0.8125
1630937508312,-0.46875,0.28125,0.8125
1630937508343,-0.46875,0.28125,0.8125
1630937508375,-0.484375,0.28125,0.8125
1630937508406,-0.484375,0.28125,0.8125
1630937508437,-0.484375,0.28125,0.8125
1630937508468,-0.484375,0.28125,0.8125
1630937508500,-0.484375,0.28125,0.8125
1630937508531,-0.484375,0.28125,0.8125
1630937508562,-0.484375,0.28125,0.8125
1630937508593,-0.484375,0.28125,0.8125
1630937508625,-0.484375,0.28125,0.8125
1630937508656,-0.484375,0.28125,0.8125
1630937508687,-0.484375,0.28125,0.8125
1630937508718,-0.484375,0.28125,0.8125
1630937508750,-0.484375,0.28125,0.8125
1630937508781,-0.46875,0.28125,0.8125
1630937508812,-0.484375,0.28125,0.8125
1630937508843,-0.484375,0.28125,0.8125
1630937508875,-0.484375,0.28125,0.8125
1630937508906,-0.46875,0.28125,0.8125
1630937508937,-0.484375,0.28125,0.8125
1630937508968,-0.484375,0.28125,0.8125
1630937509000,-0.484375,0.28125,0.8125
1630937509031,-0.484375,0.28125,0.8125
1630937509062,-0.484375,0.28125,0.8125
1630937509093,-0.484375,0.28125,0.8125
1630937509125,-0.484375,0.28125,0.8125
1630937509156,-0.484375,0.28125,0.8125
1630937509187,-0.484375,0.28125,0.8125
1630937509218,-0.484375,0.28125,0.8125
1630937509250,-0.484375,0.28125,0.8125
1630937509281,-0.484375,0.28125,0.8125
1630937509312,-0.484375,0.28125,0.8125
1630937509343,-0.484375,0.28125,0.8125
1630937509375,-0.46875,0.28125,0.8125
1630937509406,-0.46875,0.28125,0.8125
1630937509437,-0.484375,0.28125,0.8125
1630937509468,-0.484375,0.28125,0.8125
1630937509500,-0.484375,0.28125,0.8125
1630937509531,-0.484375,0.28125,0.8125
1630937509562,-0.484375,0.28125,0.8125
1630937509593,-0.484375,0.28125,0.8125
1630937509625,-0.484375,0.28125,0.8125
1630937509656,-0.484375,0.28125,0.8125
1630937509687,-0.484375,0.28125,0.8125
1630937509718,-0.484375,0.28125,0.8125
1630937509750,-0.484375,0.28125,0.8125
1630937509781,-0.484375,0.28125,0.8125
1630937509812,-0.484375,0.28125,0.8125
1630937509843,-0.484375,0.28125,0.8125
1630937509875,-0.484375,0.28125,0.8125
1630937509906,-0.484375,0.28125,0.8125
1630937509937,-0.484375,0.28125,0.8125
1630937509968,-0.484375,0.28125,0.8125
1630937510000,-0.484375,0.28125,0.8125
1630937510031,-0.484375,0.28125,0.8125
1630937510062,-0.484375,0.28125,0.8125
1630937510093,-0.484375,0.28125,0.8125
1630937510125,-0.484375,0.28125,0.8125
1630937510156,-0.484375,0.28125,0.8125
1630937510187,-0.484375,0.28125,0.8125
1630937510218,-0.484375,0.28125,0.8125
1630937510250,-0.484375,0.28125,0.8125
1630937510281,-0.484375,0.28125,0.8125
1630937510312,-0.484375,0.28125,0.8125
1630937510343,-0.484375,0.28125,0.8125
1630937510375,-0.484375,0.28125,0.8125
1630937510406,-0.484375,0.28125,0.828125
1630937510437,-0.484375,0.28125,0.8125
1630937510468,-0.484375,0.28125,0.8125
1630937510500,-0.484375,0.28125,0.8125
1630937510531,-0.484375,0.28125,0.8125
1630937510562,-0.484375,0.28125,0.8125
1630937510593,-0.484375,0.28125,0.8125
1630937510625,-0.484375,0.28125,0.8125
1630937510656,-0.46875,0.28125,0.8125
1630937510687,-0.484375,0.28125,0.8125
1630937510718,-0.484375,0.28125,0.8125
1630937510750,-0.484375,0.28125,0.8125
1630937510781,-0.484375,0.28125,0.8125
1630937510812,-0.46875,0.28125,0.8125
1630937510843,-0.46875,0.28125,0.8125
1630937510875,-0.484375,0.28125,0.8125
1630937510906,-0.484375,0.28125,0.8125
1630937510937,-0.484375,0.28125,0.8125
1630937510968,-0.484375,0.28125,0.8125
1630937511000,-0.484375,0.28125,0.828125
1630937511031,-0.484375,0.28125,0.8125
1630937511062,-0.46875,0.28125,0.8125
1630937511093,-0.484375,0.28125,0.8125
1630937511125,-0.46875,0.28125,0.8125
1630937511156,-0.484375,0.28125,0.8125
1630937511187,-0.484375,0.28125,0.8125
1630937511218,-0.46875,0.28125,0.8125
1630937511250,-0.46875,0.28125,0.8125
1630937511281,-0.484375,0.28125,0.8125
1630937511312,-0.46875,0.28125,0.8125
1630937511343,-0.46875,0.28125,0.8125
1630937511375,-0.46875,0.28125,0.8125
1630937511406,-0.484375,0.28125,0.8125
1630937511437,-0.484375,0.28125,0.8125
1630937511468,-0.484375,0.28125,0.8125
1630937511500,-0.484375,0.28125,0.8125
1630937511531,-0.484375,0.28125,0.8125
1630937511562,-0.484375,0.28125,0.8125
1630937511593,-0.484375,0.28125,0.8125
1630937511625,-0.484375,0.28125,0.8125
1630937511656,-0.46875,0.28125,0.8125
1630937511687,-0.46875,0.28125,0.8125
1630937511718,-0.46875,0.28125,0.8125
1630937511750,-0.484375,0.28125,0.8125
1630937511781,-0.46875,0.28125,0.8125
1630937511812,-0.484375,0.28125,0.8125
1630937511843,-0.484375,0.28125,0.8125
1630937511875,-0.484375,0.28125,0.8125
1630937511906,-0.484375,0.28125,0.8125
1630937511937,-0.484375,0.28125,0.8125
1630937511968,-0.484375,0.28125,0.8125
1630937512000,-0.484375,0.28125,0.8125
1630937512031,-0.484375,0.28125,0.8125
1630937512062,-0.484375,0.28125,0.8125
1630937512093,-0.484375,0.28125,0.8125
1630937512125,-0.484375,0.28125,0.8125
1630937512156,-0.484375,0.28125,0.8125
1630937512187,-0.484375,0.28125,0.8125
1630937512218,-0.484375,0.28125,0.8125
1630937512250,-0.484375,0.28125,0.8125
1630937512281,-0.484375,0.28125,0.8125
1630937512312,-0.484375,0.28125,0.8125
1630937512343,-0.484375,0.28125,0.8125
1630937512375,-0.484375,0.28125,0.8125
1630937512406,-0.484375,0.28125,0.8125
1630937512437,-0.484375,0.28125,0.8125
1630937512468,-0.484375,0.28125,0.8125
1630937512500,-0.484375,0.28125,0.8125
1630937512531,-0.484375,0.28125,0.8125
1630937512562,-0.484375,0.28125,0.8125
1630937512593,-0.484375,0.28125,0.8125
1630937512625,-0.484375,0.28125,0.8125
1630937512656,-0.484375,0.28125,0.8125
1630937512687,-0.484375,0.28125,0.8125
1630937512718,-0.484375,0.28125,0.8125
1630937512750,-0.484375,0.28125,0.8125
1630937512781,-0.484375,0.28125,0.8125
1630937512812,-0.484375,0.28125,0.8125
1630937512843,-0.484375,0.28125,0.8125
1630937512875,-0.484375,0.28125,0.8125
1630937512906,-0.484375,0.28125,0.8125
1630937512937,-0.484375,0.28125,0.8125
1630937512968,-0.484375,0.28125,0.8125
1630937513000,-0.484375,0.28125,0.8125
1630937513031,-0.484375,0.28125,0.8125
1630937513062,-0.484375,0.28125,0.8125
1630937513093,-0.46875,0.28125,0.8125
1630937513125,-0.484375,0.28125,0.8125
1630937513156,-0.484375,0.28125,0.8125
1630937513187,-0.484375,0.28125,0.8125
1630937513218,-0.484375,0.28125,0.8125
1630937513250,-0.484375,0.28125,0.8125
1630937513281,-0.484375,0.28125,0.8125
1630937513312,-0.484375,0.28125,0.8125
1630937513343,-0.484375,0.28125,0.8125
1630937513375,-0.484375,0.28125,0.8125
1630937513406,-0.484375,0.28125,0.8125
1630937513437,-0.484375,0.28125,0.8125
1630937513468,-0.484375,0.28125,0.8125
1630937513500,-0.484375,0.28125,0.8125
1630937513531,-0.484375,0.28125,0.8125
1630937513562,-0.484375,0.28125,0.8125
1630937513593,-0.484375,0.28125,0.8125
1630937513625,-0.484375,0.28125,0.8125
1630937513656,-0.484375,0.28125,0.8125
1630937513687,-0.484375,0.28125,0.8125
1630937513718,-0.484375,0.28125,0.8125
1630937513750,-0.484375,0.28125,0.8125
1630937513781,-0.484375,0.28125,0.8125
1630937513812,-0.484375,0.28125,0.8125
1630937513843,-0.484375,0.28125,0.8125
1630937513875,-0.484375,0.28125,0.8125
1630937513906,-0.484375,0.28125,0.8125
1630937513937,-0.484375,0.28125,0.8125
1630937513968,-0.484375,0.28125,0.8125
1630937514000,-0.484375,0.28125,0.8125
1630937514031,-0.484375,0.28125,0.8125
1630937514062,-0.484375,0.28125,0.8125
1630937514093,-0.484375,0.28125,0.8125
1630937514125,-0.484375,0.28125,0.8125
1630937514156,-0.484375,0.28125,0.8125
1630937514187,-0.484375,0.28125,0.828125
1630937514218,-0.484375,0.28125,0.8125
1630937514250,-0.484375,0.28125,0.8125
1630937514281,-0.484375,0.28125,0.8125
1630937514312,-0.484375,0.28125,0.8125
1630937514343,-0.484375,0.28125,0.8125
1630937514375,-0.484375,0.28125,0.8125
1630937514406,-0.484375,0.28125,0.8125
1630937514437,-0.484375,0.28125,0.8125
1630937514468,-0.484375,0.28125,0.8125
1630937514500,-0.484375,0.28125,0.8125
1630937514531,-0.46875,0.28125,0.8125
1630937514562,-0.484375,0.28125,0.8125
1630937514593,-0.484375,0.28125,0.8125
1630937514625,-0.46875,0.28125,0.8125
1630937514656,-0.46875,0.28125,0.8125
1630937514687,-0.484375,0.28125,0.8125
1630937514718,-0.484375,0.28125,0.8125
1630937514750,-0.46875,0.28125,0.8125
1630937514781,-0.46875,0.28125,0.8125
1630937514812,-0.46875,0.28125,0.8125
1630937514843,-0.484375,0.28125,0.8125
1630937514875,-0.46875,0.28125,0.8125
1630937514906,-0.484375,0.28125,0.8125
1630937514937,-0.484375,0.28125,0.8125
1630937514968,-0.46875,0.28125,0.8125
1630937515000,-0.484375,0.28125,0.8125
1630937515031,-0.484375,0.28125,0.8125
1630937515062,-0.46875,0.28125,0.8125
1630937515093,-0.484375,0.28125,0.8125
1630937515125,-0.484375,0.28125,0.8125
1630937515156,-0.484375,0.28125,0.8125
1630937515187,-0.484375,0.28125,0.8125
1630937515218,-0.46875,0.28125,0.8125
1630937515250,-0.46875,0.28125,0.8125
1630937515281,-0.484375,0.28125,0.8125
1630937515312,-0.484375,0.28125,0.8125
1630937515343,-0.484375,0.28125,0.8125
1630937515375,-0.484375,0.28125,0.8125
1630937515406,-0.484375,0.28125,0.8125
1630937515437,-0.484375,0.28125,0.8125
1630937515468,-0.484375,0.28125,0.8125
1630937515500,-0.46875,0.28125,0.8125
1630937515531,-0.484375,0.28125,0.8125
1630937515562,-0.484375,0.28125,0.8125
1630937515593,-0.484375,0.28125,0.8125
1630937515625,-0.484375,0.28125,0.8125
1630937515656,-0.484375,0.28125,0.8125
1630937515687,-0.484375,0.28125,0.8125
1630937515718,-0.484375,0.28125,0.8125
1630937515750,-0.46875,0.28125,0.8125
1630937515781,-0.484375,0.28125,0.8125
1630937515812,-0.484375,0.28125,0.8125
1630937515843,-0.484375,0.28125,0.8125
1630937515875,-0.484375,0.28125,0.8125
1630937515906,-0.484375,0.28125,0.8125
1630937515937,-0.484375,0.28125,0.8125
1630937515968,-0.484375,0.28125,0.8125
1630937516000,-0.46875,0.28125,0.8125
1630937516031,-0.484375,0.28125,0.8125
1630937516062,-0.484375,0.28125,0.8125
1630937516093,-0.484375,0.28125,0.8125
1630937516125,-0.484375,0.28125,0.8125
