timestamp,ax,ay,az
1631192845218,0.171875,-0.25,0.9375
1631192845250,0.171875,-0.25,0.9375
1631192845281,0.171875,-0.25,0.9375
1631192845312,0.171875,-0.25,0.9375
1631192845343,0.171875,-0.25,0.9375
1631192845375,0.171875,-0.25,0.9375
1631192845406,0.171875,-0.25,0.9375
1631192845437,0.171875,-0.265625,0.9375
1631192845468,0.1875,-0.25,0.9375
1631192845500,0.171875,-0.25,0.9375
1631192845531,0.171875,-0.265625,0.9375
1631192845562,0.1875,-0.265625,0.921875
1631192845593,0.171875,-0.25,0.9375
1631192845625,0.171875,-0.25,0.9375
1631192845656,0.171875,-0.25,0.9375
1631192845687,0.171875,-0.25,0.9375
1631192845718,0.171875,-0.265625,0.9375
1631192845750,0.171875,-0.25,0.9375
1631192845781,0.171875,-0.25,0.9375
1631192845812,0.171875,-0.25,0.9375
1631192845843,0.171875,-0.25,0.9375
1631192845875,0.171875,-0.25,0.9375
1631192845906,0.171875,-0.265625,0.9375
1631192845937,0.171875,-0.25,0.9375
1631192845968,0.171875,-0.25,0.9375
1631192846000,0.171875,-0.265625,0.9375
1631192846031,0.171875,-0.265625,0.9375
1631192846062,0.171875,-0.25,0.9375
1631192846093,0.171875,-0.25,0.9375
1631192846125,0.171875,-0.25,0.9375
1631192846156,0.171875,-0.265625,0.9375
1631192846187,0.171875,-0.25,0.9375
1631192846218,0.171875,-0.25,0.9375
1631192846250,0.171875,-0.265625,0.9375
1631192846281,0.171875,-0.265625,0.9375
1631192846312,0.171875,-0.25,0.9375
1631192846343,0.171875,-0.25,0.9375
1631192846375,0.171875,-0.25,0.9375
1631192846406,0.171875,-0.25,0.9375
1631192846437,0.171875,-0.25,0.9375
1631192846468,0.171875,-0.265625,0.9375
1631192846500,0.171875,-0.25,0.9375
1631192846531,0.171875,-0.25,0.9375
1631192846562,0.171875,-0.265625,0.9375
1631192846593,0.171875,-0.25,0.9375
1631192846625,0.1875,-0.25,0.9375
1631192846656,0.171875,-0.25,0.9375
1631192846687,0.171875,-0.25,0.9375
1631192846718,0.171875,-0.265625,0.9375
1631192846750,0.171875,-0.265625,0.9375
1631192846781,0.1875,-0.265625,0.9375
1631192846812,0.171875,-0.25,0.9375
1631192846843,0.171875,-0.265625,0.9375
1631192846875,0.171875,-0.265625,0.9375
1631192846906,0.171875,-0.25,0.9375
1631192846937,0.171875,-0.25,0.9375
1631192846968,0.1875,-0.265625,0.9375
1631192847000,0.1875,-0.25,0.9375
1631192847031,0.171875,-0.265625,0.9375
1631192847062,0.171875,-0.265625,0.9375
1631192847093,0.1875,-0.265625,0.9375
1631192847125,0.1875,-0.265625,0.9375
1631192847156,0.1875,-0.265625,0.9375
1631192847187,0.1875,-0.25,0.9375
1631192847218,0.171875,-0.265625,0.9375
1631192847250,0.1875,-0.265625,0.921875
1631192847281,0.1875,-0.265625,0.9375
1631192847312,0.1875,-0.265625,0.9375
1631192847343,0.1875,-0.265625,0.9375
1631192847375,0.1875,-0.25,0.9375
1631192847406,0.1875,-0.25,0.9375
1631192847437,0.1875,-0.265625,0.9375
1631192847468,0.1875,-0.265625,0.921875
1631192847500,0.1875,-0.25,0.9375
1631192847531,0.1875,-0.265625,0.9375
1631192847562,0.1875,-0.25,0.921875
1631192847593,0.1875,-0.25,0.9375
1631192847625,0.1875,-0.265625,0.9375
1631192847656,0.1875,-0.25,0.9375
1631192847687,0.1875,-0.265625,0.9375
1631192847718,0.1875,-0.25,0.9375
1631192847750,0.1875,-0.265625,0.9375
1631192847781,0.1875,-0.265625,0.9375
1631192847812,0.1875,-0.265625,0.9375
1631192847843,0.1875,-0.265625,0.921875
1631192847875,0.1875,-0.25,0.9375
1631192847906,0.1875,-0.25,0.9375
1631192847937,0.1875,-0.25,0.9375
1631192847968,0.1875,-0.25,0.921875
1631192848000,0.1875,-0.265625,0.9375
1631192848031,0.1875,-0.265625,0.9375
1631192848062,0.1875,-0.265625,0.9375
1631192848093,0.1875,-0.265625,0.9375
1631192848125,0.1875,-0.25,0.9375
1631192848156,0.1875,-0.265625,0.9375
1631192848187,0.1875,-0.265625,0.9375
1631192848218,0.1875,-0.265625,0.9375
1631192848250,0.1875,-0.25,0.9375
1631192848281,0.1875,-0.25,0.9375
1631192848312,0.1875,-0.25,0.9375
1631192848343,0.1875,-0.25,0.9375
1631192848375,0.1875,-0.25,0.9375
1631192848406,0.1875,-0.25,0.9375
1631192848437,0.1875,-0.25,0.9375
1631192848468,0.1875,-0.265625,0.921875
1631192848500,0.1875,-0.25,0.921875
1631192848531,0.1875,-0.265625,0.9375
1631192848562,0.1875,-0.265625,0.9375
1631192848593,0.1875,-0.265625,0.9375
1631192848625,0.1875,-0.265625,0.9375
1631192848656,0.1875,-0.25,0.9375
1631192848687,0.1875,-0.25,0.9375
1631192848718,0.1875,-0.265625,0.9375
1631192848750,0.1875,-0.265625,0.9375
1631192848781,0.1875,-0.265625,0.9375
1631192848812,0.171875,-0.265625,0.9375
1631192848843,0.1875,-0.265625,0.9375
1631192848875,0.1875,-0.25,0.9375
1631192848906,0.1875,-0.25,0.9375
1631192848937,0.1875,-0.25,0.9375
1631192848968,0.1875,-0.265625,0.9375
1631192849000,0.1875,-0.265625,0.9375
1631192849031,0.1875,-0.25,0.9375
1631192849062,0.1875,-0.25,0.921875
1631192849093,0.1875,-0.25,0.9375
1631192849125,0.1875,-0.265625,0.9375
1631192849156,0.171875,-0.265625,0.9375
1631192849187,0.1875,-0.265625,0.921875
1631192849218,0.1875,-0.25,0.9375
1631192849250,0.171875,-0.265625,0.9375
1631192849281,0.171875,-0.265625,0.921875
1631192849312,0.171875,-0.25,0.9375
1631192849343,0.171875,-0.25,0.9375
1631192849375,0.15625,-0.265625,0.9375
1631192849406,0.125,-0.25,0.921875
1631192849437,0.1875,-0.25,0.953125
1631192849468,0.171875,-0.265625,0.9375
1631192849500,0.171875,-0.25,0.953125
1631192849531,0.171875,-0.25,0.9375
1631192849562,0.15625,-0.25,0.921875
1631192849593,0.171875,-0.25,0.9375
1631192849625,0.1875,-0.25,0.9375
1631192849656,0.171875,-0.25,0.9375
1631192849687,0.15625,-0.234375,0.953125
1631192849718,0.15625,-0.265625,0.96875
1631192849750,0.078125,-0.234375,0.96875
1631192849781,0.171875,-0.25,0.921875
1631192849812,0.296875,-0.234375,0.859375
1631192849843,0.296875,-0.265625,0.90625
1631192849875,0.25,-0.25,0.9375
1631192849906,0.203125,-0.234375,0.9375
1631192849937,0.171875,-0.234375,0.9375
1631192849968,0.15625,-0.25,0.96875
1631192850000,0.15625,-0.25,0.953125
1631192850031,0.140625,-0.25,0.921875
1631192850062,0.203125,-0.25,0.921875
1631192850093,0.1875,-0.25,0.921875
1631192850125,0.1875,-0.25,0.9375
1631192850156,0.171875,-0.25,0.9375
1631192850187,0.171875,-0.25,0.9375
1631192850218,0.171875,-0.25,0.9375
1631192850250,0.171875,-0.25,0.9375
1631192850281,0.171875,-0.25,0.9375
1631192850312,0.171875,-0.25,0.9375
1631192850343,0.171875,-0.25,0.9375
1631192850375,0.1875,-0.25,0.9375
1631192850406,0.171875,-0.25,0.9375
1631192850437,0.171875,-0.25,0.9375
1631192850468,0.171875,-0.25,0.9375
1631192850500,0.171875,-0.25,0.9375
1631192850531,0.171875,-0.25,0.9375
1631192850562,0.171875,-0.25,0.9375
1631192850593,0.171875,-0.25,0.9375
1631192850625,0.171875,-0.25,0.9375
1631192850656,0.171875,-0.25,0.9375
1631192850687,0.1875,-0.25,0.9375
1631192850718,0.171875,-0.25,0.9375
1631192850750,0.171875,-0.25,0.9375
1631192850781,0.171875,-0.25,0.9375
1631192850812,0.171875,-0.25,0.9375
1631192850843,0.171875,-0.25,0.9375
1631192850875,0.171875,-0.25,0.9375
1631192850906,0.171875,-0.25,0.9375
1631192850937,0.171875,-0.25,0.9375
1631192850968,0.171875,-0.25,0.9375
1631192851000,0.171875,-0.25,0.9375
1631192851031,0.171875,-0.25,0.9375
1631192851062,0.171875,-0.25,0.9375
1631192851093,0.171875,-0.25,0.9375
1631192851125,0.171875,-0.25,0.9375
1631192851156,0.171875,-0.25,0.9375
1631192851187,0.171875,-0.25,0.9375
1631192851218,0.171875,-0.25,0.9375
1631192851250,0.1875,-0.25,0.9375
1631192851281,0.171875,-0.25,0.9375
1631192851312,0.171875,-0.25,0.9375
1631192851343,0.171875,-0.25,0.9375
1631192851375,0.171875,-0.25,0.9375
1631192851406,0.171875,-0.25,0.9375
1631192851437,0.171875,-0.25,0.9375
1631192851468,0.171875,-0.25,0.9375
1631192851500,0.171875,-0.25,0.9375
1631192851531,0.171875,-0.25,0.9375
1631192851562,0.1875,-0.25,0.9375
1631192851593,0.171875,-0.25,0.9375
1631192851625,0.171875,-0.25,0.9375
1631192851656,0.1875,-0.25,0.9375
1631192851687,0.171875,-0.25,0.9375
1631192851718,0.171875,-0.25,0.9375
1631192851750,0.171875,-0.25,0.9375
1631192851781,0.171875,-0.25,0.9375
1631192851812,0.171875,-0.25,0.9375
1631192851843,0.171875,-0.25,0.9375
1631192851875,0.171875,-0.25,0.9375
1631192851906,0.171875,-0.25,0.9375
1631192851937,0.171875,-0.25,0.9375
1631192851968,0.171875,-0.25,0.9375
1631192852000,0.171875,-0.25,0.9375
1631192852031,0.171875,-0.25,0.9375
1631192852062,0.171875,-0.25,0.9375
1631192852093,0.171875,-0.25,0.9375
1631192852125,0.1875,-0.25,0.9375
1631192852156,0.171875,-0.25,0.9375
1631192852187,0.171875,-0.25,0.9375
1631192852218,0.171875,-0.25,0.9375
1631192852250,0.171875,-0.25,0.9375
1631192852281,0.171875,-0.25,0.9375
1631192852312,0.171875,-0.25,0.9375
1631192852343,0.171875,-0.25,0.9375
1631192852375,0.171875,-0.25,0.9375
1631192852406,0.171875,-0.25,0.9375
1631192852437,0.171875,-0.25,0.9375
1631192852468,0.171875,-0.25,0.9375
1631192852500,0.171875,-0.25,0.9375
1631192852531,0.171875,-0.25,0.9375
1631192852562,0.171875,-0.25,0.9375
1631192852593,0.171875,-0.25,0.9375
1631192852625,0.171875,-0.25,0.9375
1631192852656,0.171875,-0.25,0.9375
1631192852687,0.171875,-0.25,0.9375
1631192852718,0.171875,-0.25,0.9375
1631192852750,0.171875,-0.25,0.9375
1631192852781,0.171875,-0.25,0.9375
1631192852812,0.171875,-0.25,0.9375
1631192852843,0.171875,-0.25,0.9375
1631192852875,0.171875,-0.25,0.9375
1631192852906,0.1875,-0.25,0.9375
1631192852937,0.171875,-0.25,0.9375
1631192852968,0.171875,-0.25,0.9375
1631192853000,0.1875,-0.25,0.9375
1631192853031,0.171875,-0.25,0.9375
1631192853062,0.171875,-0.25,0.9375
1631192853093,0.171875,-0.25,0.9375
1631192853125,0.171875,-0.25,0.9375
1631192853156,0.171875,-0.25,0.9375
1631192853187,0.171875,-0.25,0.9375
1631192853218,0.171875,-0.25,0.9375
1631192853250,0.171875,-0.25,0.9375
1631192853281,0.171875,-0.25,0.9375
1631192853312,0.171875,-0.25,0.9375
1631192853343,0.171875,-0.25,0.9375
1631192853375,0.171875,-0.25,0.9375
1631192853406,0.171875,-0.25,0.9375
1631192853437,0.171875,-0.25,0.9375
1631192853468,0.171875,-0.25,0.9375
1631192853500,0.171875,-0.25,0.9375
1631192853531,0.171875,-0.25,0.9375
1631192853562,0.171875,-0.25,0.9375
1631192853593,0.171875,-0.25,0.9375
1631192853625,0.171875,-0.25,0.9375
1631192853656,0.171875,-0.25,0.9375
1631192853687,0.171875,-0.25,0.9375
1631192853718,0.171875,-0.25,0.9375
1631192853750,0.1875,-0.25,0.9375
1631192853781,0.171875,-0.25,0.9375
1631192853812,0.171875,-0.25,0.9375
1631192853843,0.1875,-0.25,0.9375
1631192853875,0.171875,-0.25,0.9375
1631192853906,0.171875,-0.25,0.9375
1631192853937,0.1875,-0.25,0.9375
1631192853968,0.1875,-0.25,0.9375
1631192854000,0.171875,-0.25,0.9375
1631192854031,0.171875,-0.25,0.9375
1631192854062,0.171875,-0.25,0.9375
1631192854093,0.171875,-0.25,0.9375
1631192854125,0.171875,-0.25,0.9375
1631192854156,0.171875,-0.25,0.9375
1631192854187,0.171875,-0.25,0.9375
1631192854218,0.171875,-0.25,0.9375
1631192854250,0.171875,-0.25,0.9375
1631192854281,0.171875,-0.25,0.9375
1631192854312,0.171875,-0.25,0.9375
1631192854343,0.171875,-0.25,0.9375
1631192854375,0.171875,-0.25,0.9375
1631192854406,0.171875,-0.25,0.9375
1631192854437,0.171875,-0.25,0.9375
1631192854468,0.171875,-0.25,0.9375
1631192854500,0.171875,-0.25,0.9375
1631192854531,0.171875,-0.25,0.9375
1631192854562,0.171875,-0.25,0.9375
1631192854593,0.171875,-0.25,0.9375
1631192854625,0.171875,-0.25,0.9375
1631192854656,0.171875,-0.25,0.9375
1631192854687,0.171875,-0.25,0.9375
1631192854718,0.171875,-0.25,0.9375
1631192854750,0.171875,-0.25,0.9375
1631192854781,0.171875,-0.25,0.9375
1631192854812,0.171875,-0.25,0.9375
1631192854843,0.171875,-0.25,0.9375
1631192854875,0.171875,-0.25,0.9375
1631192854906,0.171875,-0.25,0.9375
1631192854937,0.171875,-0.25,0.9375
1631192854968,0.171875,-0.25,0.9375
1631192855000,0.1875,-0.25,0.9375
1631192855031,0.171875,-0.25,0.9375
1631192855062,0.171875,-0.25,0.9375
1631192855093,0.171875,-0.25,0.9375
1631192855125,0.171875,-0.25,0.9375
1631192855156,0.171875,-0.25,0.9375
1631192855187,0.171875,-0.25,0.9375
1631192855218,0.171875,-0.25,0.9375
1631192855250,0.171875,-0.25,0.9375
1631192855281,0.171875,-0.25,0.9375
1631192855312,0.171875,-0.25,0.9375
1631192855343,0.171875,-0.25,0.9375
1631192855375,0.171875,-0.25,0.9375
1631192855406,0.171875,-0.25,0.9375
1631192855437,0.171875,-0.25,0.9375
1631192855468,0.171875,-0.25,0.9375
1631192855500,0.171875,-0.25,0.9375
1631192855531,0.171875,-0.25,0.9375
1631192855562,0.171875,-0.25,0.9375
1631192855593,0.171875,-0.25,0.9375
1631192855625,0.171875,-0.25,0.9375
1631192855656,0.171875,-0.25,0.9375
1631192855687,0.171875,-0.25,0.9375
1631192855718,0.171875,-0.25,0.9375
1631192855750,0.171875,-0.25,0.9375
1631192855781,0.171875,-0.25,0.9375
1631192855812,0.171875,-0.25,0.9375
1631192855843,0.171875,-0.25,0.9375
1631192855875,0.171875,-0.25,0.9375
1631192855906,0.171875,-0.25,0.921875
1631192855937,0.171875,-0.25,0.9375
1631192855968,0.171875,-0.25,0.9375
1631192856000,0.171875,-0.25,0.9375
1631192856031,0.171875,-0.25,0.9375
1631192856062,0.171875,-0.25,0.9375
1631192856093,0.171875,-0.25,0.9375
1631192856125,0.171875,-0.25,0.9375
1631192856156,0.171875,-0.25,0.9375
1631192856187,0.171875,-0.25,0.9375
1631192856218,0.1875,-0.25,0.9375
1631192856250,0.171875,-0.25,0.9375
1631192856281,0.171875,-0.25,0.9375
1631192856312,0.171875,-0.25,0.9375
1631192856343,0.171875,-0.25,0.9375
1631192856375,0.171875,-0.25,0.9375
1631192856406,0.171875,-0.25,0.9375
1631192856437,0.171875,-0.25,0.9375
1631192856468,0.171875,-0.25,0.9375
1631192856500,0.171875,-0.25,0.9375
1631192856531,0.171875,-0.25,0.9375
1631192856562,0.171875,-0.25,0.9375
1631192856593,0.171875,-0.25,0.9375
1631192856625,0.171875,-0.25,0.9375
1631192856656,0.171875,-0.25,0.9375
1631192856687,0.171875,-0.25,0.9375
1631192856718,0.171875,-0.25,0.9375
1631192856750,0.171875,-0.25,0.9375
1631192856781,0.171875,-0.25,0.9375
1631192856812,0.171875,-0.25,0.9375
1631192856843,0.171875,-0.25,0.9375
1631192856875,0.171875,-0.25,0.9375
1631192856906,0.171875,-0.25,0.9375
1631192856937,0.171875,-0.25,0.9375
1631192856968,0.171875,-0.25,0.9375
1631192857000,0.171875,-0.25,0.9375
1631192857031,0.171875,-0.25,0.9375
1631192857062,0.171875,-0.25,0.921875
1631192857093,0.1875,-0.25,0.9375
1631192857125,0.1875,-0.25,0.9375
1631192857156,0.15625,-0.25,0.9375
1631192857187,0.15625,-0.25,0.953125
1631192857218,0.171875,-0.25,0.9375
1631192857250,0.171875,-0.25,0.9375
1631192857281,0.171875,-0.25,0.9375
1631192857312,0.1875,-0.25,0.9375
1631192857343,0.171875,-0.25,0.921875
1631192857375,0.1875,-0.265625,0.9375
1631192857406,0.1875,-0.265625,0.9375
1631192857437,0.1875,-0.265625,0.9375
1631192857468,0.1875,-0.265625,0.921875
1631192857500,0.1875,-0.25,0.9375
1631192857531,0.1875,-0.25,0.9375
1631192857562,0.1875,-0.25,0.9375
1631192857593,0.171875,-0.25,0.9375
1631192857625,0.171875,-0.25,0.9375
1631192857656,0.171875,-0.25,0.9375
1631192857687,0.171875,-0.25,0.9375
1631192857718,0.171875,-0.25,0.9375
1631192857750,0.171875,-0.25,0.9375
1631192857781,0.171875,-0.25,0.9375
1631192857812,0.171875,-0.25,0.9375
1631192857843,0.171875,-0.25,0.9375
1631192857875,0.171875,-0.25,0.9375
1631192857906,0.1875,-0.25,0.9375
1631192857937,0.171875,-0.25,0.9375
1631192857968,0.1875,-0.265625,0.9375
1631192858000,0.171875,-0.25,0.9375
1631192858031,0.171875,-0.25,0.9375
1631192858062,0.1875,-0.25,0.921875
1631192858093,0.1875,-0.25,0.921875
1631192858125,0.171875,-0.25,0.9375
1631192858156,0.171875,-0.25,0.9375
1631192858187,0.171875,-0.25,0.9375
1631192858218,0.171875,-0.25,0.9375
1631192858250,0.171875,-0.25,0.9375
1631192858281,0.171875,-0.25,0.9375
1631192858312,0.171875,-0.25,0.9375
1631192858343,0.171875,-0.25,0.9375
1631192858375,0.171875,-0.25,0.9375
1631192858406,0.171875,-0.25,0.9375
1631192858437,0.171875,-0.25,0.9375
1631192858468,0.171875,-0.25,0.9375
1631192858500,0.171875,-0.25,0.9375
1631192858531,0.171875,-0.25,0.9375
1631192858562,0.171875,-0.25,0.9375
1631192858593,0.171875,-0.25,0.9375
1631192858625,0.1875,-0.25,0.9375
1631192858656,0.171875,-0.25,0.9375
1631192858687,0.171875,-0.25,0.9375
1631192858718,0.171875,-0.25,0.9375
1631192858750,0.171875,-0.25,0.9375
1631192858781,0.171875,-0.25,0.9375
1631192858812,0.171875,-0.25,0.9375
1631192858843,0.171875,-0.25,0.9375
1631192858875,0.171875,-0.25,0.9375
1631192858906,0.171875,-0.25,0.9375
1631192858937,0.171875,-0.25,0.9375
1631192858968,0.171875,-0.25,0.9375
1631192859000,0.171875,-0.25,0.9375
1631192859031,0.171875,-0.25,0.9375
1631192859062,0.171875,-0.25,0.9375
1631192859093,0.1875,-0.25,0.9375
1631192859125,0.1875,-0.25,0.9375
1631192859156,0.171875,-0.25,0.9375
1631192859187,0.171875,-0.25,0.9375
1631192859218,0.171875,-0.25,0.9375
1631192859250,0.171875,-0.25,0.9375
1631192859281,0.171875,-0.25,0.9375
1631192859312,0.171875,-0.25,0.9375
1631192859343,0.171875,-0.25,0.9375
1631192859375,0.171875,-0.25,0.9375
1631192859406,0.171875,-0.25,0.9375
1631192859437,0.171875,-0.25,0.9375
1631192859468,0.1875,-0.25,0.9375
1631192859500,0.171875,-0.25,0.9375
1631192859531,0.1875,-0.25,0.9375
1631192859562,0.171875,-0.25,0.9375
1631192859593,0.171875,-0.25,0.9375
1631192859625,0.171875,-0.265625,0.921875
1631192859656,0.171875,-0.25,0.9375
1631192859687,0.1875,-0.25,0.9375
1631192859718,0.1875,-0.25,0.9375
1631192859750,0.171875,-0.25,0.9375
1631192859781,0.1875,-0.25,0.9375
1631192859812,0.171875,-0.25,0.9375
1631192859843,0.1875,-0.25,0.9375
1631192859875,0.171875,-0.25,0.9375
1631192859906,0.171875,-0.25,0.9375
1631192859937,0.171875,-0.25,0.9375
1631192859968,0.171875,-0.25,0.9375
1631192860000,0.171875,-0.25,0.9375
1631192860031,0.1875,-0.25,0.9375
1631192860062,0.1875,-0.25,0.9375
1631192860093,0.171875,-0.25,0.9375
1631192860125,0.171875,-0.25,0.9375
1631192860156,0.1875,-0.25,0.9375
1631192860187,0.171875,-0.25,0.9375
1631192860218,0.171875,-0.25,0.9375
1631192860250,0.1875,-0.25,0.9375
1631192860281,0.171875,-0.25,0.9375
1631192860312,0.1875,-0.25,0.9375
1631192860343,0.1875,-0.25,0.9375
1631192860375,0.171875,-0.25,0.9375
1631192860406,0.1875,-0.25,0.9375
1631192860437,0.1875,-0.25,0.9375
1631192860468,0.1875,-0.25,0.9375
1631192860500,0.1875,-0.25,0.9375
1631192860531,0.171875,-0.25,0.9375
1631192860562,0.1875,-0.25,0.9375
1631192860593,0.1875,-0.25,0.9375
1631192860625,0.171875,-0.25,0.9375
1631192860656,0.1875,-0.25,0.9375
1631192860687,0.171875,-0.25,0.9375
1631192860718,0.171875,-0.25,0.9375
1631192860750,0.1875,-0.25,0.9375
1631192860781,0.171875,-0.25,0.9375
1631192860812,0.171875,-0.25,0.9375
1631192860843,0.171875,-0.25,0.9375
1631192860875,0.171875,-0.25,0.9375
1631192860906,0.171875,-0.25,0.9375
1631192860937,0.171875,-0.25,0.9375
1631192860968,0.171875,-0.25,0.9375
1631192861000,0.171875,-0.25,0.9375
1631192861031,0.171875,-0.25,0.9375
1631192861062,0.171875,-0.25,0.9375
1631192861093,0.171875,-0.25,0.9375
1631192861125,0.171875,-0.25,0.9375
1631192861156,0.171875,-0.25,0.9375
1631192861187,0.171875,-0.25,0.9375
1631192861218,0.171875,-0.25,0.9375
1631192861250,0.171875,-0.25,0.9375
1631192861281,0.171875,-0.25,0.9375
1631192861312,0.171875,-0.25,0.9375
1631192861343,0.171875,-0.25,0.9375
1631192861375,0.171875,-0.25,0.9375
1631192861406,0.171875,-0.25,0.9375
1631192861437,0.171875,-0.25,0.9375
1631192861468,0.171875,-0.25,0.9375
1631192861500,0.171875,-0.25,0.9375
1631192861531,0.171875,-0.25,0.9375
1631192861562,0.171875,-0.25,0.9375
1631192861593,0.171875,-0.25,0.9375
1631192861625,0.171875,-0.25,0.9375
1631192861656,0.171875,-0.25,0.9375
1631192861687,0.1875,-0.25,0.9375
1631192861718,0.171875,-0.25,0.9375
1631192861750,0.171875,-0.25,0.9375
1631192861781,0.171875,-0.25,0.9375
1631192861812,0.171875,-0.25,0.9375
1631192861843,0.171875,-0.25,0.9375
1631192861875,0.171875,-0.25,0.9375
1631192861906,0.171875,-0.25,0.9375
1631192861937,0.171875,-0.25,0.9375
1631192861968,0.171875,-0.25,0.9375
1631192862000,0.171875,-0.25,0.9375
1631192862031,0.171875,-0.25,0.9375
1631192862062,0.171875,-0.25,0.9375
1631192862093,0.171875,-0.25,0.9375
1631192862125,0.171875,-0.25,0.9375
1631192862156,0.171875,-0.25,0.9375
1631192862187,0.171875,-0.25,0.9375
1631192862218,0.171875,-0.25,0.9375
1631192862250,0.171875,-0.25,0.9375
1631192862281,0.171875,-0.25,0.9375
1631192862312,0.171875,-0.25,0.9375
1631192862343,0.171875,-0.25,0.9375
1631192862375,0.171875,-0.25,0.9375
1631192862406,0.171875,-0.25,0.9375
1631192862437,0.171875,-0.25,0.9375
1631192862468,0.171875,-0.25,0.9375
1631192862500,0.171875,-0.25,0.9375
1631192862531,0.171875,-0.25,0.9375
1631192862562,0.171875,-0.25,0.9375
1631192862593,0.171875,-0.25,0.9375
1631192862625,0.171875,-0.25,0.9375
1631192862656,0.171875,-0.25,0.9375
1631192862687,0.171875,-0.25,0.9375
1631192862718,0.171875,-0.25,0.9375
1631192862750,0.171875,-0.25,0.9375
1631192862781,0.171875,-0.25,0.9375
1631192862812,0.171875,-0.25,0.9375
1631192862843,0.171875,-0.25,0.9375
1631192862875,0.171875,-0.25,0.9375
1631192862906,0.1875,-0.25,0.9375
1631192862937,0.171875,-0.25,0.9375
1631192862968,0.171875,-0.25,0.9375
1631192863000,0.171875,-0.25,0.921875
1631192863031,0.171875,-0.25,0.9375
1631192863062,0.171875,-0.25,0.9375
1631192863093,0.171875,-0.25,0.9375
1631192863125,0.171875,-0.25,0.9375
1631192863156,0.171875,-0.25,0.9375
1631192863187,0.171875,-0.25,0.9375
1631192863218,0.171875,-0.25,0.9375
1631192863250,0.171875,-0.25,0.9375
1631192863281,0.171875,-0.25,0.9375
1631192863312,0.171875,-0.25,0.9375
1631192863343,0.171875,-0.25,0.9375
1631192863375,0.171875,-0.25,0.9375
1631192863406,0.171875,-0.25,0.9375
1631192863437,0.171875,-0.25,0.9375
1631192863468,0.171875,-0.25,0.9375
1631192863500,0.171875,-0.25,0.9375
1631192863531,0.171875,-0.25,0.9375
1631192863562,0.171875,-0.25,0.9375
1631192863593,0.171875,-0.25,0.9375
1631192863625,0.171875,-0.25,0.9375
1631192863656,0.171875,-0.25,0.9375
1631192863687,0.171875,-0.25,0.9375
1631192863718,0.171875,-0.25,0.9375
1631192863750,0.171875,-0.25,0.9375
1631192863781,0.171875,-0.25,0.9375
1631192863812,0.171875,-0.25,0.9375
1631192863843,0.171875,-0.25,0.9375
1631192863875,0.171875,-0.25,0.9375
1631192863906,0.171875,-0.25,0.9375
1631192863937,0.171875,-0.25,0.9375
1631192863968,0.171875,-0.25,0.9375
1631192864000,0.171875,-0.25,0.9375
1631192864031,0.171875,-0.25,0.9375
1631192864062,0.171875,-0.25,0.9375
1631192864093,0.171875,-0.25,0.9375
1631192864125,0.171875,-0.25,0.9375
1631192864156,0.171875,-0.25,0.9375
1631192864187,0.171875,-0.25,0.9375
1631192864218,0.171875,-0.25,0.9375
1631192864250,0.171875,-0.25,0.9375
1631192864281,0.171875,-0.25,0.9375
1631192864312,0.171875,-0.25,0.9375
1631192864343,0.171875,-0.25,0.9375
1631192864375,0.1875,-0.25,0.9375
1631192864406,0.1875,-0.25,0.9375
1631192864437,0.171875,-0.25,0.9375
1631192864468,0.171875,-0.265625,0.9375
1631192864500,0.171875,-0.25,0.921875
1631192864531,0.15625,-0.25,0.9375
1631192864562,0.171875,-0.25,0.9375
1631192864593,0.171875,-0.25,0.9375
1631192864625,0.171875,-0.25,0.9375
1631192864656,0.171875,-0.25,0.9375
1631192864687,0.171875,-0.25,0.9375
1631192864718,0.171875,-0.25,0.9375
1631192864750,0.171875,-0.25,0.9375
1631192864781,0.171875,-0.25,0.9375
1631192864812,0.171875,-0.25,0.9375
1631192864843,0.171875,-0.25,0.9375
1631192864875,0.171875,-0.25,0.9375
1631192864906,0.171875,-0.25,0.9375
1631192864937,0.171875,-0.25,0.9375
1631192864968,0.171875,-0.25,0.9375
1631192865000,0.171875,-0.25,0.9375
1631192865031,0.171875,-0.265625,0.9375
1631192865062,0.171875,-0.25,0.9375
1631192865093,0.171875,-0.25,0.9375
1631192865125,0.171875,-0.25,0.9375
1631192865156,0.171875,-0.25,0.921875
1631192865187,0.171875,-0.25,0.9375
1631192865218,0.171875,-0.25,0.9375
1631192865250,0.171875,-0.25,0.9375
1631192865281,0.171875,-0.25,0.9375
1631192865312,0.171875,-0.25,0.9375
1631192865343,0.171875,-0.25,0.9375
1631192865375,0.171875,-0.25,0.9375
1631192865406,0.171875,-0.25,0.9375
1631192865437,0.171875,-0.25,0.9375
1631192865468,0.171875,-0.25,0.9375
1631192865500,0.171875,-0.25,0.9375
1631192865531,0.171875,-0.25,0.9375
1631192865562,0.171875,-0.25,0.9375
1631192865593,0.171875,-0.265625,0.9375
1631192865625,0.171875,-0.265625,0.921875
1631192865656,0.171875,-0.25,0.9375
1631192865687,0.171875,-0.25,0.9375
1631192865718,0.171875,-0.265625,0.9375
1631192865750,0.171875,-0.25,0.9375
1631192865781,0.171875,-0.25,0.9375
1631192865812,0.171875,-0.25,0.9375
1631192865843,0.171875,-0.25,0.9375
1631192865875,0.171875,-0.25,0.9375
1631192865906,0.171875,-0.25,0.9375
1631192865937,0.171875,-0.265625,0.9375
1631192865968,0.171875,-0.25,0.921875
1631192866000,0.171875,-0.25,0.9375
1631192866031,0.15625,-0.25,0.9375
1631192866062,0.15625,-0.25,0.9375
1631192866093,0.171875,-0.25,0.921875
1631192866125,0.171875,-0.265625,0.9375
1631192866156,0.1875,-0.265625,0.953125
1631192866187,0.171875,-0.25,0.9375
1631192866218,0.171875,-0.25,0.953125
1631192866250,0.171875,-0.25,0.9375
1631192866281,0.171875,-0.25,0.9375
1631192866312,0.1875,-0.25,0.9375
1631192866343,0.203125,-0.265625,0.921875
1631192866375,0.1875,-0.25,0.9375
1631192866406,0.1875,-0.234375,0.921875
1631192866437,0.1875,-0.25,0.9375
1631192866468,0.1875,-0.234375,0.9375
1631192866500,0.171875,-0.25,0.9375
1631192866531,0.125,-0.265625,0.953125
1631192866562,0.140625,-0.25,0.953125
1631192866593,0.171875,-0.25,0.921875
1631192866625,0.171875,-0.25,0.9375
1631192866656,0.15625,-0.25,0.9375
1631192866687,0.171875,-0.25,0.9375
1631192866718,0.15625,-0.25,0.9375
1631192866750,0.171875,-0.25,0.9375
1631192866781,0.171875,-0.25,0.9375
1631192866812,0.171875,-0.25,0.9375
1631192866843,0.171875,-0.25,0.9375
1631192866875,0.171875,-0.25,0.9375
1631192866906,0.15625,-0.25,0.9375
1631192866937,0.171875,-0.25,0.9375
1631192866968,0.15625,-0.25,0.9375
1631192867000,0.15625,-0.25,0.9375
1631192867031,0.15625,-0.25,0.9375
1631192867062,0.171875,-0.25,0.9375
1631192867093,0.15625,-0.25,0.9375
1631192867125,0.15625,-0.25,0.9375
1631192867156,0.15625,-0.25,0.9375
1631192867187,0.171875,-0.25,0.9375
1631192867218,0.15625,-0.25,0.9375
1631192867250,0.15625,-0.25,0.9375
1631192867281,0.171875,-0.25,0.9375
1631192867312,0.15625,-0.25,0.9375
1631192867343,0.15625,-0.25,0.9375
1631192867375,0.171875,-0.25,0.9375
1631192867406,0.171875,-0.25,0.9375
1631192867437,0.15625,-0.25,0.9375
1631192867468,0.15625,-0.25,0.9375
1631192867500,0.171875,-0.25,0.9375
1631192867531,0.171875,-0.25,0.9375
1631192867562,0.15625,-0.25,0.9375
1631192867593,0.15625,-0.25,0.9375
1631192867625,0.171875,-0.25,0.9375
1631192867656,0.15625,-0.25,0.9375
1631192867687,0.15625,-0.25,0.9375
1631192867718,0.15625,-0.25,0.9375
1631192867750,0.15625,-0.25,0.9375
1631192867781,0.15625,-0.25,0.9375
1631192867812,0.171875,-0.25,0.9375
1631192867843,0.171875,-0.25,0.9375
1631192867875,0.171875,-0.25,0.9375
1631192867906,0.15625,-0.25,0.9375
1631192867937,0.15625,-0.25,0.9375
1631192867968,0.15625,-0.25,0.9375
1631192868000,0.15625,-0.25,0.9375
1631192868031,0.171875,-0.25,0.9375
1631192868062,0.171875,-0.25,0.9375
1631192868093,0.171875,-0.25,0.9375
1631192868125,0.171875,-0.25,0.9375
1631192868156,0.171875,-0.25,0.9375
1631192868187,0.171875,-0.25,0.9375
1631192868218,0.15625,-0.25,0.9375
1631192868250,0.15625,-0.25,0.9375
1631192868281,0.171875,-0.25,0.9375
1631192868312,0.15625,-0.25,0.9375
1631192868343,0.171875,-0.25,0.9375
1631192868375,0.171875,-0.25,0.9375
1631192868406,0.171875,-0.25,0.9375
1631192868437,0.171875,-0.25,0.9375
1631192868468,0.171875,-0.25,0.9375
1631192868500,0.171875,-0.25,0.9375
1631192868531,0.171875,-0.25,0.9375
1631192868562,0.171875,-0.25,0.9375
1631192868593,0.171875,-0.25,0.9375
1631192868625,0.171875,-0.25,0.9375
1631192868656,0.171875,-0.25,0.9375
1631192868687,0.171875,-0.25,0.9375
1631192868718,0.171875,-0.25,0.9375
1631192868750,0.171875,-0.25,0.9375
1631192868781,0.171875,-0.25,0.9375
1631192868812,0.171875,-0.25,0.9375
1631192868843,0.171875,-0.25,0.9375
1631192868875,0.171875,-0.25,0.9375
1631192868906,0.171875,-0.25,0.9375
1631192868937,0.171875,-0.25,0.9375
1631192868968,0.171875,-0.25,0.9375
1631192869000,0.171875,-0.25,0.9375
1631192869031,0.171875,-0.25,0.9375
1631192869062,0.171875,-0.25,0.9375
1631192869093,0.171875,-0.25,0.9375
1631192869125,0.171875,-0.25,0.9375
1631192869156,0.15625,-0.25,0.9375
1631192869187,0.15625,-0.25,0.9375
1631192869218,0.171875,-0.25,0.9375
1631192869250,0.171875,-0.25,0.9375
1631192869281,0.171875,-0.25,0.9375
1631192869312,0.171875,-0.25,0.9375
1631192869343,0.171875,-0.25,0.9375
1631192869375,0.171875,-0.25,0.9375
1631192869406,0.171875,-0.25,0.9375
1631192869437,0.171875,-0.25,0.9375
1631192869468,0.171875,-0.25,0.9375
1631192869500,0.171875,-0.25,0.9375
1631192869531,0.171875,-0.25,0.9375
1631192869562,0.171875,-0.25,0.9375
1631192869593,0.171875,-0.25,0.9375
1631192869625,0.171875,-0.25,0.9375
1631192869656,0.171875,-0.25,0.9375
1631192869687,0.171875,-0.25,0.9375
1631192869718,0.171875,-0.25,0.9375
1631192869750,0.171875,-0.25,0.9375
1631192869781,0.171875,-0.25,0.9375
1631192869812,0.171875,-0.25,0.9375
1631192869843,0.171875,-0.25,0.9375
1631192869875,0.171875,-0.25,0.9375
1631192869906,0.171875,-0.25,0.9375
1631192869937,0.171875,-0.25,0.9375
1631192869968,0.15625,-0.25,0.9375
1631192870000,0.15625,-0.25,0.9375
1631192870031,0.171875,-0.25,0.9375
1631192870062,0.171875,-0.25,0.9375
1631192870093,0.171875,-0.25,0.9375
1631192870125,0.171875,-0.25,0.9375
1631192870156,0.171875,-0.25,0.9375
1631192870187,0.15625,-0.25,0.9375
1631192870218,0.15625,-0.25,0.9375
1631192870250,0.171875,-0.25,0.9375
1631192870281,0.15625,-0.25,0.9375
1631192870312,0.15625,-0.25,0.9375
1631192870343,0.15625,-0.25,0.9375
1631192870375,0.15625,-0.25,0.9375
1631192870406,0.15625,-0.25,0.9375
1631192870437,0.171875,-0.25,0.9375
1631192870468,0.171875,-0.25,0.9375
1631192870500,0.171875,-0.25,0.9375
1631192870531,0.171875,-0.25,0.9375
1631192870562,0.171875,-0.25,0.9375
1631192870593,0.171875,-0.25,0.9375
1631192870625,0.171875,-0.25,0.9375
1631192870656,0.171875,-0.25,0.9375
1631192870687,0.171875,-0.25,0.9375
1631192870718,0.15625,-0.25,0.9375
1631192870750,0.171875,-0.25,0.9375
1631192870781,0.15625,-0.25,0.9375
1631192870812,0.15625,-0.25,0.9375
1631192870843,0.15625,-0.25,0.9375
1631192870875,0.15625,-0.25,0.9375
1631192870906,0.171875,-0.25,0.9375
1631192870937,0.171875,-0.25,0.9375
1631192870968,0.171875,-0.25,0.9375
1631192871000,0.15625,-0.25,0.9375
1631192871031,0.171875,-0.25,0.9375
1631192871062,0.15625,-0.25,0.9375
1631192871093,0.15625,-0.25,0.9375
1631192871125,0.15625,-0.25,0.9375
1631192871156,0.171875,-0.25,0.9375
1631192871187,0.15625,-0.25,0.9375
1631192871218,0.15625,-0.25,0.9375
1631192871250,0.171875,-0.25,0.9375
1631192871281,0.171875,-0.25,0.9375
1631192871312,0.15625,-0.25,0.9375
1631192871343,0.15625,-0.25,0.9375
1631192871375,0.171875,-0.25,0.9375
1631192871406,0.15625,-0.25,0.9375
1631192871437,0.15625,-0.25,0.9375
1631192871468,0.15625,-0.25,0.9375
1631192871500,0.15625,-0.25,0.9375
1631192871531,0.15625,-0.25,0.9375
1631192871562,0.171875,-0.25,0.9375
1631192871593,0.15625,-0.25,0.9375
1631192871625,0.15625,-0.25,0.9375
1631192871656,0.15625,-0.25,0.9375
1631192871687,0.171875,-0.25,0.9375
1631192871718,0.171875,-0.25,0.9375
1631192871750,0.15625,-0.25,0.9375
1631192871781,0.15625,-0.25,0.9375
1631192871812,0.15625,-0.25,0.9375
1631192871843,0.15625,-0.25,0.9375
1631192871875,0.15625,-0.25,0.9375
1631192871906,0.15625,-0.25,0.9375
1631192871937,0.15625,-0.25,0.9375
1631192871968,0.15625,-0.25,0.9375
1631192872000,0.15625,-0.25,0.9375
1631192872031,0.15625,-0.25,0.9375
1631192872062,0.15625,-0.25,0.9375
1631192872093,0.15625,-0.25,0.9375
1631192872125,0.15625,-0.25,0.9375
1631192872156,0.15625,-0.25,0.9375
1631192872187,0.171875,-0.25,0.9375
1631192872218,0.171875,-0.25,0.9375
1631192872250,0.15625,-0.25,0.9375
1631192872281,0.171875,-0.25,0.9375
1631192872312,0.15625,-0.25,0.9375
1631192872343,0.15625,-0.25,0.9375
1631192872375,0.171875,-0.25,0.9375
1631192872406,0.171875,-0.25,0.9375
1631192872437,0.15625,-0.25,0.9375
1631192872468,0.15625,-0.25,0.9375
1631192872500,0.171875,-0.25,0.9375
1631192872531,0.171875,-0.25,0.9375
1631192872562,0.15625,-0.25,0.9375
1631192872593,0.171875,-0.25,0.9375
1631192872625,0.171875,-0.25,0.9375
1631192872656,0.15625,-0.25,0.9375
1631192872687,0.15625,-0.25,0.9375
1631192872718,0.171875,-0.25,0.9375
1631192872750,0.15625,-0.25,0.9375
1631192872781,0.171875,-0.25,0.9375
1631192872812,0.171875,-0.25,0.9375
1631192872843,0.15625,-0.25,0.9375
1631192872875,0.171875,-0.25,0.9375
1631192872906,0.15625,-0.25,0.9375
1631192872937,0.15625,-0.25,0.9375
1631192872968,0.15625,-0.25,0.9375
1631192873000,0.15625,-0.25,0.9375
1631192873031,0.15625,-0.25,0.9375
1631192873062,0.15625,-0.25,0.9375
1631192873093,0.171875,-0.25,0.9375
1631192873125,0.171875,-0.25,0.9375
1631192873156,0.15625,-0.25,0.9375
1631192873187,0.15625,-0.25,0.9375
1631192873218,0.15625,-0.25,0.9375
1631192873250,0.15625,-0.25,0.9375
1631192873281,0.171875,-0.25,0.9375
1631192873312,0.171875,-0.25,0.9375
1631192873343,0.15625,-0.25,0.9375
1631192873375,0.15625,-0.25,0.9375
1631192873406,0.171875,-0.25,0.9375
1631192873437,0.15625,-0.25,0.9375
1631192873468,0.15625,-0.25,0.9375
1631192873500,0.171875,-0.25,0.9375
1631192873531,0.171875,-0.25,0.9375
1631192873562,0.15625,-0.25,0.9375
1631192873593,0.15625,-0.25,0.9375
1631192873625,0.171875,-0.25,0.9375
1631192873656,0.15625,-0.25,0.9375
1631192873687,0.15625,-0.25,0.9375
1631192873718,0.171875,-0.25,0.9375
1631192873750,0.15625,-0.25,0.9375
1631192873781,0.15625,-0.25,0.9375
1631192873812,0.15625,-0.25,0.9375
1631192873843,0.15625,-0.25,0.9375
1631192873875,0.171875,-0.25,0.9375
1631192873906,0.15625,-0.25,0.9375
1631192873937,0.15625,-0.25,0.9375
1631192873968,0.171875,-0.25,0.9375
1631192874000,0.171875,-0.25,0.9375
1631192874031,0.15625,-0.25,0.9375
1631192874062,0.15625,-0.25,0.9375
1631192874093,0.171875,-0.25,0.9375
1631192874125,0.15625,-0.25,0.9375
1631192874156,0.15625,-0.25,0.9375
1631192874187,0.15625,-0.25,0.9375
1631192874218,0.171875,-0.25,0.9375
1631192874250,0.15625,-0.25,0.9375
1631192874281,0.171875,-0.25,0.9375
1631192874312,0.15625,-0.25,0.9375
1631192874343,0.15625,-0.25,0.9375
1631192874375,0.15625,-0.25,0.9375
1631192874406,0.171875,-0.25,0.9375
1631192874437,0.15625,-0.25,0.9375
1631192874468,0.15625,-0.25,0.9375
1631192874500,0.171875,-0.25,0.9375
1631192874531,0.15625,-0.25,0.9375
1631192874562,0.15625,-0.25,0.9375
1631192874593,0.171875,-0.25,0.9375
1631192874625,0.171875,-0.25,0.9375
1631192874656,0.15625,-0.25,0.9375
1631192874687,0.15625,-0.25,0.9375
1631192874718,0.171875,-0.25,0.9375
1631192874750,0.15625,-0.25,0.9375
1631192874781,0.171875,-0.25,0.9375
1631192874812,0.15625,-0.25,0.9375
1631192874843,0.15625,-0.25,0.9375
1631192874875,0.15625,-0.25,0.9375
1631192874906,0.171875,-0.25,0.9375
1631192874937,0.171875,-0.25,0.9375
1631192874968,0.15625,-0.25,0.9375
1631192875000,0.171875,-0.25,0.9375
1631192875031,0.171875,-0.25,0.9375
1631192875062,0.171875,-0.25,0.9375
1631192875093,0.171875,-0.265625,0.9375
1631192875125,0.15625,-0.25,0.9375
1631192875156,0.171875,-0.25,0.9375
1631192875187,0.171875,-0.25,0.9375
1631192875218,0.15625,-0.25,0.9375
1631192875250,0.15625,-0.25,0.9375
1631192875281,0.15625,-0.25,0.9375
1631192875312,0.140625,-0.25,0.953125
1631192875343,0.171875,-0.234375,0.953125
1631192875375,0.15625,-0.25,0.9375
1631192875406,0.171875,-0.25,0.9375
1631192875437,0.140625,-0.25,0.9375
1631192875468,0.15625,-0.25,0.9375
1631192875500,0.140625,-0.25,0.90625
1631192875531,0.140625,-0.25,0.953125
1631192875562,0.125,-0.234375,0.96875
1631192875593,0.171875,-0.234375,0.96875
1631192875625,0.109375,-0.234375,0.9375
1631192875656,0.15625,-0.234375,0.9375
1631192875687,0.140625,-0.25,0.953125
1631192875718,0.125,-0.234375,0.953125
1631192875750,0.109375,-0.234375,0.9375
1631192875781,0.125,-0.21875,0.953125
1631192875812,0.140625,-0.21875,0.9375
1631192875843,0.140625,-0.234375,0.953125
1631192875875,0.125,-0.234375,0.953125
1631192875906,0.125,-0.234375,0.9375
1631192875937,0.125,-0.21875,0.9375
1631192875968,0.125,-0.21875,0.9375
1631192876000,0.140625,-0.234375,0.9375
1631192876031,0.15625,-0.234375,0.9375
1631192876062,0.15625,-0.234375,0.9375
1631192876093,0.125,-0.234375,0.953125
1631192876125,0.125,-0.234375,0.9375
1631192876156,0.109375,-0.21875,0.9375
1631192876187,0.109375,-0.234375,0.953125
1631192876218,0.140625,-0.234375,0.953125
1631192876250,0.140625,-0.234375,0.9375
1631192876281,0.125,-0.234375,0.953125
1631192876312,0.109375,-0.234375,0.953125
1631192876343,0.109375,-0.234375,0.953125
1631192876375,0.125,-0.234375,0.9375
1631192876406,0.140625,-0.234375,0.9375
1631192876437,0.140625,-0.234375,0.953125
1631192876468,0.140625,-0.234375,0.9375
1631192876500,0.125,-0.234375,0.9375
1631192876531,0.15625,-0.234375,0.9375
1631192876562,0.078125,-0.25,0.96875
1631192876593,0.109375,-0.25,0.9375
1631192876625,0.15625,-0.234375,0.921875
1631192876656,0.171875,-0.25,0.953125
1631192876687,0.140625,-0.25,0.953125
1631192876718,0.125,-0.25,0.9375
1631192876750,0.140625,-0.234375,0.953125
1631192876781,0.15625,-0.25,0.953125
1631192876812,0.15625,-0.25,0.9375
1631192876843,0.140625,-0.234375,0.9375
1631192876875,0.140625,-0.234375,0.9375
1631192876906,0.125,-0.234375,0.9375
1631192876937,0.125,-0.234375,0.9375
1631192876968,0.140625,-0.25,0.953125
1631192877000,0.125,-0.234375,0.9375
1631192877031,0.140625,-0.25,0.953125
1631192877062,0.125,-0.25,0.953125
1631192877093,0.125,-0.234375,0.9375
1631192877125,0.125,-0.234375,0.953125
1631192877156,0.140625,-0.25,0.9375
1631192877187,0.140625,-0.25,0.9375
1631192877218,0.140625,-0.25,0.9375
1631192877250,0.15625,-0.25,0.953125
1631192877281,0.125,-0.25,0.953125
1631192877312,0.140625,-0.25,0.921875
1631192877343,0.15625,-0.25,0.9375
1631192877375,0.15625,-0.25,0.953125
1631192877406,0.125,-0.25,0.953125
1631192877437,0.109375,-0.25,0.9375
1631192877468,0.140625,-0.25,0.953125
1631192877500,0.140625,-0.25,0.953125
1631192877531,0.140625,-0.265625,0.953125
1631192877562,0.15625,-0.25,0.90625
1631192877593,0.140625,-0.25,0.921875
1631192877625,0.125,-0.25,0.9375
1631192877656,0.125,-0.25,0.9375
1631192877687,0.125,-0.25,0.953125
1631192877718,0.125,-0.265625,0.9375
1631192877750,0.140625,-0.265625,0.9375
1631192877781,0.140625,-0.265625,0.953125
1631192877812,0.140625,-0.265625,0.953125
1631192877843,0.140625,-0.28125,0.953125
1631192877875,0.140625,-0.265625,0.9375
1631192877906,0.140625,-0.265625,0.9375
1631192877937,0.125,-0.265625,0.9375
1631192877968,0.140625,-0.25,0.9375
1631192878000,0.140625,-0.25,0.953125
1631192878031,0.125,-0.25,0.9375
1631192878062,0.125,-0.25,0.9375
1631192878093,0.109375,-0.25,0.953125
1631192878125,0.109375,-0.25,0.9375
1631192878156,0.109375,-0.25,0.9375
1631192878187,0.109375,-0.25,0.953125
1631192878218,0.125,-0.25,0.9375
1631192878250,0.140625,-0.25,0.9375
1631192878281,0.125,-0.25,0.953125
1631192878312,0.125,-0.25,0.9375
1631192878343,0.125,-0.265625,0.9375
1631192878375,0.140625,-0.265625,0.9375
1631192878406,0.125,-0.265625,0.921875
1631192878437,0.15625,-0.265625,0.9375
1631192878468,0.15625,-0.25,0.9375
1631192878500,0.15625,-0.265625,0.9375
1631192878531,0.15625,-0.265625,0.9375
1631192878562,0.15625,-0.25,0.953125
1631192878593,0.125,-0.25,0.9375
1631192878625,0.140625,-0.25,0.921875
1631192878656,0.125,-0.25,0.9375
1631192878687,0.125,-0.25,0.953125
1631192878718,0.125,-0.265625,0.953125
1631192878750,0.140625,-0.25,0.9375
1631192878781,0.140625,-0.265625,0.9375
1631192878812,0.140625,-0.25,0.9375
1631192878843,0.140625,-0.265625,0.9375
1631192878875,0.140625,-0.25,0.9375
1631192878906,0.15625,-0.25,0.9375
1631192878937,0.15625,-0.25,0.9375
1631192878968,0.15625,-0.25,0.9375
1631192879000,0.140625,-0.25,0.9375
1631192879031,0.140625,-0.25,0.9375
1631192879062,0.140625,-0.265625,0.921875
1631192879093,0.140625,-0.265625,0.9375
1631192879125,0.125,-0.265625,0.953125
1631192879156,0.125,-0.25,0.9375
1631192879187,0.125,-0.25,0.9375
1631192879218,0.140625,-0.25,0.9375
1631192879250,0.140625,-0.25,0.9375
1631192879281,0.140625,-0.25,0.9375
1631192879312,0.140625,-0.25,0.9375
1631192879343,0.140625,-0.25,0.9375
1631192879375,0.140625,-0.25,0.9375
1631192879406,0.140625,-0.25,0.9375
1631192879437,0.140625,-0.265625,0.9375
1631192879468,0.140625,-0.25,0.9375
1631192879500,0.140625,-0.265625,0.9375
1631192879531,0.140625,-0.265625,0.9375
1631192879562,0.140625,-0.25,0.9375
1631192879593,0.140625,-0.265625,0.9375
1631192879625,0.140625,-0.265625,0.9375
1631192879656,0.140625,-0.265625,0.9375
1631192879687,0.140625,-0.265625,0.9375
1631192879718,0.140625,-0.265625,0.9375
1631192879750,0.140625,-0.25,0.9375
1631192879781,0.140625,-0.265625,0.9375
1631192879812,0.140625,-0.25,0.9375
1631192879843,0.140625,-0.25,0.9375
1631192879875,0.140625,-0.265625,0.9375
1631192879906,0.140625,-0.265625,0.9375
1631192879937,0.140625,-0.265625,0.9375
1631192879968,0.140625,-0.265625,0.9375
1631192880000,0.125,-0.28125,0.9375
1631192880031,0.125,-0.25,0.953125
1631192880062,0.140625,-0.25,0.9375
1631192880093,0.125,-0.265625,0.9375
1631192880125,0.171875,-0.25,0.96875
1631192880156,0.171875,-0.265625,0.96875
1631192880187,0.140625,-0.3125,1.03125
1631192880218,0.109375,-0.296875,1.03125
1631192880250,0.078125,-0.296875,0.984375
1631192880281,0.078125,-0.296875,0.90625
1631192880312,0.171875,-0.296875,0.90625
1631192880343,0.1875,-0.296875,0.90625
1631192880375,0.140625,-0.296875,0.90625
1631192880406,0.21875,-0.203125,0.9375
1631192880437,0.34375,0.078125,1.046875
1631192880468,0.21875,0.15625,0.796875
1631192880500,0.234375,-0.296875,0.796875
1631192880531,0.25,-0.125,0.859375
1631192880562,0.3125,-0.140625,0.859375
1631192880593,0.359375,0.0,0.953125
1631192880625,0.359375,0.03125,0.953125
1631192880656,0.359375,0.125,0.984375
1631192880687,0.34375,0.15625,0.984375
1631192880718,0.296875,0.109375,0.96875
1631192880750,0.359375,-0.09375,0.921875
1631192880781,0.359375,-0.09375,0.921875
1631192880812,0.34375,-0.109375,0.90625
1631192880843,0.328125,-0.109375,0.921875
1631192880875,0.28125,-0.125,0.9375
1631192880906,0.265625,-0.140625,0.9375
1631192880937,0.265625,-0.140625,0.953125
1631192880968,0.25,-0.15625,0.9375
1631192881000,0.234375,-0.171875,0.9375
1631192881031,0.203125,-0.171875,0.953125
1631192881062,0.1875,-0.171875,0.953125
1631192881093,0.21875,-0.171875,0.96875
1631192881125,0.25,-0.171875,0.96875
1631192881156,0.203125,-0.15625,0.953125
1631192881187,0.203125,-0.15625,0.96875
1631192881218,0.171875,-0.140625,0.96875
1631192881250,0.1875,-0.140625,0.953125
1631192881281,0.203125,-0.125,0.9375
1631192881312,0.1875,-0.125,0.9375
1631192881343,0.1875,-0.140625,0.953125
1631192881375,0.171875,-0.140625,0.96875
1631192881406,0.171875,-0.140625,0.96875
1631192881437,0.171875,-0.125,0.953125
1631192881468,0.171875,-0.125,0.953125
1631192881500,0.1875,-0.125,0.953125
1631192881531,0.1875,-0.125,0.953125
1631192881562,0.171875,-0.125,0.953125
1631192881593,0.171875,-0.140625,0.9375
1631192881625,0.1875,-0.15625,0.953125
1631192881656,0.1875,-0.15625,0.953125
1631192881687,0.1875,-0.15625,0.953125
1631192881718,0.203125,-0.15625,0.953125
1631192881750,0.21875,-0.15625,0.96875
1631192881781,0.203125,-0.140625,0.96875
1631192881812,0.1875,-0.15625,0.953125
1631192881843,0.1875,-0.140625,0.953125
1631192881875,0.1875,-0.140625,0.953125
1631192881906,0.1875,-0.140625,0.953125
1631192881937,0.203125,-0.140625,0.953125
1631192881968,0.203125,-0.140625,0.953125
1631192882000,0.203125,-0.140625,0.9375
1631192882031,0.203125,-0.15625,0.953125
1631192882062,0.203125,-0.15625,0.96875
1631192882093,0.21875,-0.140625,0.953125
1631192882125,0.25,-0.125,0.953125
1631192882156,0.234375,-0.109375,0.921875
1631192882187,0.1875,-0.140625,0.9375
1631192882218,0.1875,-0.140625,0.953125
1631192882250,0.203125,-0.140625,0.953125
1631192882281,0.21875,-0.140625,0.953125
1631192882312,0.203125,-0.140625,0.96875
1631192882343,0.1875,-0.140625,0.984375
1631192882375,0.1875,-0.140625,0.96875
1631192882406,0.21875,-0.140625,0.921875
1631192882437,0.21875,-0.140625,0.90625
1631192882468,0.21875,-0.140625,0.953125
1631192882500,0.1875,-0.140625,0.96875
1631192882531,0.171875,-0.140625,0.96875
1631192882562,0.1875,-0.125,0.953125
1631192882593,0.1875,-0.125,0.9375
1631192882625,0.171875,-0.125,0.953125
1631192882656,0.171875,-0.125,0.953125
1631192882687,0.1875,-0.140625,0.953125
1631192882718,0.21875,-0.140625,0.953125
1631192882750,0.203125,-0.140625,0.953125
1631192882781,0.1875,-0.140625,0.953125
1631192882812,0.1875,-0.125,0.953125
1631192882843,0.1875,-0.125,0.953125
1631192882875,0.1875,-0.125,0.953125
1631192882906,0.1875,-0.125,0.953125
1631192882937,0.1875,-0.125,0.953125
1631192882968,0.1875,-0.125,0.953125
1631192883000,0.1875,-0.140625,0.953125
1631192883031,0.1875,-0.140625,0.953125
1631192883062,0.1875,-0.140625,0.953125
1631192883093,0.1875,-0.140625,0.953125
1631192883125,0.203125,-0.140625,0.953125
1631192883156,0.203125,-0.140625,0.953125
1631192883187,0.203125,-0.140625,0.953125
1631192883218,0.203125,-0.140625,0.953125
1631192883250,0.203125,-0.140625,0.953125
1631192883281,0.203125,-0.125,0.953125
1631192883312,0.203125,-0.140625,0.953125
1631192883343,0.1875,-0.140625,0.953125
1631192883375,0.203125,-0.140625,0.953125
1631192883406,0.1875,-0.140625,0.953125
1631192883437,0.1875,-0.140625,0.953125
1631192883468,0.203125,-0.140625,0.953125
1631192883500,0.203125,-0.140625,0.953125
1631192883531,0.1875,-0.140625,0.953125
1631192883562,0.1875,-0.140625,0.953125
1631192883593,0.203125,-0.140625,0.953125
1631192883625,0.203125,-0.140625,0.953125
1631192883656,0.203125,-0.140625,0.953125
1631192883687,0.203125,-0.140625,0.9375
1631192883718,0.203125,-0.140625,0.953125
1631192883750,0.1875,-0.140625,0.953125
1631192883781,0.203125,-0.140625,0.953125
1631192883812,0.203125,-0.140625,0.953125
1631192883843,0.203125,-0.140625,0.953125
1631192883875,0.203125,-0.140625,0.953125
1631192883906,0.203125,-0.140625,0.953125
1631192883937,0.203125,-0.140625,0.953125
1631192883968,0.203125,-0.140625,0.953125
1631192884000,0.203125,-0.140625,0.953125
1631192884031,0.1875,-0.140625,0.953125
1631192884062,0.1875,-0.140625,0.953125
1631192884093,0.1875,-0.140625,0.953125
1631192884125,0.1875,-0.140625,0.953125
1631192884156,0.1875,-0.140625,0.953125
1631192884187,0.203125,-0.140625,0.953125
1631192884218,0.1875,-0.140625,0.953125
1631192884250,0.1875,-0.140625,0.953125
1631192884281,0.203125,-0.140625,0.953125
1631192884312,0.1875,-0.140625,0.953125
1631192884343,0.1875,-0.140625,0.953125
1631192884375,0.1875,-0.140625,0.953125
1631192884406,0.1875,-0.140625,0.96875
1631192884437,0.1875,-0.140625,0.953125
1631192884468,0.1875,-0.140625,0.953125
1631192884500,0.1875,-0.140625,0.953125
1631192884531,0.1875,-0.140625,0.953125
1631192884562,0.1875,-0.140625,0.953125
1631192884593,0.1875,-0.140625,0.953125
1631192884625,0.1875,-0.140625,0.953125
1631192884656,0.1875,-0.140625,0.953125
1631192884687,0.1875,-0.140625,0.953125
1631192884718,0.1875,-0.140625,0.953125
1631192884750,0.1875,-0.140625,0.953125
1631192884781,0.1875,-0.140625,0.953125
1631192884812,0.1875,-0.140625,0.953125
1631192884843,0.1875,-0.140625,0.953125
1631192884875,0.1875,-0.140625,0.953125
1631192884906,0.1875,-0.140625,0.953125
1631192884937,0.1875,-0.140625,0.953125
1631192884968,0.1875,-0.140625,0.953125
1631192885000,0.1875,-0.140625,0.953125
1631192885031,0.1875,-0.140625,0.953125
1631192885062,0.1875,-0.140625,0.953125
1631192885093,0.1875,-0.140625,0.953125
1631192885125,0.1875,-0.140625,0.953125
1631192885156,0.1875,-0.140625,0.953125
1631192885187,0.1875,-0.140625,0.953125
1631192885218,0.1875,-0.140625,0.953125
1631192885250,0.1875,-0.140625,0.953125
1631192885281,0.1875,-0.140625,0.953125
1631192885312,0.1875,-0.140625,0.953125
1631192885343,0.1875,-0.140625,0.953125
1631192885375,0.1875,-0.140625,0.953125
1631192885406,0.1875,-0.140625,0.953125
1631192885437,0.1875,-0.140625,0.953125
1631192885468,0.1875,-0.140625,0.953125
1631192885500,0.1875,-0.140625,0.953125
1631192885531,0.1875,-0.140625,0.953125
1631192885562,0.1875,-0.125,0.96875
1631192885593,0.1875,-0.140625,0.953125
1631192885625,0.1875,-0.140625,0.953125
1631192885656,0.1875,-0.140625,0.953125
1631192885687,0.1875,-0.140625,0.953125
1631192885718,0.1875,-0.140625,0.953125
1631192885750,0.1875,-0.140625,0.953125
1631192885781,0.1875,-0.140625,0.953125
1631192885812,0.1875,-0.140625,0.953125
1631192885843,0.1875,-0.140625,0.953125
1631192885875,0.1875,-0.140625,0.96875
1631192885906,0.1875,-0.140625,0.953125
1631192885937,0.1875,-0.140625,0.953125
1631192885968,0.1875,-0.140625,0.953125
1631192886000,0.1875,-0.140625,0.953125
1631192886031,0.1875,-0.140625,0.953125
1631192886062,0.1875,-0.140625,0.953125
1631192886093,0.1875,-0.140625,0.953125
1631192886125,0.1875,-0.140625,0.953125
1631192886156,0.1875,-0.140625,0.953125
1631192886187,0.1875,-0.140625,0.953125
1631192886218,0.1875,-0.140625,0.953125
1631192886250,0.1875,-0.140625,0.953125
1631192886281,0.1875,-0.140625,0.953125
1631192886312,0.1875,-0.140625,0.953125
1631192886343,0.1875,-0.140625,0.953125
1631192886375,0.1875,-0.140625,0.953125
1631192886406,0.1875,-0.140625,0.953125
1631192886437,0.1875,-0.140625,0.953125
1631192886468,0.1875,-0.140625,0.953125
1631192886500,0.1875,-0.140625,0.96875
1631192886531,0.1875,-0.140625,0.953125
1631192886562,0.1875,-0.140625,0.953125
1631192886593,0.1875,-0.140625,0.953125
1631192886625,0.1875,-0.140625,0.953125
1631192886656,0.1875,-0.140625,0.953125
1631192886687,0.1875,-0.125,0.953125
1631192886718,0.1875,-0.140625,0.953125
1631192886750,0.1875,-0.140625,0.953125
1631192886781,0.1875,-0.140625,0.953125
1631192886812,0.1875,-0.140625,0.953125
1631192886843,0.1875,-0.140625,0.953125
1631192886875,0.1875,-0.140625,0.953125
1631192886906,0.1875,-0.140625,0.953125
1631192886937,0.1875,-0.140625,0.953125
1631192886968,0.1875,-0.125,0.953125
1631192887000,0.1875,-0.140625,0.953125
1631192887031,0.1875,-0.140625,0.953125
1631192887062,0.1875,-0.140625,0.953125
1631192887093,0.1875,-0.140625,0.953125
1631192887125,0.1875,-0.140625,0.953125
1631192887156,0.1875,-0.140625,0.953125
1631192887187,0.1875,-0.140625,0.953125
1631192887218,0.1875,-0.140625,0.953125
1631192887250,0.1875,-0.140625,0.953125
1631192887281,0.1875,-0.140625,0.953125
1631192887312,0.1875,-0.140625,0.953125
1631192887343,0.1875,-0.140625,0.953125
1631192887375,0.1875,-0.140625,0.953125
1631192887406,0.1875,-0.140625,0.953125
1631192887437,0.1875,-0.140625,0.953125
1631192887468,0.1875,-0.140625,0.953125
1631192887500,0.1875,-0.140625,0.96875
1631192887531,0.1875,-0.140625,0.953125
1631192887562,0.1875,-0.140625,0.953125
1631192887593,0.1875,-0.140625,0.953125
1631192887625,0.1875,-0.140625,0.953125
1631192887656,0.1875,-0.140625,0.953125
1631192887687,0.1875,-0.140625,0.953125
1631192887718,0.1875,-0.140625,0.953125
1631192887750,0.1875,-0.140625,0.953125
1631192887781,0.1875,-0.140625,0.953125
1631192887812,0.1875,-0.125,0.953125
1631192887843,0.1875,-0.140625,0.953125
1631192887875,0.1875,-0.140625,0.953125
1631192887906,0.1875,-0.140625,0.953125
1631192887937,0.1875,-0.140625,0.953125
1631192887968,0.1875,-0.125,0.953125
1631192888000,0.1875,-0.140625,0.953125
1631192888031,0.1875,-0.140625,0.953125
1631192888062,0.1875,-0.140625,0.953125
1631192888093,0.1875,-0.125,0.953125
1631192888125,0.1875,-0.140625,0.953125
1631192888156,0.1875,-0.140625,0.953125
1631192888187,0.1875,-0.140625,0.953125
1631192888218,0.1875,-0.140625,0.953125
1631192888250,0.1875,-0.140625,0.953125
1631192888281,0.1875,-0.140625,0.953125
1631192888312,0.1875,-0.140625,0.953125
1631192888343,0.1875,-0.140625,0.953125
1631192888375,0.1875,-0.140625,0.953125
1631192888406,0.1875,-0.140625,0.953125
1631192888437,0.1875,-0.140625,0.953125
1631192888468,0.1875,-0.140625,0.953125
1631192888500,0.1875,-0.140625,0.953125
1631192888531,0.1875,-0.140625,0.953125
1631192888562,0.1875,-0.140625,0.953125
1631192888593,0.1875,-0.140625,0.953125
1631192888625,0.1875,-0.140625,0.953125
1631192888656,0.1875,-0.140625,0.953125
1631192888687,0.1875,-0.140625,0.953125
1631192888718,0.1875,-0.140625,0.953125
1631192888750,0.1875,-0.140625,0.953125
1631192888781,0.1875,-0.140625,0.953125
1631192888812,0.1875,-0.140625,0.953125
1631192888843,0.203125,-0.140625,0.953125
1631192888875,0.1875,-0.140625,0.953125
1631192888906,0.1875,-0.140625,0.953125
1631192888937,0.1875,-0.140625,0.953125
1631192888968,0.1875,-0.140625,0.953125
1631192889000,0.1875,-0.140625,0.953125
1631192889031,0.1875,-0.140625,0.953125
1631192889062,0.1875,-0.140625,0.953125
1631192889093,0.1875,-0.140625,0.953125
1631192889125,0.1875,-0.140625,0.953125
1631192889156,0.1875,-0.140625,0.953125
1631192889187,0.1875,-0.140625,0.953125
1631192889218,0.1875,-0.140625,0.953125
1631192889250,0.1875,-0.140625,0.953125
1631192889281,0.1875,-0.140625,0.953125
1631192889312,0.1875,-0.140625,0.953125
1631192889343,0.1875,-0.140625,0.953125
1631192889375,0.1875,-0.140625,0.953125
1631192889406,0.1875,-0.140625,0.953125
1631192889437,0.1875,-0.140625,0.953125
1631192889468,0.1875,-0.140625,0.953125
1631192889500,0.1875,-0.140625,0.953125
1631192889531,0.1875,-0.140625,0.953125
1631192889562,0.1875,-0.140625,0.953125
1631192889593,0.1875,-0.140625,0.953125
1631192889625,0.1875,-0.140625,0.953125
1631192889656,0.1875,-0.140625,0.953125
1631192889687,0.1875,-0.140625,0.953125
1631192889718,0.1875,-0.140625,0.953125
1631192889750,0.1875,-0.140625,0.953125
1631192889781,0.1875,-0.140625,0.953125
1631192889812,0.1875,-0.140625,0.953125
1631192889843,0.1875,-0.140625,0.96875
1631192889875,0.1875,-0.140625,0.953125
1631192889906,0.1875,-0.140625,0.953125
1631192889937,0.1875,-0.140625,0.953125
1631192889968,0.1875,-0.140625,0.953125
1631192890000,0.1875,-0.140625,0.953125
1631192890031,0.1875,-0.140625,0.953125
1631192890062,0.1875,-0.140625,0.953125
1631192890093,0.1875,-0.140625,0.953125
1631192890125,0.1875,-0.140625,0.953125
1631192890156,0.1875,-0.140625,0.953125
1631192890187,0.1875,-0.140625,0.953125
1631192890218,0.1875,-0.140625,0.953125
1631192890250,0.1875,-0.140625,0.953125
1631192890281,0.1875,-0.140625,0.953125
1631192890312,0.1875,-0.140625,0.953125
1631192890343,0.1875,-0.140625,0.953125
1631192890375,0.1875,-0.140625,0.953125
1631192890406,0.1875,-0.140625,0.953125
1631192890437,0.1875,-0.140625,0.953125
1631192890468,0.1875,-0.140625,0.953125
1631192890500,0.1875,-0.140625,0.953125
1631192890531,0.1875,-0.140625,0.953125
1631192890562,0.1875,-0.140625,0.953125
1631192890593,0.1875,-0.140625,0.953125
1631192890625,0.1875,-0.140625,0.953125
1631192890656,0.1875,-0.140625,0.953125
1631192890687,0.1875,-0.140625,0.953125
1631192890718,0.1875,-0.140625,0.953125
1631192890750,0.1875,-0.140625,0.953125
1631192890781,0.1875,-0.140625,0.953125
1631192890812,0.1875,-0.140625,0.953125
1631192890843,0.1875,-0.140625,0.953125
1631192890875,0.1875,-0.140625,0.953125
1631192890906,0.1875,-0.140625,0.953125
1631192890937,0.1875,-0.140625,0.953125
1631192890968,0.1875,-0.125,0.953125
1631192891000,0.1875,-0.140625,0.953125
1631192891031,0.1875,-0.140625,0.953125
1631192891062,0.1875,-0.140625,0.953125
1631192891093,0.1875,-0.140625,0.953125
1631192891125,0.1875,-0.140625,0.953125
1631192891156,0.1875,-0.140625,0.953125
1631192891187,0.1875,-0.140625,0.953125
1631192891218,0.1875,-0.140625,0.953125
1631192891250,0.1875,-0.140625,0.953125
1631192891281,0.1875,-0.140625,0.953125
1631192891312,0.1875,-0.125,0.953125
1631192891343,0.1875,-0.140625,0.953125
1631192891375,0.1875,-0.140625,0.953125
1631192891406,0.1875,-0.140625,0.953125
1631192891437,0.1875,-0.140625,0.953125
1631192891468,0.1875,-0.140625,0.953125
1631192891500,0.1875,-0.140625,0.953125
1631192891531,0.1875,-0.140625,0.953125
1631192891562,0.1875,-0.140625,0.953125
1631192891593,0.1875,-0.140625,0.953125
1631192891625,0.1875,-0.125,0.953125
1631192891656,0.1875,-0.140625,0.953125
1631192891687,0.1875,-0.140625,0.953125
1631192891718,0.1875,-0.140625,0.953125
1631192891750,0.1875,-0.140625,0.953125
1631192891781,0.1875,-0.140625,0.953125
1631192891812,0.1875,-0.140625,0.953125
1631192891843,0.1875,-0.140625,0.953125
1631192891875,0.1875,-0.140625,0.953125
1631192891906,0.1875,-0.140625,0.953125
1631192891937,0.1875,-0.140625,0.953125
1631192891968,0.1875,-0.140625,0.953125
1631192892000,0.1875,-0.140625,0.953125
1631192892031,0.1875,-0.140625,0.953125
1631192892062,0.1875,-0.140625,0.953125
1631192892093,0.1875,-0.140625,0.953125
1631192892125,0.1875,-0.140625,0.953125
1631192892156,0.1875,-0.140625,0.953125
1631192892187,0.1875,-0.140625,0.953125
1631192892218,0.1875,-0.140625,0.953125
1631192892250,0.1875,-0.140625,0.953125
1631192892281,0.1875,-0.140625,0.953125
1631192892312,0.1875,-0.140625,0.953125
1631192892343,0.1875,-0.140625,0.953125
1631192892375,0.1875,-0.140625,0.953125
1631192892406,0.1875,-0.125,0.953125
1631192892437,0.1875,-0.140625,0.953125
1631192892468,0.1875,-0.140625,0.953125
1631192892500,0.1875,-0.125,0.953125
1631192892531,0.1875,-0.140625,0.953125
1631192892562,0.1875,-0.140625,0.953125
1631192892593,0.1875,-0.140625,0.953125
1631192892625,0.1875,-0.140625,0.953125
1631192892656,0.1875,-0.140625,0.953125
1631192892687,0.1875,-0.140625,0.953125
1631192892718,0.1875,-0.140625,0.953125
1631192892750,0.1875,-0.140625,0.953125
1631192892781,0.1875,-0.140625,0.953125
1631192892812,0.1875,-0.140625,0.953125
1631192892843,0.1875,-0.125,0.953125
1631192892875,0.1875,-0.140625,0.953125
1631192892906,0.1875,-0.140625,0.96875
1631192892937,0.1875,-0.140625,0.953125
1631192892968,0.1875,-0.140625,0.953125
1631192893000,0.1875,-0.140625,0.953125
1631192893031,0.1875,-0.125,0.953125
1631192893062,0.1875,-0.140625,0.953125
1631192893093,0.1875,-0.140625,0.953125
1631192893125,0.1875,-0.140625,0.953125
1631192893156,0.1875,-0.140625,0.953125
1631192893187,0.1875,-0.125,0.953125
1631192893218,0.1875,-0.140625,0.953125
1631192893250,0.1875,-0.140625,0.953125
1631192893281,0.1875,-0.140625,0.953125
1631192893312,0.1875,-0.140625,0.953125
1631192893343,0.1875,-0.140625,0.953125
1631192893375,0.1875,-0.125,0.953125
1631192893406,0.1875,-0.140625,0.953125
1631192893437,0.1875,-0.140625,0.953125
1631192893468,0.1875,-0.140625,0.953125
1631192893500,0.1875,-0.140625,0.953125
1631192893531,0.1875,-0.140625,0.953125
1631192893562,0.1875,-0.140625,0.953125
1631192893593,0.1875,-0.140625,0.953125
1631192893625,0.1875,-0.140625,0.953125
1631192893656,0.1875,-0.140625,0.953125
1631192893687,0.1875,-0.140625,0.953125
1631192893718,0.1875,-0.140625,0.953125
1631192893750,0.1875,-0.140625,0.953125
1631192893781,0.1875,-0.140625,0.953125
1631192893812,0.1875,-0.140625,0.953125
1631192893843,0.1875,-0.140625,0.953125
1631192893875,0.1875,-0.140625,0.953125
1631192893906,0.1875,-0.140625,0.953125
1631192893937,0.1875,-0.140625,0.953125
1631192893968,0.1875,-0.140625,0.953125
1631192894000,0.171875,-0.140625,0.953125
1631192894031,0.1875,-0.140625,0.953125
1631192894062,0.1875,-0.140625,0.953125
1631192894093,0.1875,-0.140625,0.953125
1631192894125,0.1875,-0.140625,0.953125
1631192894156,0.1875,-0.140625,0.953125
1631192894187,0.1875,-0.140625,0.953125
1631192894218,0.1875,-0.140625,0.953125
1631192894250,0.1875,-0.125,0.953125
1631192894281,0.1875,-0.140625,0.953125
1631192894312,0.171875,-0.140625,0.953125
1631192894343,0.1875,-0.140625,0.953125
1631192894375,0.1875,-0.140625,0.953125
1631192894406,0.1875,-0.140625,0.953125
1631192894437,0.1875,-0.140625,0.953125
1631192894468,0.1875,-0.140625,0.953125
1631192894500,0.1875,-0.140625,0.953125
1631192894531,0.1875,-0.140625,0.953125
1631192894562,0.1875,-0.140625,0.953125
1631192894593,0.1875,-0.140625,0.953125
1631192894625,0.171875,-0.125,0.953125
1631192894656,0.1875,-0.125,0.953125
1631192894687,0.1875,-0.125,0.953125
1631192894718,0.171875,-0.140625,0.953125
1631192894750,0.1875,-0.140625,0.953125
1631192894781,0.1875,-0.140625,0.953125
1631192894812,0.1875,-0.140625,0.953125
1631192894843,0.171875,-0.140625,0.953125
1631192894875,0.1875,-0.140625,0.953125
1631192894906,0.1875,-0.140625,0.953125
1631192894937,0.171875,-0.140625,0.953125
1631192894968,0.1875,-0.140625,0.953125
1631192895000,0.1875,-0.140625,0.953125
1631192895031,0.171875,-0.125,0.953125
1631192895062,0.1875,-0.140625,0.953125
1631192895093,0.1875,-0.140625,0.953125
1631192895125,0.1875,-0.125,0.96875
1631192895156,0.171875,-0.140625,0.953125
1631192895187,0.1875,-0.140625,0.953125
1631192895218,0.1875,-0.140625,0.953125
1631192895250,0.1875,-0.140625,0.953125
1631192895281,0.1875,-0.125,0.953125
1631192895312,0.171875,-0.140625,0.953125
1631192895343,0.1875,-0.140625,0.96875
1631192895375,0.1875,-0.140625,0.953125
1631192895406,0.15625,-0.140625,0.9375
1631192895437,0.1875,-0.125,0.953125
1631192895468,0.171875,-0.140625,0.953125
1631192895500,0.171875,-0.125,0.953125
1631192895531,0.1875,-0.140625,0.953125
1631192895562,0.171875,-0.140625,0.953125
1631192895593,0.1875,-0.140625,0.953125
1631192895625,0.1875,-0.140625,0.953125
1631192895656,0.171875,-0.140625,0.953125
1631192895687,0.1875,-0.140625,0.953125
1631192895718,0.1875,-0.140625,0.953125
1631192895750,0.1875,-0.140625,0.953125
1631192895781,0.171875,-0.140625,0.953125
1631192895812,0.171875,-0.140625,0.953125
1631192895843,0.1875,-0.140625,0.953125
1631192895875,0.1875,-0.140625,0.953125
1631192895906,0.171875,-0.140625,0.953125
1631192895937,0.1875,-0.125,0.953125
1631192895968,0.171875,-0.140625,0.953125
1631192896000,0.203125,-0.140625,0.9375
1631192896031,0.203125,-0.140625,0.953125
1631192896062,0.1875,-0.140625,0.9375
1631192896093,0.171875,-0.140625,0.953125
1631192896125,0.171875,-0.140625,0.984375
1631192896156,0.171875,-0.125,0.96875
1631192896187,0.15625,-0.109375,0.96875
1631192896218,0.1875,-0.09375,0.953125
1631192896250,0.234375,-0.109375,0.953125
1631192896281,0.1875,-0.125,0.953125
1631192896312,0.15625,-0.140625,0.953125
1631192896343,0.1875,-0.125,0.96875
1631192896375,0.1875,-0.109375,0.984375
1631192896406,0.234375,-0.109375,0.96875
1631192896437,0.203125,-0.109375,0.9375
1631192896468,0.203125,-0.109375,0.953125
1631192896500,0.1875,-0.109375,0.953125
1631192896531,0.203125,-0.109375,0.96875
1631192896562,0.1875,-0.109375,0.953125
1631192896593,0.203125,-0.109375,0.953125
1631192896625,0.1875,-0.109375,0.953125
1631192896656,0.203125,-0.109375,0.953125
1631192896687,0.203125,-0.109375,0.953125
1631192896718,0.203125,-0.109375,0.9375
1631192896750,0.203125,-0.109375,0.953125
1631192896781,0.203125,-0.109375,0.9375
1631192896812,0.171875,-0.109375,0.984375
1631192896843,0.15625,-0.09375,0.953125
1631192896875,0.21875,-0.109375,0.953125
1631192896906,0.21875,-0.109375,0.96875
1631192896937,0.21875,-0.09375,0.9375
1631192896968,0.265625,-0.09375,0.921875
1631192897000,0.296875,-0.09375,0.953125
1631192897031,0.25,-0.078125,0.96875
1631192897062,0.21875,-0.078125,0.953125
1631192897093,0.3125,-0.078125,0.921875
1631192897125,0.296875,-0.09375,0.953125
1631192897156,0.265625,-0.09375,0.953125
1631192897187,0.28125,-0.078125,0.9375
1631192897218,0.28125,-0.0625,0.921875
1631192897250,0.296875,-0.078125,0.953125
1631192897281,0.25,-0.0625,0.9375
1631192897312,0.28125,-0.09375,0.953125
1631192897343,0.28125,-0.09375,0.9375
1631192897375,0.28125,-0.078125,0.9375
1631192897406,0.28125,-0.078125,0.9375
1631192897437,0.28125,-0.078125,0.9375
1631192897468,0.265625,-0.078125,0.953125
1631192897500,0.265625,-0.078125,0.9375
1631192897531,0.296875,-0.078125,0.9375
1631192897562,0.28125,-0.078125,0.953125
1631192897593,0.265625,-0.078125,0.9375
1631192897625,0.28125,-0.078125,0.9375
1631192897656,0.28125,-0.09375,0.9375
1631192897687,0.265625,-0.078125,0.9375
1631192897718,0.28125,-0.078125,0.9375
1631192897750,0.28125,-0.078125,0.9375
1631192897781,0.28125,-0.078125,0.9375
1631192897812,0.28125,-0.078125,0.9375
1631192897843,0.28125,-0.078125,0.9375
1631192897875,0.28125,-0.09375,0.9375
1631192897906,0.28125,-0.09375,0.953125
1631192897937,0.28125,-0.09375,0.9375
1631192897968,0.28125,-0.078125,0.9375
1631192898000,0.265625,-0.09375,0.953125
1631192898031,0.265625,-0.078125,0.9375
1631192898062,0.28125,-0.078125,0.9375
1631192898093,0.265625,-0.078125,0.953125
1631192898125,0.265625,-0.09375,0.9375
1631192898156,0.28125,-0.078125,0.9375
1631192898187,0.28125,-0.078125,0.9375
1631192898218,0.265625,-0.09375,0.953125
1631192898250,0.28125,-0.09375,0.9375
1631192898281,0.28125,-0.078125,0.9375
1631192898312,0.265625,-0.078125,0.9375
1631192898343,0.265625,-0.09375,0.953125
1631192898375,0.28125,-0.078125,0.9375
1631192898406,0.265625,-0.078125,0.9375
1631192898437,0.265625,-0.078125,0.9375
1631192898468,0.28125,-0.078125,0.9375
1631192898500,0.28125,-0.078125,0.9375
1631192898531,0.28125,-0.078125,0.953125
1631192898562,0.28125,-0.078125,0.9375
1631192898593,0.28125,-0.078125,0.9375
1631192898625,0.28125,-0.078125,0.9375
1631192898656,0.265625,-0.078125,0.9375
1631192898687,0.265625,-0.078125,0.9375
1631192898718,0.28125,-0.09375,0.9375
1631192898750,0.28125,-0.09375,0.9375
1631192898781,0.265625,-0.078125,0.9375
1631192898812,0.28125,-0.078125,0.9375
1631192898843,0.28125,-0.078125,0.9375
1631192898875,0.28125,-0.09375,0.9375
1631192898906,0.265625,-0.078125,0.9375
1631192898937,0.28125,-0.078125,0.9375
1631192898968,0.28125,-0.078125,0.9375
1631192899000,0.28125,-0.078125,0.9375
1631192899031,0.28125,-0.078125,0.9375
1631192899062,0.28125,-0.078125,0.9375
1631192899093,0.265625,-0.09375,0.9375
1631192899125,0.28125,-0.078125,0.9375
1631192899156,0.28125,-0.078125,0.9375
1631192899187,0.28125,-0.09375,0.9375
1631192899218,0.265625,-0.09375,0.953125
1631192899250,0.28125,-0.078125,0.9375
1631192899281,0.265625,-0.078125,0.953125
1631192899312,0.28125,-0.078125,0.953125
1631192899343,0.28125,-0.09375,0.9375
1631192899375,0.28125,-0.078125,0.9375
1631192899406,0.28125,-0.09375,0.953125
1631192899437,0.28125,-0.09375,0.9375
1631192899468,0.28125,-0.078125,0.9375
1631192899500,0.28125,-0.09375,0.953125
1631192899531,0.28125,-0.09375,0.9375
1631192899562,0.28125,-0.078125,0.9375
1631192899593,0.28125,-0.09375,0.9375
1631192899625,0.28125,-0.078125,0.9375
1631192899656,0.28125,-0.09375,0.9375
1631192899687,0.28125,-0.078125,0.9375
1631192899718,0.28125,-0.078125,0.9375
1631192899750,0.28125,-0.078125,0.9375
1631192899781,0.28125,-0.078125,0.9375
1631192899812,0.28125,-0.09375,0.9375
1631192899843,0.265625,-0.078125,0.9375
1631192899875,0.28125,-0.09375,0.9375
1631192899906,0.28125,-0.078125,0.9375
1631192899937,0.28125,-0.078125,0.9375
1631192899968,0.265625,-0.078125,0.9375
1631192900000,0.265625,-0.078125,0.9375
1631192900031,0.28125,-0.078125,0.9375
1631192900062,0.28125,-0.078125,0.9375
1631192900093,0.28125,-0.078125,0.9375
1631192900125,0.28125,-0.09375,0.9375
1631192900156,0.28125,-0.078125,0.9375
1631192900187,0.28125,-0.078125,0.9375
1631192900218,0.265625,-0.078125,0.9375
1631192900250,0.28125,-0.078125,0.9375
1631192900281,0.28125,-0.078125,0.9375
1631192900312,0.265625,-0.09375,0.9375
1631192900343,0.28125,-0.09375,0.9375
1631192900375,0.28125,-0.078125,0.9375
1631192900406,0.28125,-0.078125,0.9375
1631192900437,0.28125,-0.09375,0.9375
1631192900468,0.28125,-0.09375,0.9375
1631192900500,0.265625,-0.09375,0.9375
1631192900531,0.28125,-0.078125,0.9375
1631192900562,0.265625,-0.09375,0.9375
1631192900593,0.28125,-0.09375,0.9375
1631192900625,0.265625,-0.078125,0.9375
1631192900656,0.265625,-0.09375,0.9375
1631192900687,0.28125,-0.09375,0.9375
1631192900718,0.28125,-0.078125,0.9375
1631192900750,0.265625,-0.09375,0.9375
1631192900781,0.28125,-0.078125,0.9375
1631192900812,0.28125,-0.078125,0.9375
1631192900843,0.265625,-0.09375,0.9375
1631192900875,0.28125,-0.078125,0.9375
1631192900906,0.28125,-0.09375,0.9375
1631192900937,0.28125,-0.078125,0.9375
1631192900968,0.28125,-0.078125,0.9375
1631192901000,0.28125,-0.078125,0.9375
1631192901031,0.28125,-0.078125,0.9375
1631192901062,0.28125,-0.078125,0.9375
1631192901093,0.28125,-0.078125,0.9375
1631192901125,0.265625,-0.078125,0.9375
1631192901156,0.28125,-0.078125,0.9375
1631192901187,0.28125,-0.078125,0.9375
1631192901218,0.28125,-0.078125,0.9375
1631192901250,0.28125,-0.078125,0.9375
1631192901281,0.265625,-0.078125,0.9375
1631192901312,0.28125,-0.078125,0.9375
1631192901343,0.28125,-0.09375,0.9375
1631192901375,0.28125,-0.09375,0.9375
1631192901406,0.28125,-0.078125,0.9375
1631192901437,0.265625,-0.078125,0.9375
1631192901468,0.265625,-0.078125,0.953125
1631192901500,0.28125,-0.078125,0.9375
1631192901531,0.28125,-0.078125,0.9375
1631192901562,0.28125,-0.09375,0.9375
1631192901593,0.265625,-0.078125,0.9375
1631192901625,0.28125,-0.078125,0.9375
1631192901656,0.28125,-0.078125,0.9375
1631192901687,0.265625,-0.078125,0.9375
1631192901718,0.265625,-0.09375,0.9375
1631192901750,0.28125,-0.078125,0.9375
1631192901781,0.28125,-0.078125,0.9375
1631192901812,0.28125,-0.078125,0.9375
1631192901843,0.28125,-0.078125,0.9375
1631192901875,0.265625,-0.078125,0.9375
1631192901906,0.28125,-0.078125,0.9375
1631192901937,0.28125,-0.078125,0.9375
1631192901968,0.28125,-0.09375,0.9375
1631192902000,0.28125,-0.078125,0.9375
1631192902031,0.28125,-0.078125,0.9375
1631192902062,0.28125,-0.078125,0.9375
1631192902093,0.28125,-0.078125,0.9375
1631192902125,0.28125,-0.078125,0.9375
1631192902156,0.265625,-0.09375,0.9375
1631192902187,0.28125,-0.078125,0.9375
1631192902218,0.28125,-0.078125,0.9375
1631192902250,0.265625,-0.09375,0.9375
1631192902281,0.28125,-0.078125,0.9375
1631192902312,0.28125,-0.078125,0.9375
1631192902343,0.265625,-0.078125,0.9375
1631192902375,0.28125,-0.078125,0.9375
1631192902406,0.28125,-0.078125,0.9375
1631192902437,0.28125,-0.078125,0.9375
1631192902468,0.28125,-0.09375,0.9375
1631192902500,0.28125,-0.078125,0.9375
1631192902531,0.28125,-0.078125,0.9375
1631192902562,0.265625,-0.078125,0.9375
1631192902593,0.28125,-0.09375,0.9375
1631192902625,0.28125,-0.09375,0.9375
1631192902656,0.28125,-0.09375,0.953125
1631192902687,0.265625,-0.078125,0.9375
1631192902718,0.28125,-0.09375,0.953125
1631192902750,0.265625,-0.078125,0.953125
1631192902781,0.265625,-0.078125,0.9375
1631192902812,0.265625,-0.078125,0.9375
1631192902843,0.28125,-0.09375,0.953125
1631192902875,0.28125,-0.078125,0.9375
1631192902906,0.28125,-0.078125,0.9375
1631192902937,0.28125,-0.078125,0.9375
1631192902968,0.28125,-0.078125,0.9375
1631192903000,0.28125,-0.09375,0.9375
1631192903031,0.28125,-0.09375,0.9375
1631192903062,0.28125,-0.09375,0.9375
1631192903093,0.265625,-0.078125,0.9375
1631192903125,0.28125,-0.078125,0.9375
1631192903156,0.265625,-0.078125,0.9375
1631192903187,0.265625,-0.09375,0.9375
1631192903218,0.265625,-0.09375,0.9375
1631192903250,0.28125,-0.078125,0.9375
1631192903281,0.265625,-0.09375,0.9375
1631192903312,0.265625,-0.078125,0.9375
1631192903343,0.28125,-0.09375,0.9375
1631192903375,0.265625,-0.09375,0.9375
1631192903406,0.265625,-0.078125,0.9375
1631192903437,0.265625,-0.078125,0.9375
1631192903468,0.265625,-0.078125,0.9375
1631192903500,0.265625,-0.078125,0.9375
1631192903531,0.28125,-0.078125,0.9375
1631192903562,0.265625,-0.078125,0.953125
1631192903593,0.265625,-0.078125,0.9375
1631192903625,0.28125,-0.09375,0.9375
1631192903656,0.265625,-0.078125,0.9375
1631192903687,0.265625,-0.078125,0.953125
1631192903718,0.28125,-0.09375,0.9375
1631192903750,0.28125,-0.09375,0.9375
1631192903781,0.265625,-0.078125,0.9375
1631192903812,0.265625,-0.078125,0.9375
1631192903843,0.28125,-0.09375,0.9375
1631192903875,0.265625,-0.09375,0.953125
1631192903906,0.28125,-0.078125,0.9375
1631192903937,0.265625,-0.078125,0.9375
1631192903968,0.265625,-0.078125,0.9375
1631192904000,0.28125,-0.078125,0.9375
1631192904031,0.28125,-0.078125,0.9375
1631192904062,0.265625,-0.078125,0.9375
1631192904093,0.28125,-0.078125,0.9375
1631192904125,0.28125,-0.078125,0.9375
1631192904156,0.28125,-0.078125,0.9375
1631192904187,0.28125,-0.09375,0.9375
1631192904218,0.265625,-0.078125,0.9375
1631192904250,0.28125,-0.078125,0.9375
1631192904281,0.265625,-0.078125,0.9375
1631192904312,0.265625,-0.078125,0.9375
1631192904343,0.265625,-0.078125,0.9375
1631192904375,0.28125,-0.09375,0.9375
1631192904406,0.265625,-0.078125,0.9375
1631192904437,0.265625,-0.078125,0.9375
1631192904468,0.28125,-0.078125,0.9375
1631192904500,0.265625,-0.078125,0.9375
1631192904531,0.265625,-0.078125,0.9375
1631192904562,0.28125,-0.078125,0.9375
1631192904593,0.265625,-0.078125,0.9375
1631192904625,0.265625,-0.078125,0.9375
1631192904656,0.265625,-0.078125,0.9375
1631192904687,0.28125,-0.078125,0.9375
1631192904718,0.265625,-0.078125,0.9375
1631192904750,0.265625,-0.078125,0.9375
1631192904781,0.265625,-0.09375,0.9375
1631192904812,0.28125,-0.078125,0.9375
1631192904843,0.265625,-0.078125,0.953125
1631192904875,0.28125,-0.078125,0.9375
1631192904906,0.28125,-0.09375,0.9375
1631192904937,0.265625,-0.078125,0.9375
1631192904968,0.28125,-0.09375,0.953125
1631192905000,0.28125,-0.078125,0.9375
1631192905031,0.265625,-0.09375,0.9375
1631192905062,0.265625,-0.09375,0.9375
1631192905093,0.28125,-0.078125,0.9375
1631192905125,0.265625,-0.078125,0.9375
1631192905156,0.265625,-0.078125,0.9375
1631192905187,0.28125,-0.09375,0.9375
1631192905218,0.265625,-0.09375,0.9375
1631192905250,0.265625,-0.078125,0.9375
1631192905281,0.28125,-0.078125,0.9375
1631192905312,0.28125,-0.09375,0.9375
1631192905343,0.265625,-0.078125,0.9375
1631192905375,0.265625,-0.09375,0.9375
1631192905406,0.28125,-0.078125,0.9375
1631192905437,0.28125,-0.078125,0.9375
1631192905468,0.265625,-0.078125,0.9375
1631192905500,0.265625,-0.09375,0.9375
1631192905531,0.265625,-0.078125,0.9375
1631192905562,0.28125,-0.078125,0.9375
1631192905593,0.28125,-0.078125,0.9375
1631192905625,0.28125,-0.078125,0.9375
1631192905656,0.265625,-0.078125,0.9375
1631192905687,0.265625,-0.078125,0.9375
1631192905718,0.265625,-0.078125,0.9375
1631192905750,0.265625,-0.078125,0.9375
1631192905781,0.265625,-0.09375,0.9375
1631192905812,0.28125,-0.078125,0.9375
1631192905843,0.265625,-0.078125,0.9375
1631192905875,0.265625,-0.078125,0.9375
1631192905906,0.28125,-0.078125,0.953125
1631192905937,0.265625,-0.078125,0.953125
1631192905968,0.265625,-0.078125,0.9375
1631192906000,0.265625,-0.078125,0.9375
1631192906031,0.265625,-0.078125,0.953125
1631192906062,0.28125,-0.09375,0.9375
1631192906093,0.28125,-0.09375,0.9375
1631192906125,0.265625,-0.09375,0.9375
1631192906156,0.28125,-0.078125,0.9375
1631192906187,0.265625,-0.078125,0.9375
1631192906218,0.265625,-0.09375,0.953125
1631192906250,0.28125,-0.09375,0.953125
1631192906281,0.265625,-0.078125,0.9375
1631192906312,0.265625,-0.078125,0.9375
1631192906343,0.265625,-0.078125,0.9375
1631192906375,0.28125,-0.078125,0.9375
1631192906406,0.265625,-0.078125,0.9375
1631192906437,0.265625,-0.078125,0.9375
1631192906468,0.28125,-0.078125,0.9375
1631192906500,0.28125,-0.078125,0.9375
1631192906531,0.28125,-0.09375,0.9375
1631192906562,0.265625,-0.078125,0.9375
1631192906593,0.28125,-0.078125,0.9375
1631192906625,0.265625,-0.078125,0.9375
1631192906656,0.265625,-0.078125,0.9375
1631192906687,0.265625,-0.078125,0.9375
1631192906718,0.265625,-0.078125,0.9375
1631192906750,0.265625,-0.078125,0.9375
1631192906781,0.265625,-0.078125,0.9375
1631192906812,0.265625,-0.09375,0.9375
1631192906843,0.265625,-0.078125,0.9375
1631192906875,0.265625,-0.09375,0.9375
1631192906906,0.28125,-0.078125,0.9375
1631192906937,0.265625,-0.078125,0.9375
1631192906968,0.265625,-0.078125,0.9375
1631192907000,0.28125,-0.09375,0.953125
1631192907031,0.296875,-0.09375,0.9375
1631192907062,0.28125,-0.09375,0.9375
1631192907093,0.265625,-0.09375,0.953125
1631192907125,0.1875,-0.09375,0.9375
1631192907156,0.234375,-0.09375,0.9375
1631192907187,0.296875,-0.09375,0.9375
1631192907218,0.265625,-0.109375,0.953125
1631192907250,0.28125,-0.109375,0.921875
1631192907281,0.28125,-0.109375,0.9375
1631192907312,0.28125,-0.109375,0.9375
1631192907343,0.296875,-0.109375,0.90625
1631192907375,0.296875,-0.109375,0.921875
1631192907406,0.328125,-0.125,0.9375
1631192907437,0.328125,-0.140625,0.953125
1631192907468,0.328125,-0.15625,0.96875
1631192907500,0.328125,-0.125,0.96875
1631192907531,0.328125,-0.140625,0.984375
1631192907562,0.328125,-0.140625,0.953125
1631192907593,0.265625,-0.140625,0.96875
1631192907625,0.265625,-0.15625,0.96875
1631192907656,0.21875,-0.140625,0.96875
1631192907687,0.1875,-0.140625,0.953125
1631192907718,0.125,-0.125,0.953125
1631192907750,0.140625,-0.125,0.9375
1631192907781,0.1875,-0.140625,0.953125
1631192907812,0.34375,-0.140625,0.96875
1631192907843,0.453125,-0.125,0.984375
1631192907875,0.28125,-0.109375,0.953125
1631192907906,0.296875,-0.09375,0.953125
1631192907937,0.296875,-0.109375,0.921875
1631192907968,0.28125,-0.09375,0.96875
1631192908000,0.1875,-0.09375,0.96875
1631192908031,0.203125,-0.09375,0.9375
1631192908062,0.265625,-0.046875,0.90625
1631192908093,0.296875,-0.046875,0.921875
1631192908125,0.28125,-0.015625,0.9375
1631192908156,0.1875,-0.015625,0.9375
1631192908187,0.203125,-0.03125,0.9375
1631192908218,0.21875,-0.03125,0.921875
1631192908250,0.140625,-0.0625,0.875
1631192908281,0.171875,-0.046875,0.90625
1631192908312,0.203125,-0.078125,0.921875
1631192908343,0.234375,-0.0625,0.921875
1631192908375,0.296875,-0.03125,0.9375
1631192908406,0.296875,0.0,0.875
1631192908437,0.484375,-0.03125,0.90625
1631192908468,0.296875,-0.0625,0.96875
1631192908500,0.15625,-0.125,0.9375
1631192908531,-0.03125,-0.171875,0.890625
1631192908562,-0.046875,-0.234375,0.90625
1631192908593,0.28125,-0.265625,1.015625
1631192908625,0.46875,-0.25,0.96875
1631192908656,0.46875,-0.21875,0.890625
1631192908687,0.328125,-0.25,0.921875
1631192908718,0.21875,-0.28125,0.953125
1631192908750,0.234375,-0.28125,0.921875
1631192908781,0.296875,-0.234375,0.90625
1631192908812,0.328125,-0.21875,0.90625
1631192908843,0.328125,-0.21875,0.921875
1631192908875,0.34375,-0.234375,0.921875
1631192908906,0.359375,-0.234375,0.921875
1631192908937,0.328125,-0.21875,0.90625
1631192908968,0.328125,-0.21875,0.90625
1631192909000,0.34375,-0.1875,0.90625
1631192909031,0.328125,-0.1875,0.90625
1631192909062,0.328125,-0.1875,0.90625
1631192909093,0.34375,-0.1875,0.90625
1631192909125,0.34375,-0.1875,0.90625
1631192909156,0.328125,-0.203125,0.90625
1631192909187,0.328125,-0.203125,0.90625
1631192909218,0.328125,-0.203125,0.90625
1631192909250,0.328125,-0.203125,0.90625
1631192909281,0.328125,-0.203125,0.90625
1631192909312,0.328125,-0.203125,0.90625
1631192909343,0.328125,-0.1875,0.90625
1631192909375,0.328125,-0.1875,0.90625
1631192909406,0.328125,-0.1875,0.90625
1631192909437,0.328125,-0.1875,0.90625
1631192909468,0.328125,-0.1875,0.90625
1631192909500,0.34375,-0.1875,0.90625
1631192909531,0.34375,-0.1875,0.90625
1631192909562,0.34375,-0.1875,0.90625
1631192909593,0.328125,-0.1875,0.90625
1631192909625,0.328125,-0.1875,0.90625
1631192909656,0.328125,-0.1875,0.90625
1631192909687,0.328125,-0.1875,0.90625
1631192909718,0.34375,-0.1875,0.90625
1631192909750,0.328125,-0.1875,0.90625
1631192909781,0.328125,-0.1875,0.90625
1631192909812,0.328125,-0.1875,0.90625
1631192909843,0.328125,-0.1875,0.90625
1631192909875,0.34375,-0.1875,0.90625
1631192909906,0.34375,-0.1875,0.90625
1631192909937,0.34375,-0.1875,0.90625
1631192909968,0.34375,-0.1875,0.90625
1631192910000,0.328125,-0.1875,0.90625
1631192910031,0.328125,-0.1875,0.90625
1631192910062,0.34375,-0.1875,0.90625
1631192910093,0.34375,-0.1875,0.90625
1631192910125,0.34375,-0.1875,0.90625
1631192910156,0.328125,-0.1875,0.90625
1631192910187,0.328125,-0.1875,0.90625
1631192910218,0.328125,-0.1875,0.90625
1631192910250,0.34375,-0.1875,0.90625
1631192910281,0.34375,-0.1875,0.90625
1631192910312,0.34375,-0.1875,0.90625
1631192910343,0.34375,-0.1875,0.90625
1631192910375,0.34375,-0.171875,0.90625
1631192910406,0.34375,-0.1875,0.90625
1631192910437,0.34375,-0.171875,0.90625
1631192910468,0.34375,-0.1875,0.90625
1631192910500,0.34375,-0.1875,0.90625
1631192910531,0.34375,-0.171875,0.90625
1631192910562,0.34375,-0.1875,0.90625
1631192910593,0.34375,-0.171875,0.90625
1631192910625,0.34375,-0.1875,0.90625
1631192910656,0.34375,-0.171875,0.90625
1631192910687,0.34375,-0.171875,0.90625
1631192910718,0.34375,-0.171875,0.90625
1631192910750,0.34375,-0.1875,0.90625
1631192910781,0.34375,-0.1875,0.90625
1631192910812,0.34375,-0.1875,0.90625
1631192910843,0.34375,-0.1875,0.90625
1631192910875,0.34375,-0.171875,0.90625
1631192910906,0.34375,-0.1875,0.90625
1631192910937,0.34375,-0.171875,0.90625
1631192910968,0.34375,-0.171875,0.90625
1631192911000,0.34375,-0.171875,0.90625
1631192911031,0.34375,-0.171875,0.90625
1631192911062,0.34375,-0.171875,0.90625
1631192911093,0.34375,-0.171875,0.90625
1631192911125,0.34375,-0.171875,0.90625
1631192911156,0.34375,-0.171875,0.90625
1631192911187,0.34375,-0.171875,0.90625
1631192911218,0.34375,-0.171875,0.90625
1631192911250,0.34375,-0.171875,0.90625
1631192911281,0.34375,-0.171875,0.90625
1631192911312,0.34375,-0.1875,0.90625
1631192911343,0.34375,-0.171875,0.90625
1631192911375,0.34375,-0.171875,0.90625
1631192911406,0.34375,-0.171875,0.90625
1631192911437,0.34375,-0.1875,0.90625
1631192911468,0.34375,-0.171875,0.90625
1631192911500,0.34375,-0.171875,0.90625
1631192911531,0.34375,-0.171875,0.90625
1631192911562,0.34375,-0.171875,0.90625
1631192911593,0.34375,-0.171875,0.90625
1631192911625,0.34375,-0.171875,0.90625
1631192911656,0.34375,-0.171875,0.90625
1631192911687,0.34375,-0.171875,0.90625
1631192911718,0.34375,-0.171875,0.90625
1631192911750,0.34375,-0.171875,0.90625
1631192911781,0.34375,-0.171875,0.90625
1631192911812,0.34375,-0.171875,0.90625
1631192911843,0.34375,-0.171875,0.90625
1631192911875,0.34375,-0.171875,0.90625
1631192911906,0.34375,-0.171875,0.90625
1631192911937,0.34375,-0.171875,0.90625
1631192911968,0.34375,-0.171875,0.90625
1631192912000,0.34375,-0.171875,0.90625
1631192912031,0.34375,-0.171875,0.90625
1631192912062,0.34375,-0.171875,0.90625
1631192912093,0.34375,-0.171875,0.90625
1631192912125,0.359375,-0.171875,0.90625
1631192912156,0.34375,-0.171875,0.90625
1631192912187,0.34375,-0.171875,0.90625
1631192912218,0.34375,-0.171875,0.90625
1631192912250,0.34375,-0.171875,0.90625
1631192912281,0.34375,-0.171875,0.90625
1631192912312,0.34375,-0.171875,0.90625
1631192912343,0.34375,-0.171875,0.90625
1631192912375,0.34375,-0.171875,0.90625
1631192912406,0.34375,-0.171875,0.90625
1631192912437,0.34375,-0.171875,0.90625
1631192912468,0.34375,-0.171875,0.90625
1631192912500,0.34375,-0.171875,0.90625
1631192912531,0.34375,-0.171875,0.90625
1631192912562,0.34375,-0.171875,0.90625
1631192912593,0.34375,-0.171875,0.90625
1631192912625,0.34375,-0.171875,0.90625
1631192912656,0.34375,-0.171875,0.90625
1631192912687,0.34375,-0.171875,0.90625
1631192912718,0.34375,-0.171875,0.90625
1631192912750,0.34375,-0.171875,0.90625
1631192912781,0.34375,-0.171875,0.90625
1631192912812,0.34375,-0.171875,0.90625
1631192912843,0.34375,-0.171875,0.90625
1631192912875,0.34375,-0.171875,0.90625
1631192912906,0.34375,-0.171875,0.90625
1631192912937,0.34375,-0.171875,0.90625
1631192912968,0.34375,-0.171875,0.90625
1631192913000,0.34375,-0.171875,0.90625
1631192913031,0.34375,-0.171875,0.90625
1631192913062,0.34375,-0.171875,0.90625
1631192913093,0.34375,-0.171875,0.90625
1631192913125,0.34375,-0.171875,0.90625
1631192913156,0.34375,-0.171875,0.90625
1631192913187,0.34375,-0.171875,0.90625
1631192913218,0.34375,-0.171875,0.90625
1631192913250,0.34375,-0.171875,0.90625
1631192913281,0.34375,-0.171875,0.90625
1631192913312,0.34375,-0.171875,0.90625
1631192913343,0.34375,-0.171875,0.90625
1631192913375,0.34375,-0.171875,0.90625
1631192913406,0.34375,-0.171875,0.90625
1631192913437,0.34375,-0.171875,0.90625
1631192913468,0.34375,-0.171875,0.90625
1631192913500,0.34375,-0.171875,0.90625
1631192913531,0.34375,-0.171875,0.90625
1631192913562,0.34375,-0.171875,0.90625
1631192913593,0.34375,-0.171875,0.90625
1631192913625,0.34375,-0.171875,0.90625
1631192913656,0.34375,-0.171875,0.90625
1631192913687,0.34375,-0.171875,0.90625
1631192913718,0.34375,-0.171875,0.90625
1631192913750,0.34375,-0.171875,0.90625
1631192913781,0.34375,-0.171875,0.90625
1631192913812,0.34375,-0.171875,0.90625
1631192913843,0.34375,-0.171875,0.90625
1631192913875,0.34375,-0.171875,0.90625
1631192913906,0.34375,-0.171875,0.90625
1631192913937,0.34375,-0.171875,0.90625
1631192913968,0.34375,-0.171875,0.90625
1631192914000,0.34375,-0.171875,0.90625
1631192914031,0.34375,-0.171875,0.90625
1631192914062,0.34375,-0.171875,0.90625
1631192914093,0.34375,-0.171875,0.90625
1631192914125,0.34375,-0.171875,0.90625
1631192914156,0.34375,-0.171875,0.90625
1631192914187,0.34375,-0.171875,0.90625
1631192914218,0.34375,-0.171875,0.90625
1631192914250,0.34375,-0.171875,0.90625
1631192914281,0.34375,-0.171875,0.90625
1631192914312,0.34375,-0.171875,0.90625
1631192914343,0.34375,-0.171875,0.90625
1631192914375,0.34375,-0.171875,0.90625
1631192914406,0.34375,-0.171875,0.90625
1631192914437,0.34375,-0.171875,0.90625
1631192914468,0.34375,-0.171875,0.90625
1631192914500,0.34375,-0.171875,0.90625
1631192914531,0.34375,-0.171875,0.90625
1631192914562,0.34375,-0.171875,0.90625
1631192914593,0.34375,-0.171875,0.90625
1631192914625,0.34375,-0.171875,0.90625
1631192914656,0.34375,-0.171875,0.90625
1631192914687,0.34375,-0.171875,0.90625
1631192914718,0.34375,-0.171875,0.90625
1631192914750,0.34375,-0.171875,0.90625
1631192914781,0.34375,-0.171875,0.90625
1631192914812,0.34375,-0.171875,0.90625
1631192914843,0.34375,-0.171875,0.90625
1631192914875,0.34375,-0.171875,0.90625
1631192914906,0.34375,-0.171875,0.90625
1631192914937,0.34375,-0.171875,0.90625
1631192914968,0.34375,-0.171875,0.90625
1631192915000,0.34375,-0.171875,0.90625
1631192915031,0.34375,-0.171875,0.90625
1631192915062,0.34375,-0.171875,0.90625
1631192915093,0.34375,-0.171875,0.90625
1631192915125,0.34375,-0.171875,0.90625
1631192915156,0.34375,-0.171875,0.90625
1631192915187,0.34375,-0.171875,0.90625
1631192915218,0.34375,-0.171875,0.90625
1631192915250,0.34375,-0.171875,0.90625
1631192915281,0.34375,-0.171875,0.90625
1631192915312,0.34375,-0.1875,0.90625
1631192915343,0.34375,-0.171875,0.90625
1631192915375,0.34375,-0.171875,0.90625
1631192915406,0.34375,-0.171875,0.90625
1631192915437,0.34375,-0.171875,0.90625
1631192915468,0.34375,-0.171875,0.90625
1631192915500,0.34375,-0.171875,0.90625
1631192915531,0.34375,-0.171875,0.90625
1631192915562,0.34375,-0.171875,0.90625
1631192915593,0.34375,-0.171875,0.90625
1631192915625,0.34375,-0.171875,0.90625
1631192915656,0.34375,-0.171875,0.90625
1631192915687,0.34375,-0.171875,0.90625
1631192915718,0.34375,-0.171875,0.90625
1631192915750,0.34375,-0.171875,0.90625
1631192915781,0.34375,-0.171875,0.90625
1631192915812,0.34375,-0.171875,0.90625
1631192915843,0.34375,-0.171875,0.90625
1631192915875,0.34375,-0.171875,0.90625
1631192915906,0.34375,-0.171875,0.90625
1631192915937,0.34375,-0.171875,0.90625
1631192915968,0.359375,-0.171875,0.90625
1631192916000,0.34375,-0.171875,0.90625
1631192916031,0.34375,-0.171875,0.90625
1631192916062,0.34375,-0.171875,0.90625
1631192916093,0.34375,-0.171875,0.90625
1631192916125,0.34375,-0.171875,0.90625
1631192916156,0.34375,-0.171875,0.90625
1631192916187,0.34375,-0.171875,0.90625
1631192916218,0.34375,-0.171875,0.90625
1631192916250,0.34375,-0.171875,0.90625
1631192916281,0.359375,-0.171875,0.90625
1631192916312,0.34375,-0.171875,0.90625
1631192916343,0.34375,-0.171875,0.90625
1631192916375,0.34375,-0.171875,0.90625
1631192916406,0.34375,-0.171875,0.90625
1631192916437,0.34375,-0.171875,0.90625
1631192916468,0.34375,-0.171875,0.90625
1631192916500,0.34375,-0.171875,0.90625
1631192916531,0.34375,-0.171875,0.90625
1631192916562,0.34375,-0.171875,0.90625
1631192916593,0.34375,-0.171875,0.90625
1631192916625,0.34375,-0.171875,0.90625
1631192916656,0.34375,-0.171875,0.90625
1631192916687,0.34375,-0.171875,0.90625
1631192916718,0.34375,-0.171875,0.90625
1631192916750,0.34375,-0.171875,0.90625
1631192916781,0.34375,-0.171875,0.90625
1631192916812,0.34375,-0.171875,0.90625
1631192916843,0.34375,-0.171875,0.90625
1631192916875,0.34375,-0.171875,0.90625
1631192916906,0.359375,-0.171875,0.90625
1631192916937,0.34375,-0.171875,0.90625
1631192916968,0.34375,-0.171875,0.890625
1631192917000,0.34375,-0.171875,0.90625
1631192917031,0.34375,-0.171875,0.90625
1631192917062,0.359375,-0.171875,0.90625
1631192917093,0.359375,-0.171875,0.90625
1631192917125,0.34375,-0.171875,0.90625
1631192917156,0.34375,-0.171875,0.90625
1631192917187,0.34375,-0.171875,0.90625
1631192917218,0.34375,-0.171875,0.90625
1631192917250,0.34375,-0.171875,0.90625
1631192917281,0.34375,-0.171875,0.90625
1631192917312,0.34375,-0.171875,0.90625
1631192917343,0.34375,-0.171875,0.90625
1631192917375,0.34375,-0.171875,0.90625
1631192917406,0.359375,-0.171875,0.90625
1631192917437,0.34375,-0.171875,0.90625
1631192917468,0.34375,-0.171875,0.90625
1631192917500,0.34375,-0.171875,0.90625
1631192917531,0.34375,-0.171875,0.90625
1631192917562,0.359375,-0.171875,0.90625
1631192917593,0.359375,-0.171875,0.90625
1631192917625,0.34375,-0.171875,0.90625
1631192917656,0.34375,-0.171875,0.90625
1631192917687,0.34375,-0.171875,0.90625
1631192917718,0.34375,-0.171875,0.90625
1631192917750,0.34375,-0.171875,0.90625
1631192917781,0.34375,-0.171875,0.90625
1631192917812,0.34375,-0.171875,0.90625
1631192917843,0.34375,-0.171875,0.90625
1631192917875,0.34375,-0.171875,0.90625
1631192917906,0.34375,-0.171875,0.90625
1631192917937,0.34375,-0.171875,0.90625
1631192917968,0.34375,-0.171875,0.90625
1631192918000,0.34375,-0.171875,0.90625
1631192918031,0.34375,-0.171875,0.90625
1631192918062,0.34375,-0.171875,0.90625
1631192918093,0.34375,-0.171875,0.90625
1631192918125,0.34375,-0.171875,0.90625
1631192918156,0.34375,-0.171875,0.90625
1631192918187,0.34375,-0.171875,0.90625
1631192918218,0.34375,-0.171875,0.90625
1631192918250,0.359375,-0.171875,0.90625
1631192918281,0.359375,-0.171875,0.90625
1631192918312,0.34375,-0.171875,0.90625
1631192918343,0.34375,-0.171875,0.90625
1631192918375,0.359375,-0.171875,0.90625
1631192918406,0.34375,-0.171875,0.90625
1631192918437,0.34375,-0.171875,0.90625
1631192918468,0.34375,-0.171875,0.90625
1631192918500,0.34375,-0.171875,0.90625
1631192918531,0.34375,-0.171875,0.90625
1631192918562,0.34375,-0.171875,0.90625
1631192918593,0.34375,-0.171875,0.90625
1631192918625,0.34375,-0.171875,0.90625
1631192918656,0.34375,-0.171875,0.90625
1631192918687,0.34375,-0.171875,0.90625
1631192918718,0.359375,-0.171875,0.90625
1631192918750,0.34375,-0.171875,0.90625
1631192918781,0.34375,-0.171875,0.90625
1631192918812,0.34375,-0.171875,0.90625
1631192918843,0.359375,-0.171875,0.90625
1631192918875,0.34375,-0.171875,0.90625
1631192918906,0.34375,-0.171875,0.90625
1631192918937,0.34375,-0.171875,0.90625
1631192918968,0.34375,-0.171875,0.90625
1631192919000,0.34375,-0.171875,0.90625
1631192919031,0.34375,-0.171875,0.90625
1631192919062,0.34375,-0.171875,0.90625
1631192919093,0.34375,-0.171875,0.90625
1631192919125,0.34375,-0.171875,0.90625
1631192919156,0.34375,-0.171875,0.90625
1631192919187,0.34375,-0.171875,0.90625
1631192919218,0.34375,-0.171875,0.90625
1631192919250,0.34375,-0.171875,0.90625
1631192919281,0.34375,-0.171875,0.90625
1631192919312,0.34375,-0.171875,0.90625
1631192919343,0.34375,-0.171875,0.90625
1631192919375,0.34375,-0.171875,0.90625
1631192919406,0.34375,-0.171875,0.90625
1631192919437,0.359375,-0.171875,0.90625
1631192919468,0.34375,-0.171875,0.90625
1631192919500,0.34375,-0.171875,0.90625
1631192919531,0.34375,-0.171875,0.90625
1631192919562,0.34375,-0.171875,0.90625
1631192919593,0.34375,-0.171875,0.90625
1631192919625,0.34375,-0.171875,0.90625
1631192919656,0.34375,-0.171875,0.90625
1631192919687,0.34375,-0.171875,0.90625
1631192919718,0.34375,-0.171875,0.90625
1631192919750,0.34375,-0.171875,0.90625
1631192919781,0.34375,-0.171875,0.90625
1631192919812,0.34375,-0.171875,0.90625
1631192919843,0.34375,-0.171875,0.90625
1631192919875,0.34375,-0.171875,0.90625
1631192919906,0.34375,-0.171875,0.90625
1631192919937,0.34375,-0.171875,0.90625
1631192919968,0.34375,-0.171875,0.90625
1631192920000,0.34375,-0.171875,0.90625
1631192920031,0.34375,-0.171875,0.90625
1631192920062,0.34375,-0.171875,0.90625
1631192920093,0.34375,-0.171875,0.90625
1631192920125,0.34375,-0.171875,0.90625
1631192920156,0.34375,-0.171875,0.90625
1631192920187,0.34375,-0.171875,0.90625
1631192920218,0.34375,-0.171875,0.90625
1631192920250,0.34375,-0.171875,0.90625
1631192920281,0.34375,-0.171875,0.90625
1631192920312,0.34375,-0.171875,0.90625
1631192920343,0.34375,-0.171875,0.90625
1631192920375,0.34375,-0.171875,0.90625
1631192920406,0.34375,-0.171875,0.90625
1631192920437,0.34375,-0.171875,0.90625
1631192920468,0.359375,-0.171875,0.90625
1631192920500,0.34375,-0.171875,0.90625
1631192920531,0.34375,-0.171875,0.90625
1631192920562,0.34375,-0.171875,0.90625
1631192920593,0.34375,-0.171875,0.90625
1631192920625,0.34375,-0.171875,0.90625
1631192920656,0.34375,-0.171875,0.90625
1631192920687,0.34375,-0.171875,0.90625
1631192920718,0.34375,-0.171875,0.90625
1631192920750,0.359375,-0.171875,0.90625
1631192920781,0.34375,-0.171875,0.90625
1631192920812,0.34375,-0.171875,0.90625
1631192920843,0.34375,-0.171875,0.90625
1631192920875,0.34375,-0.171875,0.90625
1631192920906,0.359375,-0.171875,0.90625
1631192920937,0.34375,-0.171875,0.90625
1631192920968,0.34375,-0.171875,0.90625
1631192921000,0.34375,-0.171875,0.90625
1631192921031,0.34375,-0.171875,0.90625
1631192921062,0.34375,-0.171875,0.90625
1631192921093,0.34375,-0.171875,0.90625
1631192921125,0.34375,-0.171875,0.90625
1631192921156,0.34375,-0.171875,0.90625
1631192921187,0.34375,-0.171875,0.90625
1631192921218,0.34375,-0.171875,0.90625
1631192921250,0.34375,-0.171875,0.90625
1631192921281,0.359375,-0.171875,0.90625
1631192921312,0.34375,-0.171875,0.90625
1631192921343,0.34375,-0.171875,0.90625
1631192921375,0.34375,-0.171875,0.90625
1631192921406,0.34375,-0.171875,0.90625
1631192921437,0.34375,-0.171875,0.90625
1631192921468,0.34375,-0.171875,0.90625
1631192921500,0.34375,-0.171875,0.90625
1631192921531,0.34375,-0.171875,0.90625
1631192921562,0.34375,-0.171875,0.90625
1631192921593,0.359375,-0.171875,0.90625
1631192921625,0.34375,-0.171875,0.90625
1631192921656,0.34375,-0.171875,0.90625
1631192921687,0.359375,-0.171875,0.90625
1631192921718,0.34375,-0.171875,0.90625
1631192921750,0.34375,-0.171875,0.90625
1631192921781,0.34375,-0.171875,0.90625
1631192921812,0.34375,-0.171875,0.90625
1631192921843,0.34375,-0.171875,0.90625
1631192921875,0.359375,-0.171875,0.90625
1631192921906,0.34375,-0.171875,0.90625
1631192921937,0.34375,-0.171875,0.90625
1631192921968,0.34375,-0.171875,0.90625
1631192922000,0.359375,-0.171875,0.90625
1631192922031,0.34375,-0.171875,0.90625
1631192922062,0.34375,-0.171875,0.90625
1631192922093,0.34375,-0.171875,0.90625
1631192922125,0.34375,-0.171875,0.90625
1631192922156,0.34375,-0.171875,0.90625
1631192922187,0.34375,-0.171875,0.90625
1631192922218,0.359375,-0.171875,0.90625
1631192922250,0.359375,-0.171875,0.90625
1631192922281,0.34375,-0.171875,0.90625
1631192922312,0.34375,-0.171875,0.90625
1631192922343,0.34375,-0.171875,0.90625
1631192922375,0.34375,-0.171875,0.90625
1631192922406,0.359375,-0.171875,0.90625
1631192922437,0.34375,-0.171875,0.90625
1631192922468,0.34375,-0.171875,0.90625
1631192922500,0.34375,-0.171875,0.90625
1631192922531,0.34375,-0.171875,0.90625
1631192922562,0.34375,-0.171875,0.90625
1631192922593,0.34375,-0.171875,0.90625
1631192922625,0.34375,-0.171875,0.90625
1631192922656,0.34375,-0.171875,0.90625
1631192922687,0.359375,-0.171875,0.90625
1631192922718,0.359375,-0.171875,0.90625
1631192922750,0.34375,-0.171875,0.90625
1631192922781,0.34375,-0.171875,0.90625
1631192922812,0.359375,-0.171875,0.90625
1631192922843,0.359375,-0.171875,0.90625
1631192922875,0.34375,-0.171875,0.90625
1631192922906,0.34375,-0.171875,0.90625
1631192922937,0.34375,-0.171875,0.90625
1631192922968,0.34375,-0.171875,0.90625
1631192923000,0.359375,-0.171875,0.90625
1631192923031,0.359375,-0.171875,0.90625
1631192923062,0.359375,-0.171875,0.90625
1631192923093,0.34375,-0.171875,0.90625
1631192923125,0.34375,-0.171875,0.90625
1631192923156,0.359375,-0.171875,0.90625
1631192923187,0.359375,-0.171875,0.90625
1631192923218,0.34375,-0.171875,0.90625
1631192923250,0.34375,-0.171875,0.90625
1631192923281,0.34375,-0.171875,0.90625
1631192923312,0.359375,-0.171875,0.90625
1631192923343,0.34375,-0.171875,0.90625
1631192923375,0.34375,-0.171875,0.90625
1631192923406,0.34375,-0.171875,0.90625
1631192923437,0.359375,-0.171875,0.90625
1631192923468,0.34375,-0.171875,0.90625
1631192923500,0.34375,-0.171875,0.90625
1631192923531,0.359375,-0.171875,0.90625
1631192923562,0.34375,-0.171875,0.90625
1631192923593,0.359375,-0.15625,0.90625
1631192923625,0.359375,-0.171875,0.90625
1631192923656,0.34375,-0.171875,0.90625
1631192923687,0.34375,-0.1875,0.90625
1631192923718,0.34375,-0.171875,0.90625
1631192923750,0.359375,-0.15625,0.90625
1631192923781,0.359375,-0.15625,0.90625
1631192923812,0.34375,-0.171875,0.90625
1631192923843,0.359375,-0.171875,0.90625
1631192923875,0.359375,-0.171875,0.90625
1631192923906,0.34375,-0.171875,0.90625
1631192923937,0.34375,-0.171875,0.90625
1631192923968,0.34375,-0.171875,0.90625
1631192924000,0.359375,-0.171875,0.921875
1631192924031,0.34375,-0.171875,0.9375
1631192924062,0.3125,-0.171875,0.9375
1631192924093,0.28125,-0.171875,0.890625
1631192924125,0.34375,-0.1875,0.90625
1631192924156,0.375,-0.1875,0.90625
1631192924187,0.328125,-0.1875,0.90625
1631192924218,0.3125,-0.203125,0.90625
1631192924250,0.328125,-0.203125,0.90625
1631192924281,0.328125,-0.1875,0.90625
1631192924312,0.328125,-0.1875,0.90625
1631192924343,0.328125,-0.1875,0.921875
1631192924375,0.328125,-0.1875,0.921875
1631192924406,0.328125,-0.1875,0.921875
1631192924437,0.3125,-0.203125,0.90625
1631192924468,0.3125,-0.203125,0.921875
1631192924500,0.3125,-0.203125,0.90625
1631192924531,0.296875,-0.203125,0.90625
1631192924562,0.3125,-0.203125,0.90625
1631192924593,0.296875,-0.203125,0.90625
1631192924625,0.328125,-0.1875,0.90625
1631192924656,0.34375,-0.171875,0.9375
1631192924687,0.34375,-0.1875,0.921875
1631192924718,0.328125,-0.171875,0.90625
1631192924750,0.34375,-0.1875,0.921875
1631192924781,0.296875,-0.171875,0.921875
1631192924812,0.265625,-0.171875,0.90625
1631192924843,0.1875,-0.1875,0.9375
1631192924875,0.21875,-0.1875,0.9375
1631192924906,0.34375,-0.203125,0.921875
1631192924937,0.25,-0.203125,0.9375
1631192924968,0.25,-0.203125,0.921875
1631192925000,0.328125,-0.203125,0.9375
1631192925031,0.296875,-0.203125,0.921875
1631192925062,0.265625,-0.21875,0.921875
1631192925093,0.28125,-0.203125,0.90625
1631192925125,0.28125,-0.203125,0.9375
1631192925156,0.28125,-0.203125,0.90625
1631192925187,0.296875,-0.203125,0.90625
1631192925218,0.296875,-0.21875,0.921875
1631192925250,0.34375,-0.21875,0.921875
1631192925281,0.328125,-0.21875,0.90625
1631192925312,0.3125,-0.21875,0.921875
1631192925343,0.3125,-0.21875,0.921875
1631192925375,0.328125,-0.21875,0.921875
1631192925406,0.3125,-0.234375,0.921875
1631192925437,0.296875,-0.234375,0.921875
1631192925468,0.3125,-0.234375,0.90625
1631192925500,0.296875,-0.21875,0.90625
1631192925531,0.265625,-0.234375,0.90625
1631192925562,0.28125,-0.25,0.890625
1631192925593,0.296875,-0.25,0.890625
1631192925625,0.265625,-0.234375,0.890625
1631192925656,0.296875,-0.234375,0.921875
1631192925687,0.3125,-0.21875,0.921875
1631192925718,0.34375,-0.203125,0.921875
1631192925750,0.34375,-0.21875,0.921875
1631192925781,0.3125,-0.21875,0.921875
1631192925812,0.328125,-0.21875,0.921875
1631192925843,0.3125,-0.203125,0.90625
1631192925875,0.3125,-0.1875,0.90625
1631192925906,0.296875,-0.1875,0.90625
1631192925937,0.3125,-0.1875,0.90625
1631192925968,0.328125,-0.1875,0.90625
1631192926000,0.34375,-0.203125,0.90625
1631192926031,0.359375,-0.203125,0.90625
1631192926062,0.34375,-0.203125,0.90625
1631192926093,0.34375,-0.203125,0.90625
1631192926125,0.34375,-0.1875,0.90625
1631192926156,0.328125,-0.1875,0.890625
1631192926187,0.359375,-0.15625,0.890625
1631192926218,0.5,-0.21875,0.890625
1631192926250,0.328125,-0.1875,0.875
1631192926281,0.296875,-0.234375,0.90625
1631192926312,0.296875,-0.234375,0.921875
1631192926343,0.265625,-0.203125,0.921875
1631192926375,0.359375,-0.1875,0.90625
1631192926406,0.375,-0.1875,0.90625
1631192926437,0.375,-0.1875,0.90625
1631192926468,0.359375,-0.1875,0.90625
1631192926500,0.359375,-0.1875,0.90625
1631192926531,0.359375,-0.1875,0.890625
1631192926562,0.375,-0.1875,0.90625
1631192926593,0.375,-0.1875,0.890625
1631192926625,0.34375,-0.1875,0.890625
1631192926656,0.375,-0.1875,0.890625
1631192926687,0.328125,-0.171875,0.890625
1631192926718,0.25,-0.171875,0.875
1631192926750,0.5,-0.203125,0.921875
1631192926781,0.359375,-0.1875,0.890625
1631192926812,0.28125,-0.1875,0.90625
1631192926843,0.328125,-0.171875,0.921875
1631192926875,0.375,-0.15625,0.90625
1631192926906,0.421875,-0.125,0.875
1631192926937,0.421875,-0.109375,0.890625
1631192926968,0.40625,-0.125,0.890625
1631192927000,0.421875,-0.109375,0.890625
1631192927031,0.40625,-0.125,0.890625
1631192927062,0.359375,-0.125,0.890625
1631192927093,0.4375,-0.09375,0.890625
1631192927125,0.46875,-0.09375,0.890625
1631192927156,0.4375,-0.09375,0.875
1631192927187,0.453125,-0.125,0.90625
1631192927218,0.421875,-0.140625,0.90625
1631192927250,0.359375,-0.140625,0.890625
1631192927281,0.359375,-0.109375,0.875
1631192927312,0.421875,-0.109375,0.875
1631192927343,0.421875,-0.140625,0.921875
1631192927375,0.421875,-0.125,0.875
1631192927406,0.4375,-0.125,0.90625
1631192927437,0.390625,-0.109375,0.890625
1631192927468,0.375,-0.15625,0.90625
1631192927500,0.25,-0.15625,0.921875
1631192927531,0.234375,-0.171875,0.9375
1631192927562,0.21875,-0.203125,0.953125
1631192927593,0.15625,-0.203125,0.953125
1631192927625,0.109375,-0.21875,0.9375
1631192927656,0.125,-0.21875,0.984375
1631192927687,0.09375,-0.203125,0.953125
1631192927718,0.234375,-0.171875,0.953125
1631192927750,0.265625,-0.15625,0.9375
1631192927781,0.3125,-0.140625,0.921875
1631192927812,0.328125,-0.140625,0.90625
1631192927843,0.328125,-0.140625,0.90625
1631192927875,0.3125,-0.125,0.921875
1631192927906,0.3125,-0.125,0.921875
1631192927937,0.296875,-0.125,0.9375
1631192927968,0.265625,-0.140625,0.953125
1631192928000,0.234375,-0.140625,0.96875
1631192928031,0.28125,-0.140625,0.890625
1631192928062,0.5625,-0.09375,0.859375
1631192928093,0.46875,-0.078125,0.890625
1631192928125,0.4375,-0.078125,0.890625
1631192928156,0.390625,-0.078125,0.90625
1631192928187,0.390625,-0.078125,0.90625
1631192928218,0.40625,-0.109375,0.890625
1631192928250,0.390625,-0.09375,0.921875
1631192928281,0.25,-0.140625,0.90625
1631192928312,0.28125,-0.15625,0.921875
1631192928343,0.3125,-0.140625,0.9375
1631192928375,0.3125,-0.125,0.9375
1631192928406,0.3125,-0.125,0.921875
1631192928437,0.390625,-0.109375,0.890625
1631192928468,0.40625,-0.109375,0.890625
1631192928500,0.375,-0.125,0.90625
1631192928531,0.359375,-0.15625,0.90625
1631192928562,0.34375,-0.15625,0.921875
1631192928593,0.34375,-0.140625,0.9375
1631192928625,0.34375,-0.125,0.921875
1631192928656,0.375,-0.140625,0.90625
1631192928687,0.390625,-0.140625,0.90625
1631192928718,0.390625,-0.140625,0.90625
1631192928750,0.359375,-0.125,0.90625
1631192928781,0.390625,-0.125,0.90625
1631192928812,0.390625,-0.109375,0.90625
1631192928843,0.390625,-0.125,0.890625
1631192928875,0.390625,-0.125,0.890625
1631192928906,0.390625,-0.125,0.890625
1631192928937,0.375,-0.125,0.890625
1631192928968,0.375,-0.125,0.90625
1631192929000,0.390625,-0.125,0.90625
1631192929031,0.390625,-0.125,0.890625
1631192929062,0.40625,-0.125,0.890625
1631192929093,0.390625,-0.125,0.890625
1631192929125,0.390625,-0.125,0.90625
1631192929156,0.390625,-0.125,0.90625
1631192929187,0.390625,-0.125,0.890625
1631192929218,0.390625,-0.125,0.90625
1631192929250,0.390625,-0.125,0.890625
1631192929281,0.390625,-0.125,0.890625
1631192929312,0.390625,-0.125,0.890625
1631192929343,0.390625,-0.125,0.890625
1631192929375,0.390625,-0.125,0.890625
1631192929406,0.390625,-0.125,0.890625
1631192929437,0.390625,-0.125,0.890625
1631192929468,0.390625,-0.125,0.890625
1631192929500,0.390625,-0.125,0.890625
1631192929531,0.390625,-0.125,0.890625
1631192929562,0.390625,-0.125,0.890625
1631192929593,0.390625,-0.125,0.890625
1631192929625,0.390625,-0.125,0.890625
1631192929656,0.390625,-0.125,0.890625
1631192929687,0.390625,-0.125,0.890625
1631192929718,0.390625,-0.125,0.890625
1631192929750,0.390625,-0.125,0.890625
1631192929781,0.40625,-0.125,0.890625
1631192929812,0.40625,-0.125,0.90625
1631192929843,0.40625,-0.125,0.890625
1631192929875,0.390625,-0.125,0.890625
1631192929906,0.390625,-0.125,0.890625
1631192929937,0.390625,-0.125,0.890625
1631192929968,0.390625,-0.125,0.890625
1631192930000,0.390625,-0.125,0.890625
1631192930031,0.390625,-0.125,0.890625
1631192930062,0.390625,-0.125,0.890625
1631192930093,0.390625,-0.125,0.890625
1631192930125,0.390625,-0.125,0.890625
1631192930156,0.390625,-0.125,0.890625
1631192930187,0.390625,-0.125,0.890625
1631192930218,0.421875,-0.140625,0.875
1631192930250,0.390625,-0.09375,0.890625
1631192930281,0.421875,-0.078125,0.90625
1631192930312,0.46875,-0.09375,0.890625
1631192930343,0.40625,-0.109375,0.90625
1631192930375,0.375,-0.125,0.90625
1631192930406,0.359375,-0.125,0.890625
1631192930437,0.375,-0.09375,0.890625
1631192930468,0.390625,-0.109375,0.890625
1631192930500,0.40625,-0.078125,0.890625
1631192930531,0.4375,-0.09375,0.90625
1631192930562,0.421875,-0.078125,0.890625
1631192930593,0.421875,-0.078125,0.890625
1631192930625,0.4375,-0.09375,0.875
1631192930656,0.421875,-0.078125,0.875
1631192930687,0.4375,-0.078125,0.890625
1631192930718,0.40625,-0.078125,0.890625
1631192930750,0.421875,-0.078125,0.890625
1631192930781,0.421875,-0.078125,0.890625
1631192930812,0.40625,-0.09375,0.890625
1631192930843,0.421875,-0.078125,0.890625
1631192930875,0.421875,-0.09375,0.890625
1631192930906,0.421875,-0.078125,0.890625
1631192930937,0.421875,-0.078125,0.890625
1631192930968,0.4375,-0.078125,0.90625
1631192931000,0.390625,-0.078125,0.890625
1631192931031,0.4375,-0.078125,0.890625
1631192931062,0.40625,-0.078125,0.890625
1631192931093,0.4375,-0.09375,0.875
1631192931125,0.40625,-0.078125,0.875
1631192931156,0.40625,-0.078125,0.890625
1631192931187,0.421875,-0.09375,0.890625
1631192931218,0.40625,-0.09375,0.890625
1631192931250,0.421875,-0.09375,0.890625
1631192931281,0.421875,-0.09375,0.890625
1631192931312,0.40625,-0.09375,0.890625
1631192931343,0.40625,-0.09375,0.890625
1631192931375,0.421875,-0.09375,0.90625
1631192931406,0.40625,-0.078125,0.890625
1631192931437,0.421875,-0.09375,0.890625
1631192931468,0.40625,-0.09375,0.890625
1631192931500,0.40625,-0.09375,0.890625
1631192931531,0.40625,-0.09375,0.890625
1631192931562,0.40625,-0.09375,0.890625
1631192931593,0.390625,-0.09375,0.890625
1631192931625,0.390625,-0.09375,0.90625
1631192931656,0.390625,-0.09375,0.90625
1631192931687,0.390625,-0.09375,0.90625
1631192931718,0.40625,-0.09375,0.890625
1631192931750,0.40625,-0.09375,0.890625
1631192931781,0.40625,-0.09375,0.890625
1631192931812,0.40625,-0.09375,0.890625
1631192931843,0.40625,-0.09375,0.90625
1631192931875,0.390625,-0.109375,0.890625
1631192931906,0.390625,-0.09375,0.890625
1631192931937,0.40625,-0.09375,0.890625
1631192931968,0.40625,-0.09375,0.90625
1631192932000,0.40625,-0.09375,0.890625
1631192932031,0.40625,-0.09375,0.890625
1631192932062,0.390625,-0.09375,0.90625
1631192932093,0.390625,-0.109375,0.90625
1631192932125,0.421875,-0.09375,0.890625
1631192932156,0.4375,-0.09375,0.875
1631192932187,0.390625,-0.09375,0.890625
1631192932218,0.40625,-0.09375,0.890625
1631192932250,0.421875,-0.109375,0.890625
1631192932281,0.421875,-0.109375,0.890625
1631192932312,0.421875,-0.109375,0.890625
1631192932343,0.40625,-0.09375,0.90625
1631192932375,0.4375,-0.09375,0.875
1631192932406,0.4375,-0.078125,0.90625
1631192932437,0.421875,-0.125,0.875
1631192932468,0.421875,-0.109375,0.875
1631192932500,0.40625,-0.109375,0.90625
1631192932531,0.421875,-0.109375,0.875
1631192932562,0.453125,-0.109375,0.875
1631192932593,0.453125,-0.109375,0.859375
1631192932625,0.453125,-0.109375,0.875
1631192932656,0.4375,-0.109375,0.875
1631192932687,0.4375,-0.109375,0.875
1631192932718,0.4375,-0.109375,0.875
1631192932750,0.453125,-0.109375,0.875
1631192932781,0.4375,-0.109375,0.875
1631192932812,0.453125,-0.109375,0.875
1631192932843,0.453125,-0.109375,0.875
1631192932875,0.453125,-0.109375,0.875
1631192932906,0.4375,-0.109375,0.875
1631192932937,0.4375,-0.109375,0.875
1631192932968,0.4375,-0.109375,0.875
1631192933000,0.4375,-0.109375,0.875
1631192933031,0.4375,-0.109375,0.875
1631192933062,0.4375,-0.109375,0.875
1631192933093,0.4375,-0.109375,0.875
1631192933125,0.4375,-0.109375,0.875
1631192933156,0.4375,-0.109375,0.875
1631192933187,0.4375,-0.109375,0.875
1631192933218,0.4375,-0.109375,0.875
1631192933250,0.4375,-0.109375,0.875
1631192933281,0.4375,-0.109375,0.875
1631192933312,0.4375,-0.109375,0.875
1631192933343,0.4375,-0.109375,0.875
1631192933375,0.4375,-0.109375,0.875
1631192933406,0.4375,-0.109375,0.875
1631192933437,0.4375,-0.109375,0.875
1631192933468,0.453125,-0.109375,0.875
1631192933500,0.453125,-0.109375,0.875
1631192933531,0.453125,-0.109375,0.875
1631192933562,0.4375,-0.109375,0.875
1631192933593,0.453125,-0.109375,0.875
1631192933625,0.4375,-0.109375,0.875
1631192933656,0.4375,-0.109375,0.875
1631192933687,0.4375,-0.109375,0.875
1631192933718,0.453125,-0.109375,0.875
1631192933750,0.453125,-0.109375,0.875
1631192933781,0.4375,-0.109375,0.875
1631192933812,0.4375,-0.109375,0.875
1631192933843,0.4375,-0.109375,0.875
1631192933875,0.453125,-0.109375,0.875
1631192933906,0.4375,-0.109375,0.875
1631192933937,0.4375,-0.109375,0.875
1631192933968,0.453125,-0.109375,0.875
1631192934000,0.453125,-0.109375,0.875
1631192934031,0.453125,-0.109375,0.875
1631192934062,0.4375,-0.109375,0.875
1631192934093,0.4375,-0.109375,0.875
1631192934125,0.4375,-0.109375,0.875
1631192934156,0.453125,-0.109375,0.875
1631192934187,0.453125,-0.109375,0.875
1631192934218,0.4375,-0.109375,0.875
1631192934250,0.4375,-0.109375,0.875
1631192934281,0.4375,-0.109375,0.875
1631192934312,0.453125,-0.109375,0.875
1631192934343,0.453125,-0.109375,0.875
1631192934375,0.453125,-0.109375,0.875
1631192934406,0.4375,-0.109375,0.875
1631192934437,0.4375,-0.109375,0.875
1631192934468,0.4375,-0.109375,0.875
1631192934500,0.453125,-0.109375,0.875
1631192934531,0.453125,-0.109375,0.875
1631192934562,0.453125,-0.109375,0.875
1631192934593,0.4375,-0.109375,0.875
1631192934625,0.453125,-0.109375,0.875
1631192934656,0.453125,-0.109375,0.875
1631192934687,0.4375,-0.109375,0.875
1631192934718,0.453125,-0.109375,0.875
1631192934750,0.4375,-0.109375,0.875
1631192934781,0.453125,-0.109375,0.875
1631192934812,0.453125,-0.109375,0.875
1631192934843,0.453125,-0.109375,0.875
1631192934875,0.453125,-0.109375,0.875
1631192934906,0.453125,-0.109375,0.875
1631192934937,0.453125,-0.109375,0.875
1631192934968,0.453125,-0.109375,0.875
1631192935000,0.4375,-0.109375,0.875
1631192935031,0.453125,-0.109375,0.875
1631192935062,0.453125,-0.109375,0.875
1631192935093,0.453125,-0.109375,0.875
1631192935125,0.453125,-0.109375,0.875
1631192935156,0.453125,-0.109375,0.875
1631192935187,0.453125,-0.109375,0.875
1631192935218,0.453125,-0.109375,0.875
1631192935250,0.453125,-0.109375,0.875
1631192935281,0.453125,-0.109375,0.875
1631192935312,0.4375,-0.109375,0.875
1631192935343,0.453125,-0.109375,0.875
1631192935375,0.453125,-0.109375,0.875
1631192935406,0.4375,-0.109375,0.875
1631192935437,0.4375,-0.109375,0.875
1631192935468,0.453125,-0.109375,0.875
1631192935500,0.453125,-0.109375,0.875
1631192935531,0.453125,-0.109375,0.875
1631192935562,0.4375,-0.109375,0.875
1631192935593,0.453125,-0.109375,0.875
1631192935625,0.453125,-0.109375,0.875
1631192935656,0.4375,-0.109375,0.875
1631192935687,0.453125,-0.109375,0.875
1631192935718,0.453125,-0.109375,0.875
1631192935750,0.453125,-0.109375,0.875
1631192935781,0.453125,-0.109375,0.875
1631192935812,0.453125,-0.109375,0.875
1631192935843,0.453125,-0.109375,0.875
1631192935875,0.453125,-0.109375,0.875
1631192935906,0.453125,-0.125,0.875
1631192935937,0.453125,-0.109375,0.875
1631192935968,0.453125,-0.109375,0.875
1631192936000,0.453125,-0.109375,0.875
1631192936031,0.453125,-0.109375,0.875
1631192936062,0.453125,-0.109375,0.875
1631192936093,0.453125,-0.109375,0.875
1631192936125,0.4375,-0.109375,0.875
1631192936156,0.453125,-0.109375,0.875
1631192936187,0.4375,-0.109375,0.875
1631192936218,0.453125,-0.109375,0.875
1631192936250,0.4375,-0.109375,0.875
1631192936281,0.453125,-0.109375,0.875
1631192936312,0.453125,-0.109375,0.875
1631192936343,0.453125,-0.109375,0.875
1631192936375,0.4375,-0.109375,0.875
1631192936406,0.4375,-0.109375,0.875
1631192936437,0.4375,-0.109375,0.875
1631192936468,0.4375,-0.109375,0.875
1631192936500,0.453125,-0.109375,0.875
1631192936531,0.4375,-0.109375,0.875
1631192936562,0.4375,-0.109375,0.875
1631192936593,0.4375,-0.109375,0.875
1631192936625,0.453125,-0.109375,0.875
1631192936656,0.4375,-0.109375,0.875
1631192936687,0.4375,-0.109375,0.875
1631192936718,0.4375,-0.109375,0.875
1631192936750,0.4375,-0.109375,0.875
1631192936781,0.4375,-0.109375,0.875
1631192936812,0.4375,-0.109375,0.875
1631192936843,0.4375,-0.109375,0.875
1631192936875,0.4375,-0.109375,0.875
1631192936906,0.4375,-0.109375,0.875
1631192936937,0.4375,-0.109375,0.875
1631192936968,0.4375,-0.109375,0.875
1631192937000,0.4375,-0.109375,0.875
1631192937031,0.4375,-0.109375,0.875
1631192937062,0.4375,-0.109375,0.875
1631192937093,0.4375,-0.109375,0.875
1631192937125,0.4375,-0.109375,0.875
1631192937156,0.4375,-0.109375,0.875
1631192937187,0.4375,-0.109375,0.875
1631192937218,0.4375,-0.109375,0.875
1631192937250,0.4375,-0.109375,0.875
1631192937281,0.4375,-0.109375,0.875
1631192937312,0.4375,-0.109375,0.875
1631192937343,0.4375,-0.109375,0.875
1631192937375,0.4375,-0.109375,0.875
1631192937406,0.4375,-0.109375,0.875
1631192937437,0.4375,-0.109375,0.875
1631192937468,0.4375,-0.109375,0.875
1631192937500,0.4375,-0.109375,0.875
1631192937531,0.4375,-0.109375,0.875
1631192937562,0.4375,-0.109375,0.875
1631192937593,0.4375,-0.109375,0.875
1631192937625,0.4375,-0.109375,0.875
1631192937656,0.4375,-0.109375,0.875
1631192937687,0.4375,-0.109375,0.875
1631192937718,0.4375,-0.109375,0.875
1631192937750,0.4375,-0.109375,0.875
1631192937781,0.4375,-0.109375,0.875
1631192937812,0.4375,-0.109375,0.875
1631192937843,0.4375,-0.109375,0.875
1631192937875,0.4375,-0.109375,0.875
1631192937906,0.4375,-0.109375,0.875
1631192937937,0.4375,-0.109375,0.875
1631192937968,0.4375,-0.109375,0.875
1631192938000,0.4375,-0.109375,0.875
1631192938031,0.4375,-0.109375,0.875
1631192938062,0.4375,-0.109375,0.875
1631192938093,0.4375,-0.109375,0.875
1631192938125,0.4375,-0.109375,0.875
1631192938156,0.4375,-0.109375,0.875
1631192938187,0.4375,-0.109375,0.875
1631192938218,0.4375,-0.109375,0.875
1631192938250,0.4375,-0.109375,0.875
1631192938281,0.4375,-0.109375,0.875
1631192938312,0.4375,-0.109375,0.875
1631192938343,0.4375,-0.109375,0.875
1631192938375,0.4375,-0.109375,0.875
1631192938406,0.4375,-0.109375,0.875
1631192938437,0.4375,-0.109375,0.875
1631192938468,0.4375,-0.109375,0.875
1631192938500,0.4375,-0.109375,0.875
1631192938531,0.4375,-0.109375,0.875
1631192938562,0.4375,-0.109375,0.875
1631192938593,0.4375,-0.109375,0.875
1631192938625,0.4375,-0.109375,0.875
1631192938656,0.4375,-0.109375,0.875
1631192938687,0.4375,-0.109375,0.875
1631192938718,0.4375,-0.109375,0.875
1631192938750,0.4375,-0.109375,0.875
1631192938781,0.4375,-0.109375,0.875
1631192938812,0.4375,-0.109375,0.875
1631192938843,0.4375,-0.109375,0.875
1631192938875,0.4375,-0.109375,0.875
1631192938906,0.4375,-0.109375,0.875
1631192938937,0.4375,-0.109375,0.875
1631192938968,0.4375,-0.109375,0.875
1631192939000,0.4375,-0.109375,0.875
1631192939031,0.4375,-0.109375,0.875
1631192939062,0.4375,-0.109375,0.875
1631192939093,0.4375,-0.109375,0.875
1631192939125,0.4375,-0.109375,0.875
1631192939156,0.4375,-0.109375,0.875
1631192939187,0.453125,-0.109375,0.875
1631192939218,0.4375,-0.109375,0.875
1631192939250,0.4375,-0.109375,0.875
1631192939281,0.4375,-0.109375,0.875
1631192939312,0.4375,-0.109375,0.875
1631192939343,0.4375,-0.109375,0.875
1631192939375,0.4375,-0.109375,0.875
1631192939406,0.4375,-0.109375,0.875
1631192939437,0.4375,-0.109375,0.875
1631192939468,0.4375,-0.109375,0.875
1631192939500,0.4375,-0.109375,0.875
1631192939531,0.4375,-0.109375,0.875
1631192939562,0.4375,-0.109375,0.875
1631192939593,0.4375,-0.109375,0.875
1631192939625,0.4375,-0.109375,0.875
1631192939656,0.4375,-0.109375,0.875
1631192939687,0.4375,-0.109375,0.875
1631192939718,0.4375,-0.109375,0.875
1631192939750,0.4375,-0.109375,0.875
1631192939781,0.4375,-0.109375,0.875
1631192939812,0.4375,-0.109375,0.875
1631192939843,0.4375,-0.109375,0.875
1631192939875,0.4375,-0.109375,0.875
1631192939906,0.4375,-0.109375,0.875
1631192939937,0.4375,-0.109375,0.875
1631192939968,0.4375,-0.109375,0.875
1631192940000,0.4375,-0.109375,0.875
1631192940031,0.4375,-0.109375,0.875
1631192940062,0.4375,-0.109375,0.875
1631192940093,0.4375,-0.109375,0.875
1631192940125,0.4375,-0.109375,0.875
1631192940156,0.4375,-0.109375,0.875
1631192940187,0.4375,-0.109375,0.875
1631192940218,0.4375,-0.109375,0.875
1631192940250,0.4375,-0.109375,0.875
1631192940281,0.4375,-0.109375,0.875
1631192940312,0.4375,-0.109375,0.890625
1631192940343,0.4375,-0.109375,0.875
1631192940375,0.4375,-0.109375,0.875
1631192940406,0.4375,-0.109375,0.875
1631192940437,0.453125,-0.109375,0.875
1631192940468,0.4375,-0.109375,0.875
1631192940500,0.4375,-0.109375,0.890625
1631192940531,0.453125,-0.109375,0.875
1631192940562,0.453125,-0.109375,0.875
1631192940593,0.4375,-0.109375,0.875
1631192940625,0.453125,-0.125,0.875
1631192940656,0.421875,-0.109375,0.875
1631192940687,0.421875,-0.109375,0.875
1631192940718,0.421875,-0.109375,0.875
1631192940750,0.4375,-0.109375,0.890625
1631192940781,0.421875,-0.09375,0.890625
1631192940812,0.46875,-0.109375,0.859375
1631192940843,0.46875,-0.09375,0.84375
1631192940875,0.5,-0.109375,0.84375
1631192940906,0.5,-0.125,0.8125
1631192940937,0.390625,-0.171875,0.875
1631192940968,0.28125,-0.171875,0.90625
1631192941000,0.265625,-0.1875,0.953125
1631192941031,0.28125,-0.171875,0.953125
1631192941062,0.296875,-0.1875,0.9375
1631192941093,0.3125,-0.1875,0.921875
1631192941125,0.3125,-0.203125,0.921875
1631192941156,0.296875,-0.203125,0.921875
1631192941187,0.3125,-0.171875,0.921875
1631192941218,0.34375,-0.140625,0.90625
1631192941250,0.328125,-0.15625,0.890625
1631192941281,0.34375,-0.1875,0.90625
1631192941312,0.296875,-0.1875,0.90625
1631192941343,0.3125,-0.203125,0.921875
1631192941375,0.28125,-0.21875,0.9375
1631192941406,0.265625,-0.203125,0.9375
1631192941437,0.28125,-0.203125,0.9375
1631192941468,0.296875,-0.203125,0.9375
1631192941500,0.296875,-0.203125,0.921875
1631192941531,0.3125,-0.1875,0.921875
1631192941562,0.296875,-0.1875,0.90625
1631192941593,0.28125,-0.171875,0.921875
1631192941625,0.296875,-0.171875,0.90625
1631192941656,0.296875,-0.1875,0.9375
1631192941687,0.28125,-0.1875,0.90625
1631192941718,0.3125,-0.15625,0.921875
1631192941750,0.28125,-0.171875,0.890625
1631192941781,0.296875,-0.171875,0.90625
1631192941812,0.28125,-0.171875,0.921875
1631192941843,0.28125,-0.1875,0.9375
1631192941875,0.3125,-0.1875,0.921875
1631192941906,0.28125,-0.203125,0.921875
1631192941937,0.234375,-0.203125,0.953125
1631192941968,0.171875,-0.1875,0.90625
1631192942000,0.203125,-0.1875,0.875
1631192942031,0.265625,-0.1875,0.828125
1631192942062,0.421875,-0.125,0.78125
1631192942093,0.5,-0.1875,0.9375
1631192942125,0.421875,-0.109375,0.890625
1631192942156,0.40625,-0.203125,0.890625
1631192942187,0.265625,-0.21875,1.015625
1631192942218,0.109375,-0.40625,1.078125
1631192942250,0.203125,-0.203125,0.921875
1631192942281,0.421875,-0.15625,0.90625
1631192942312,0.4375,-0.15625,0.90625
1631192942343,0.40625,-0.15625,0.8125
1631192942375,0.390625,-0.203125,0.84375
1631192942406,0.296875,-0.296875,0.921875
1631192942437,0.28125,-0.234375,0.9375
1631192942468,0.34375,-0.234375,0.953125
1631192942500,0.421875,-0.28125,0.890625
1631192942531,0.28125,-0.234375,0.96875
1631192942562,0.265625,-0.203125,0.921875
1631192942593,0.34375,-0.203125,0.921875
1631192942625,0.3125,-0.203125,0.90625
1631192942656,0.265625,-0.21875,0.921875
1631192942687,0.25,-0.203125,0.9375
1631192942718,0.25,-0.203125,0.921875
1631192942750,0.265625,-0.203125,0.9375
1631192942781,0.234375,-0.1875,0.921875
1631192942812,0.25,-0.1875,0.90625
1631192942843,0.234375,-0.1875,0.921875
1631192942875,0.234375,-0.203125,0.921875
1631192942906,0.234375,-0.203125,0.9375
1631192942937,0.25,-0.203125,0.9375
1631192942968,0.234375,-0.1875,0.9375
1631192943000,0.265625,-0.203125,0.9375
1631192943031,0.234375,-0.1875,0.9375
1631192943062,0.203125,-0.1875,0.9375
