timestamp,ax,ay,az
1629797528093,-0.96875,-0.28125,0.09375
1629797528125,-0.953125,-0.28125,0.09375
1629797528156,-0.953125,-0.28125,0.078125
1629797528187,-0.953125,-0.28125,0.09375
1629797528218,-0.953125,-0.28125,0.078125
1629797528250,-0.96875,-0.28125,0.09375
1629797528281,-0.953125,-0.28125,0.09375
1629797528312,-0.96875,-0.28125,0.09375
1629797528343,-0.96875,-0.28125,0.09375
1629797528375,-0.96875,-0.28125,0.09375
1629797528406,-0.953125,-0.28125,0.09375
1629797528437,-0.9375,-0.28125,0.109375
1629797528468,-0.953125,-0.28125,0.09375
1629797528500,-0.96875,-0.28125,0.078125
1629797528531,-0.984375,-0.28125,0.078125
1629797528562,-0.984375,-0.265625,0.0625
1629797528593,-0.953125,-0.28125,0.078125
1629797528625,-0.875,-0.265625,0.15625
1629797528656,-1.015625,-0.28125,0.078125
1629797528687,-1.015625,-0.28125,0.0625
1629797528718,-0.96875,-0.265625,0.0625
1629797528750,-0.96875,-0.265625,0.0625
1629797528781,-0.9375,-0.265625,0.09375
1629797528812,-0.953125,-0.265625,0.078125
1629797528843,-0.984375,-0.265625,0.0625
1629797528875,-0.953125,-0.265625,0.0625
1629797528906,-0.921875,-0.265625,0.0625
1629797528937,-0.9375,-0.265625,0.078125
1629797528968,-1.0,-0.234375,0.03125
1629797529000,-1.0,-0.25,0.015625
1629797529031,-0.953125,-0.265625,0.03125
1629797529062,-0.953125,-0.265625,0.03125
1629797529093,-0.96875,-0.28125,0.015625
1629797529125,-0.96875,-0.28125,0.0
1629797529156,-1.0,-0.28125,-0.015625
1629797529187,-0.96875,-0.296875,-0.015625
1629797529218,-0.953125,-0.296875,0.0
1629797529250,-0.96875,-0.296875,-0.015625
1629797529281,-0.96875,-0.28125,0.0
1629797529312,-0.984375,-0.296875,-0.015625
1629797529343,-0.96875,-0.28125,0.0
1629797529375,-0.953125,-0.265625,0.015625
1629797529406,-0.984375,-0.28125,0.015625
1629797529437,-1.0,-0.28125,-0.015625
1629797529468,-1.015625,-0.25,0.0
1629797529500,-1.015625,-0.25,0.046875
1629797529531,-1.015625,-0.234375,0.125
1629797529562,-1.046875,-0.234375,0.15625
1629797529593,-1.109375,-0.234375,0.171875
1629797529625,-1.140625,-0.21875,0.1875
1629797529656,-1.203125,-0.234375,0.1875
1629797529687,-0.984375,-0.234375,0.28125
1629797529718,-0.953125,-0.21875,0.296875
1629797529750,-1.0,-0.171875,0.296875
1629797529781,-0.96875,-0.125,0.328125
1629797529812,-0.90625,-0.109375,0.375
1629797529843,-0.828125,-0.078125,0.4375
1629797529875,-0.875,-0.046875,0.40625
1629797529906,-0.828125,0.03125,0.453125
1629797529937,-0.859375,0.109375,0.453125
1629797529968,-0.921875,0.15625,0.40625
1629797530000,-0.796875,0.203125,0.359375
1629797530031,-0.78125,0.21875,0.34375
1629797530062,-0.78125,0.296875,0.34375
1629797530093,-0.8125,0.3125,0.3125
1629797530125,-0.78125,0.328125,0.328125
1629797530156,-0.71875,0.359375,0.34375
1629797530187,-0.640625,0.359375,0.296875
1629797530218,-0.71875,0.359375,0.296875
1629797530250,-0.8125,0.328125,0.203125
1629797530281,-0.84375,0.34375,0.21875
1629797530312,-0.921875,0.265625,0.328125
1629797530343,-0.953125,0.25,0.328125
1629797530375,-0.9375,0.265625,0.328125
1629797530406,-0.921875,0.265625,0.421875
1629797530437,-1.078125,0.1875,0.515625
1629797530468,-0.890625,0.1875,0.546875
1629797530500,-0.65625,0.203125,0.5625
1629797530531,-0.65625,0.203125,0.546875
1629797530562,-0.828125,0.15625,0.65625
1629797530593,-0.890625,0.109375,0.703125
1629797530625,-0.671875,0.125,0.6875
1629797530656,-0.703125,0.171875,0.65625
1629797530687,-0.75,0.203125,0.640625
1629797530718,-0.734375,0.234375,0.640625
1629797530750,-0.71875,0.234375,0.640625
1629797530781,-0.734375,0.21875,0.671875
1629797530812,-0.734375,0.1875,0.6875
1629797530843,-0.703125,0.15625,0.6875
1629797530875,-0.6875,0.125,0.6875
1629797530906,-0.6875,0.125,0.6875
1629797530937,-0.6875,0.140625,0.6875
1629797530968,-0.703125,0.140625,0.6875
1629797531000,-0.703125,0.15625,0.6875
1629797531031,-0.71875,0.140625,0.671875
1629797531062,-0.703125,0.140625,0.6875
1629797531093,-0.703125,0.125,0.6875
1629797531125,-0.703125,0.109375,0.703125
1629797531156,-0.703125,0.125,0.6875
1629797531187,-0.703125,0.109375,0.6875
1629797531218,-0.703125,0.109375,0.6875
1629797531250,-0.703125,0.09375,0.6875
1629797531281,-0.6875,0.09375,0.703125
1629797531312,-0.6875,0.09375,0.6875
1629797531343,-0.6875,0.078125,0.703125
1629797531375,-0.6875,0.078125,0.703125
1629797531406,-0.6875,0.078125,0.703125
1629797531437,-0.6875,0.09375,0.703125
1629797531468,-0.6875,0.078125,0.71875
1629797531500,-0.671875,0.078125,0.71875
1629797531531,-0.6875,0.078125,0.703125
1629797531562,-0.671875,0.078125,0.703125
1629797531593,-0.671875,0.078125,0.71875
1629797531625,-0.65625,0.078125,0.71875
1629797531656,-0.671875,0.078125,0.71875
1629797531687,-0.671875,0.078125,0.71875
1629797531718,-0.671875,0.09375,0.71875
1629797531750,-0.671875,0.09375,0.71875
1629797531781,-0.671875,0.09375,0.71875
1629797531812,-0.671875,0.09375,0.71875
1629797531843,-0.671875,0.09375,0.734375
1629797531875,-0.671875,0.09375,0.734375
1629797531906,-0.671875,0.09375,0.734375
1629797531937,-0.671875,0.109375,0.71875
1629797531968,-0.671875,0.125,0.71875
1629797532000,-0.6875,0.125,0.71875
1629797532031,-0.703125,0.109375,0.71875
1629797532062,-0.671875,0.125,0.75
1629797532093,-0.671875,0.15625,0.6875
1629797532125,-0.6875,0.140625,0.703125
1629797532156,-0.65625,0.140625,0.734375
1629797532187,-0.640625,0.125,0.734375
1629797532218,-0.65625,0.125,0.703125
1629797532250,-0.625,0.09375,0.734375
1629797532281,-0.625,0.09375,0.734375
1629797532312,-0.640625,0.109375,0.71875
1629797532343,-0.640625,0.109375,0.703125
1629797532375,-0.65625,0.109375,0.71875
1629797532406,-0.625,0.140625,0.765625
1629797532437,-0.609375,0.140625,0.84375
1629797532468,-0.703125,0.09375,0.828125
1629797532500,-0.671875,0.125,0.734375
1629797532531,-0.609375,0.140625,0.71875
1629797532562,-0.625,0.125,0.734375
1629797532593,-0.625,0.140625,0.734375
1629797532625,-0.671875,0.140625,0.734375
1629797532656,-0.640625,0.15625,0.75
1629797532687,-0.609375,0.171875,0.78125
1629797532718,-0.640625,0.171875,0.796875
1629797532750,-0.609375,0.1875,0.765625
1629797532781,-0.625,0.171875,0.796875
1629797532812,-0.625,0.1875,0.765625
1629797532843,-0.609375,0.1875,0.71875
1629797532875,-0.578125,0.1875,0.703125
1629797532906,-0.578125,0.1875,0.703125
1629797532937,-0.59375,0.15625,0.734375
1629797532968,-0.609375,0.125,0.75
1629797533000,-0.609375,0.109375,0.75
1629797533031,-0.625,0.125,0.765625
1629797533062,-0.609375,0.125,0.78125
1629797533093,-0.578125,0.140625,0.78125
1629797533125,-0.5625,0.140625,0.796875
1629797533156,-0.5625,0.140625,0.8125
1629797533187,-0.5625,0.140625,0.8125
1629797533218,-0.5625,0.140625,0.8125
1629797533250,-0.53125,0.140625,0.8125
1629797533281,-0.53125,0.140625,0.828125
1629797533312,-0.515625,0.140625,0.8125
1629797533343,-0.53125,0.125,0.828125
1629797533375,-0.53125,0.125,0.828125
1629797533406,-0.53125,0.125,0.828125
1629797533437,-0.515625,0.125,0.828125
1629797533468,-0.515625,0.125,0.828125
1629797533500,-0.53125,0.140625,0.8125
1629797533531,-0.515625,0.125,0.828125
1629797533562,-0.53125,0.125,0.828125
1629797533593,-0.53125,0.125,0.828125
1629797533625,-0.53125,0.125,0.828125
1629797533656,-0.515625,0.125,0.828125
1629797533687,-0.515625,0.125,0.828125
1629797533718,-0.515625,0.125,0.828125
1629797533750,-0.53125,0.125,0.828125
1629797533781,-0.546875,0.140625,0.8125
1629797533812,-0.53125,0.140625,0.796875
1629797533843,-0.59375,0.09375,0.828125
1629797533875,-0.640625,0.0625,0.796875
1629797533906,-0.796875,0.015625,0.703125
1629797533937,-0.703125,0.078125,0.59375
1629797533968,-0.671875,0.078125,0.53125
1629797534000,-0.6875,0.109375,0.53125
1629797534031,-0.71875,0.109375,0.53125
1629797534062,-0.625,0.09375,0.640625
1629797534093,-0.5625,0.109375,0.75
1629797534125,-0.578125,0.109375,0.765625
1629797534156,-0.421875,0.125,0.84375
1629797534187,-0.515625,0.0625,0.859375
1629797534218,-0.5625,-0.03125,1.0625
1629797534250,-0.59375,-0.015625,1.0
1629797534281,-0.5625,0.03125,0.890625
1629797534312,-0.859375,0.0,0.59375
1629797534343,-0.890625,0.046875,0.578125
1629797534375,-0.71875,0.015625,0.65625
1629797534406,-0.65625,0.125,0.484375
1629797534437,-0.796875,0.046875,0.5
1629797534468,-0.84375,0.03125,0.625
1629797534500,-0.84375,0.078125,0.625
1629797534531,-0.90625,0.046875,0.65625
1629797534562,-0.859375,0.0,0.671875
1629797534593,-0.828125,-0.03125,0.703125
1629797534625,-0.984375,-0.140625,0.796875
1629797534656,-0.890625,-0.140625,0.734375
1629797534687,-0.8125,-0.15625,0.75
1629797534718,-0.6875,-0.265625,0.890625
1629797534750,-0.6875,-0.265625,0.890625
1629797534781,-0.59375,-0.21875,0.859375
1629797534812,-0.59375,-0.28125,0.796875
1629797534843,-0.609375,-0.296875,0.796875
1629797534875,-0.5,-0.3125,0.796875
1629797534906,-0.546875,-0.234375,0.75
1629797534937,-0.40625,-0.171875,0.75
1629797534968,-0.34375,-0.3125,0.828125
1629797535000,-0.3125,-0.171875,0.9375
1629797535031,-0.296875,-0.015625,0.90625
1629797535062,-0.3125,0.015625,0.90625
1629797535093,-0.421875,0.046875,0.84375
1629797535125,-0.578125,0.046875,0.78125
1629797535156,-0.609375,0.046875,0.734375
1629797535187,-0.578125,0.0625,0.71875
1629797535218,-0.5625,0.078125,0.703125
1629797535250,-0.65625,0.109375,0.65625
1629797535281,-0.734375,0.109375,0.703125
1629797535312,-0.71875,0.125,0.671875
1629797535343,-0.671875,0.078125,0.6875
1629797535375,-0.640625,0.0625,0.703125
1629797535406,-0.6875,0.03125,0.734375
1629797535437,-0.75,0.140625,0.71875
1629797535468,-0.78125,0.15625,0.6875
1629797535500,-0.78125,0.1875,0.640625
1629797535531,-0.609375,0.109375,0.59375
1629797535562,-0.796875,0.1875,0.5
1629797535593,-0.75,0.125,0.5625
1629797535625,-0.6875,0.078125,0.609375
1629797535656,-0.65625,0.09375,0.53125
1629797535687,-0.703125,0.09375,0.484375
1629797535718,-0.71875,0.078125,0.46875
1629797535750,-0.78125,0.078125,0.453125
1629797535781,-0.828125,0.078125,0.453125
1629797535812,-0.859375,0.09375,0.453125
1629797535843,-0.875,0.109375,0.484375
1629797535875,-0.90625,0.125,0.453125
1629797535906,-0.96875,0.15625,0.4375
1629797535937,-1.0,0.171875,0.421875
1629797535968,-1.078125,0.171875,0.375
1629797536000,-1.015625,0.125,0.390625
1629797536031,-0.984375,0.09375,0.375
1629797536062,-0.96875,0.078125,0.328125
1629797536093,-0.921875,0.078125,0.3125
1629797536125,-0.90625,0.078125,0.3125
1629797536156,-0.921875,0.0625,0.296875
1629797536187,-0.921875,0.078125,0.3125
1629797536218,-0.921875,0.078125,0.328125
1629797536250,-0.953125,0.09375,0.328125
1629797536281,-0.953125,0.09375,0.34375
1629797536312,-0.96875,0.09375,0.3125
1629797536343,-0.984375,0.109375,0.265625
1629797536375,-0.984375,0.109375,0.296875
1629797536406,-0.96875,0.109375,0.3125
1629797536437,-0.9375,0.109375,0.328125
1629797536468,-0.921875,0.109375,0.359375
1629797536500,-0.921875,0.078125,0.34375
1629797536531,-0.96875,0.078125,0.375
1629797536562,-0.96875,-0.09375,0.375
1629797536593,-0.9375,-0.375,0.34375
1629797536625,-0.875,0.0625,0.09375
1629797536656,-0.859375,0.0,0.234375
1629797536687,-0.953125,-0.015625,0.234375
1629797536718,-0.9375,0.0,0.265625
1629797536750,-0.9375,0.109375,0.1875
1629797536781,-1.046875,-0.015625,0.09375
1629797536812,-1.28125,0.375,0.0
1629797536843,-0.703125,0.109375,0.171875
1629797536875,-0.53125,0.390625,0.421875
1629797536906,-0.796875,0.234375,0.359375
1629797536937,-0.953125,0.375,0.265625
1629797536968,-1.0,0.390625,0.296875
1629797537000,-0.984375,0.421875,0.3125
1629797537031,-0.96875,0.390625,0.328125
1629797537062,-0.96875,0.34375,0.3125
1629797537093,-1.015625,0.3125,0.28125
1629797537125,-0.96875,0.234375,0.296875
1629797537156,-0.96875,0.21875,0.3125
1629797537187,-0.921875,0.1875,0.359375
1629797537218,-0.890625,0.1875,0.359375
1629797537250,-0.859375,0.203125,0.359375
1629797537281,-0.84375,0.21875,0.328125
1629797537312,-0.8125,0.234375,0.34375
1629797537343,-0.828125,0.25,0.34375
1629797537375,-0.875,0.25,0.328125
1629797537406,-0.953125,0.25,0.265625
1629797537437,-1.015625,0.234375,0.265625
1629797537468,-0.984375,0.21875,0.28125
1629797537500,-1.078125,0.109375,0.28125
1629797537531,-1.078125,0.0625,0.265625
1629797537562,-1.0,0.046875,0.28125
1629797537593,-0.96875,0.109375,0.28125
1629797537625,-0.921875,0.09375,0.265625
1629797537656,-1.0,0.109375,0.28125
1629797537687,-1.0,0.0625,0.234375
1629797537718,-1.0625,0.078125,0.234375
1629797537750,-0.984375,0.109375,0.265625
1629797537781,-0.984375,0.125,0.234375
1629797537812,-0.953125,0.21875,0.125
1629797537843,-0.96875,0.171875,0.296875
1629797537875,-0.921875,0.171875,0.265625
1629797537906,-1.15625,0.265625,0.25
1629797537937,-1.046875,0.265625,0.359375
1629797537968,-0.78125,0.3125,0.625
1629797538000,-0.828125,0.375,0.59375
1629797538031,-0.796875,0.390625,0.5625
1629797538062,-0.71875,0.421875,0.515625
1629797538093,-0.703125,0.484375,0.5
1629797538125,-0.6875,0.546875,0.453125
1629797538156,-0.546875,0.546875,0.3125
1629797538187,-0.59375,0.53125,0.203125
1629797538218,-0.828125,0.53125,0.09375
1629797538250,-0.734375,0.4375,0.25
1629797538281,-0.640625,0.34375,0.265625
1629797538312,-0.84375,0.21875,-0.078125
1629797538343,-1.109375,0.140625,-0.1875
1629797538375,-1.109375,0.078125,0.0625
1629797538406,-0.90625,0.015625,0.1875
1629797538437,-0.9375,0.015625,0.078125
1629797538468,-1.1875,-0.015625,0.125
1629797538500,-1.125,-0.015625,0.234375
1629797538531,-0.859375,-0.015625,0.359375
1629797538562,-1.03125,-0.046875,0.3125
1629797538593,-1.046875,-0.03125,0.34375
1629797538625,-0.9375,-0.046875,0.390625
1629797538656,-0.96875,-0.0625,0.421875
1629797538687,-0.890625,-0.109375,0.484375
1629797538718,-0.890625,-0.109375,0.53125
1629797538750,-0.953125,-0.109375,0.5625
1629797538781,-0.703125,-0.140625,0.6875
1629797538812,-0.65625,-0.109375,0.703125
1629797538843,-0.890625,-0.0625,0.5625
1629797538875,-0.4375,-0.109375,0.84375
1629797538906,-0.453125,-0.109375,0.8125
1629797538937,-0.5,-0.109375,0.75
1629797538968,-0.390625,0.03125,0.765625
1629797539000,-0.390625,0.09375,0.765625
1629797539031,-0.40625,0.21875,0.8125
1629797539062,-0.515625,0.25,0.828125
1629797539093,-0.375,0.203125,0.9375
1629797539125,-0.1875,0.15625,0.953125
1629797539156,-0.34375,0.0625,0.84375
1629797539187,-0.515625,-0.015625,1.125
1629797539218,-0.5,0.03125,1.015625
1629797539250,-0.390625,-0.15625,0.921875
1629797539281,-0.890625,-0.484375,0.75
1629797539312,-1.015625,-0.453125,0.75
1629797539343,-1.015625,-0.21875,0.6875
1629797539375,-0.90625,-0.0625,0.671875
1629797539406,-0.625,0.140625,0.78125
1629797539437,-0.421875,0.4375,0.703125
1629797539468,-0.4375,0.4375,0.78125
1629797539500,-0.421875,0.453125,0.671875
1629797539531,-0.390625,0.40625,0.65625
1629797539562,-0.265625,0.296875,0.765625
1629797539593,-0.09375,0.3125,0.78125
1629797539625,-0.203125,0.21875,0.828125
1629797539656,-0.515625,-0.078125,1.046875
1629797539687,-0.625,-0.1875,0.953125
1629797539718,-0.5625,-0.296875,0.96875
1629797539750,-0.28125,-0.484375,1.09375
1629797539781,-0.109375,-0.4375,1.125
1629797539812,-0.453125,-0.484375,1.109375
1629797539843,-0.453125,0.03125,1.078125
1629797539875,-0.28125,-0.3125,1.0625
1629797539906,-0.234375,0.046875,0.859375
1629797539937,-0.21875,0.125,0.78125
1629797539968,-0.46875,0.0625,0.65625
1629797540000,-0.703125,0.046875,0.71875
1629797540031,-0.578125,0.09375,0.828125
1629797540062,-0.390625,0.203125,0.84375
1629797540093,-0.5625,0.15625,0.8125
1629797540125,-0.734375,0.1875,0.78125
1629797540156,-0.5,0.21875,0.78125
1629797540187,-0.5625,0.21875,0.765625
1629797540218,-0.546875,0.265625,0.828125
1629797540250,-0.484375,0.28125,0.734375
1629797540281,-0.34375,0.265625,0.703125
1629797540312,-0.265625,0.234375,0.8125
1629797540343,-0.328125,0.25,0.78125
1629797540375,-0.40625,0.296875,0.875
1629797540406,-0.421875,0.25,0.765625
1629797540437,-0.421875,0.25,0.765625
1629797540468,-0.46875,0.234375,0.90625
1629797540500,-0.515625,0.234375,0.875
1629797540531,-0.515625,0.3125,0.875
1629797540562,-0.5,0.1875,0.921875
1629797540593,-0.4375,0.21875,0.953125
1629797540625,-0.46875,0.234375,0.90625
1629797540656,-0.484375,0.234375,0.859375
1629797540687,-0.421875,0.171875,0.859375
1629797540718,-0.3125,0.140625,0.828125
1629797540750,-0.3125,0.140625,0.8125
1629797540781,-0.3125,0.109375,0.8125
1629797540812,-0.296875,0.09375,0.8125
1629797540843,-0.265625,0.09375,0.8125
1629797540875,-0.265625,0.09375,0.828125
1629797540906,-0.25,0.109375,0.875
1629797540937,-0.25,0.109375,1.0
1629797540968,-0.28125,0.109375,1.046875
1629797541000,-0.3125,0.078125,1.03125
1629797541031,-0.359375,0.09375,1.03125
1629797541062,-0.34375,0.09375,1.0
1629797541093,-0.34375,0.109375,0.96875
1629797541125,-0.359375,0.078125,0.921875
1629797541156,-0.328125,0.0625,0.90625
1629797541187,-0.359375,0.0625,0.890625
1629797541218,-0.359375,0.0625,0.890625
1629797541250,-0.390625,0.078125,0.890625
1629797541281,-0.421875,0.0625,0.890625
1629797541312,-0.421875,0.0625,0.90625
1629797541343,-0.4375,0.0625,0.890625
1629797541375,-0.453125,0.046875,0.90625
1629797541406,-0.453125,0.0625,0.90625
1629797541437,-0.453125,0.0625,0.890625
1629797541468,-0.46875,0.046875,0.890625
1629797541500,-0.453125,0.0625,0.859375
1629797541531,-0.4375,0.0625,0.84375
1629797541562,-0.453125,0.078125,0.84375
1629797541593,-0.421875,0.125,0.859375
1629797541625,-0.453125,0.125,0.875
1629797541656,-0.5,0.046875,0.90625
1629797541687,-0.46875,0.015625,0.890625
1629797541718,-0.453125,0.03125,0.859375
1629797541750,-0.453125,0.078125,0.859375
1629797541781,-0.46875,0.0625,0.859375
1629797541812,-0.421875,0.0625,0.890625
1629797541843,-0.4375,0.0625,0.859375
1629797541875,-0.4375,0.0625,0.859375
1629797541906,-0.40625,0.046875,0.875
1629797541937,-0.421875,0.046875,0.875
1629797541968,-0.4375,0.015625,0.890625
1629797542000,-0.421875,0.015625,0.90625
1629797542031,-0.421875,0.015625,0.890625
1629797542062,-0.4375,0.046875,0.890625
1629797542093,-0.4375,0.046875,0.875
1629797542125,-0.4375,0.03125,0.890625
1629797542156,-0.453125,0.015625,0.875
1629797542187,-0.46875,0.015625,0.859375
1629797542218,-0.453125,0.03125,0.875
1629797542250,-0.46875,0.046875,0.875
1629797542281,-0.46875,0.03125,0.875
1629797542312,-0.46875,0.03125,0.875
1629797542343,-0.46875,0.046875,0.875
1629797542375,-0.46875,0.046875,0.875
1629797542406,-0.46875,0.046875,0.875
1629797542437,-0.46875,0.0625,0.875
1629797542468,-0.453125,0.0625,0.875
1629797542500,-0.453125,0.0625,0.875
1629797542531,-0.453125,0.0625,0.859375
1629797542562,-0.453125,0.046875,0.875
1629797542593,-0.453125,0.046875,0.875
1629797542625,-0.453125,0.046875,0.875
1629797542656,-0.453125,0.046875,0.859375
1629797542687,-0.453125,0.046875,0.875
1629797542718,-0.4375,0.03125,0.875
1629797542750,-0.453125,0.03125,0.875
1629797542781,-0.453125,0.015625,0.875
1629797542812,-0.453125,0.015625,0.875
1629797542843,-0.453125,0.015625,0.875
1629797542875,-0.453125,0.015625,0.875
1629797542906,-0.453125,0.015625,0.875
1629797542937,-0.453125,0.015625,0.875
1629797542968,-0.453125,0.015625,0.875
1629797543000,-0.453125,0.0,0.875
1629797543031,-0.46875,0.0,0.859375
1629797543062,-0.46875,-0.015625,0.875
1629797543093,-0.46875,-0.015625,0.859375
1629797543125,-0.46875,-0.015625,0.859375
1629797543156,-0.46875,-0.03125,0.859375
1629797543187,-0.46875,-0.03125,0.875
1629797543218,-0.46875,-0.03125,0.875
1629797543250,-0.46875,-0.046875,0.859375
1629797543281,-0.46875,-0.03125,0.859375
1629797543312,-0.46875,-0.03125,0.859375
1629797543343,-0.46875,-0.03125,0.875
1629797543375,-0.46875,-0.03125,0.875
1629797543406,-0.46875,-0.015625,0.875
1629797543437,-0.46875,0.0,0.859375
1629797543468,-0.46875,0.0,0.859375
1629797543500,-0.46875,0.0,0.875
1629797543531,-0.453125,0.015625,0.875
1629797543562,-0.453125,0.015625,0.859375
1629797543593,-0.453125,0.015625,0.859375
1629797543625,-0.453125,0.015625,0.859375
1629797543656,-0.46875,0.03125,0.875
1629797543687,-0.46875,0.03125,0.875
1629797543718,-0.453125,0.03125,0.875
1629797543750,-0.453125,0.03125,0.875
1629797543781,-0.46875,0.03125,0.875
1629797543812,-0.453125,0.046875,0.875
1629797543843,-0.453125,0.046875,0.875
1629797543875,-0.453125,0.046875,0.875
1629797543906,-0.453125,0.0625,0.875
1629797543937,-0.453125,0.0625,0.875
1629797543968,-0.453125,0.0625,0.875
1629797544000,-0.453125,0.078125,0.875
1629797544031,-0.453125,0.078125,0.875
1629797544062,-0.453125,0.09375,0.875
1629797544093,-0.4375,0.09375,0.875
1629797544125,-0.453125,0.09375,0.875
1629797544156,-0.453125,0.09375,0.875
1629797544187,-0.4375,0.09375,0.875
1629797544218,-0.453125,0.09375,0.875
1629797544250,-0.4375,0.09375,0.875
1629797544281,-0.453125,0.09375,0.875
1629797544312,-0.453125,0.09375,0.875
1629797544343,-0.453125,0.09375,0.875
1629797544375,-0.453125,0.078125,0.875
1629797544406,-0.453125,0.078125,0.875
1629797544437,-0.453125,0.078125,0.859375
1629797544468,-0.453125,0.078125,0.859375
1629797544500,-0.453125,0.078125,0.859375
1629797544531,-0.453125,0.078125,0.875
1629797544562,-0.453125,0.078125,0.875
1629797544593,-0.453125,0.078125,0.875
1629797544625,-0.453125,0.0625,0.875
1629797544656,-0.453125,0.0625,0.875
1629797544687,-0.453125,0.0625,0.875
1629797544718,-0.453125,0.0625,0.875
1629797544750,-0.453125,0.0625,0.875
1629797544781,-0.453125,0.046875,0.875
1629797544812,-0.453125,0.046875,0.875
1629797544843,-0.46875,0.046875,0.875
1629797544875,-0.453125,0.03125,0.875
1629797544906,-0.46875,0.03125,0.875
1629797544937,-0.46875,0.03125,0.875
1629797544968,-0.453125,0.03125,0.859375
1629797545000,-0.46875,0.03125,0.859375
1629797545031,-0.46875,0.03125,0.859375
1629797545062,-0.46875,0.03125,0.875
1629797545093,-0.46875,0.03125,0.859375
1629797545125,-0.46875,0.046875,0.875
1629797545156,-0.46875,0.046875,0.859375
1629797545187,-0.46875,0.046875,0.875
1629797545218,-0.46875,0.046875,0.875
1629797545250,-0.46875,0.046875,0.875
1629797545281,-0.46875,0.046875,0.859375
1629797545312,-0.46875,0.046875,0.859375
1629797545343,-0.46875,0.046875,0.859375
1629797545375,-0.46875,0.046875,0.859375
1629797545406,-0.46875,0.046875,0.859375
1629797545437,-0.46875,0.0625,0.875
1629797545468,-0.46875,0.0625,0.859375
1629797545500,-0.46875,0.0625,0.859375
1629797545531,-0.46875,0.0625,0.875
1629797545562,-0.46875,0.0625,0.859375
1629797545593,-0.46875,0.0625,0.875
1629797545625,-0.46875,0.0625,0.875
1629797545656,-0.46875,0.0625,0.859375
1629797545687,-0.46875,0.0625,0.859375
1629797545718,-0.46875,0.0625,0.875
1629797545750,-0.46875,0.0625,0.875
1629797545781,-0.46875,0.0625,0.875
1629797545812,-0.46875,0.0625,0.859375
1629797545843,-0.46875,0.0625,0.859375
1629797545875,-0.46875,0.0625,0.875
1629797545906,-0.46875,0.046875,0.875
1629797545937,-0.46875,0.0625,0.859375
1629797545968,-0.46875,0.0625,0.859375
1629797546000,-0.46875,0.0625,0.875
1629797546031,-0.46875,0.0625,0.859375
1629797546062,-0.46875,0.046875,0.859375
1629797546093,-0.46875,0.046875,0.875
1629797546125,-0.46875,0.0625,0.859375
1629797546156,-0.46875,0.046875,0.859375
1629797546187,-0.46875,0.046875,0.859375
1629797546218,-0.46875,0.0625,0.859375
1629797546250,-0.46875,0.046875,0.875
1629797546281,-0.46875,0.046875,0.859375
1629797546312,-0.46875,0.0625,0.859375
1629797546343,-0.46875,0.046875,0.859375
1629797546375,-0.453125,0.0625,0.875
1629797546406,-0.46875,0.046875,0.875
1629797546437,-0.453125,0.046875,0.875
1629797546468,-0.453125,0.046875,0.875
1629797546500,-0.453125,0.0625,0.875
1629797546531,-0.453125,0.0625,0.875
1629797546562,-0.453125,0.0625,0.875
1629797546593,-0.453125,0.046875,0.859375
1629797546625,-0.453125,0.0625,0.875
1629797546656,-0.453125,0.0625,0.875
1629797546687,-0.453125,0.0625,0.875
1629797546718,-0.453125,0.046875,0.875
1629797546750,-0.453125,0.0625,0.875
1629797546781,-0.453125,0.0625,0.875
1629797546812,-0.453125,0.046875,0.875
1629797546843,-0.453125,0.0625,0.875
1629797546875,-0.453125,0.046875,0.875
1629797546906,-0.453125,0.0625,0.875
1629797546937,-0.453125,0.0625,0.875
1629797546968,-0.453125,0.046875,0.859375
1629797547000,-0.453125,0.0625,0.875
1629797547031,-0.453125,0.0625,0.875
1629797547062,-0.453125,0.0625,0.875
1629797547093,-0.453125,0.0625,0.875
1629797547125,-0.453125,0.0625,0.875
1629797547156,-0.453125,0.0625,0.875
1629797547187,-0.453125,0.0625,0.875
1629797547218,-0.453125,0.0625,0.859375
1629797547250,-0.453125,0.0625,0.859375
1629797547281,-0.46875,0.046875,0.875
1629797547312,-0.453125,0.046875,0.875
1629797547343,-0.453125,0.046875,0.875
1629797547375,-0.453125,0.046875,0.875
1629797547406,-0.453125,0.0625,0.875
1629797547437,-0.453125,0.0625,0.859375
1629797547468,-0.453125,0.046875,0.859375
1629797547500,-0.453125,0.0625,0.875
1629797547531,-0.453125,0.046875,0.875
1629797547562,-0.453125,0.0625,0.875
1629797547593,-0.453125,0.046875,0.875
1629797547625,-0.453125,0.046875,0.875
1629797547656,-0.453125,0.0625,0.875
1629797547687,-0.453125,0.046875,0.875
1629797547718,-0.453125,0.046875,0.875
1629797547750,-0.453125,0.046875,0.875
1629797547781,-0.453125,0.046875,0.875
1629797547812,-0.453125,0.0625,0.859375
1629797547843,-0.453125,0.0625,0.875
1629797547875,-0.46875,0.046875,0.859375
1629797547906,-0.453125,0.0625,0.875
1629797547937,-0.46875,0.0625,0.875
1629797547968,-0.46875,0.0625,0.875
1629797548000,-0.46875,0.0625,0.859375
1629797548031,-0.46875,0.0625,0.875
1629797548062,-0.46875,0.0625,0.859375
1629797548093,-0.46875,0.0625,0.859375
1629797548125,-0.46875,0.046875,0.875
1629797548156,-0.46875,0.0625,0.859375
1629797548187,-0.46875,0.0625,0.859375
1629797548218,-0.46875,0.0625,0.859375
1629797548250,-0.46875,0.0625,0.875
1629797548281,-0.46875,0.0625,0.859375
1629797548312,-0.46875,0.0625,0.875
1629797548343,-0.46875,0.046875,0.859375
1629797548375,-0.46875,0.046875,0.859375
1629797548406,-0.46875,0.0625,0.859375
1629797548437,-0.46875,0.046875,0.859375
1629797548468,-0.46875,0.0625,0.875
1629797548500,-0.46875,0.0625,0.859375
1629797548531,-0.46875,0.0625,0.859375
1629797548562,-0.46875,0.0625,0.875
1629797548593,-0.46875,0.0625,0.859375
1629797548625,-0.46875,0.0625,0.859375
1629797548656,-0.46875,0.0625,0.859375
1629797548687,-0.46875,0.0625,0.859375
1629797548718,-0.46875,0.0625,0.859375
1629797548750,-0.46875,0.0625,0.859375
1629797548781,-0.46875,0.0625,0.859375
1629797548812,-0.46875,0.0625,0.859375
1629797548843,-0.46875,0.046875,0.859375
1629797548875,-0.46875,0.0625,0.859375
1629797548906,-0.46875,0.0625,0.859375
1629797548937,-0.46875,0.0625,0.859375
1629797548968,-0.46875,0.046875,0.859375
1629797549000,-0.46875,0.0625,0.859375
1629797549031,-0.46875,0.046875,0.859375
1629797549062,-0.46875,0.0625,0.859375
1629797549093,-0.46875,0.0625,0.859375
1629797549125,-0.46875,0.0625,0.859375
1629797549156,-0.46875,0.046875,0.875
1629797549187,-0.46875,0.0625,0.859375
1629797549218,-0.46875,0.0625,0.859375
1629797549250,-0.46875,0.0625,0.859375
1629797549281,-0.46875,0.0625,0.859375
1629797549312,-0.46875,0.0625,0.859375
1629797549343,-0.46875,0.046875,0.875
1629797549375,-0.46875,0.046875,0.859375
1629797549406,-0.46875,0.0625,0.875
1629797549437,-0.46875,0.0625,0.859375
1629797549468,-0.46875,0.0625,0.859375
1629797549500,-0.46875,0.046875,0.859375
1629797549531,-0.46875,0.0625,0.859375
1629797549562,-0.46875,0.0625,0.859375
1629797549593,-0.46875,0.0625,0.859375
1629797549625,-0.46875,0.0625,0.859375
1629797549656,-0.46875,0.0625,0.859375
1629797549687,-0.46875,0.046875,0.859375
1629797549718,-0.46875,0.0625,0.859375
1629797549750,-0.46875,0.046875,0.859375
1629797549781,-0.46875,0.0625,0.859375
1629797549812,-0.46875,0.0625,0.859375
1629797549843,-0.46875,0.0625,0.859375
1629797549875,-0.46875,0.046875,0.859375
1629797549906,-0.46875,0.046875,0.859375
1629797549937,-0.46875,0.046875,0.859375
1629797549968,-0.46875,0.046875,0.859375
1629797550000,-0.46875,0.046875,0.859375
1629797550031,-0.46875,0.046875,0.859375
1629797550062,-0.46875,0.046875,0.875
1629797550093,-0.46875,0.046875,0.859375
1629797550125,-0.46875,0.046875,0.875
1629797550156,-0.46875,0.046875,0.875
1629797550187,-0.453125,0.046875,0.859375
1629797550218,-0.46875,0.046875,0.859375
1629797550250,-0.46875,0.0625,0.859375
1629797550281,-0.46875,0.046875,0.875
1629797550312,-0.46875,0.0625,0.859375
1629797550343,-0.46875,0.0625,0.859375
1629797550375,-0.46875,0.0625,0.859375
1629797550406,-0.46875,0.0625,0.859375
1629797550437,-0.46875,0.0625,0.859375
1629797550468,-0.46875,0.046875,0.875
1629797550500,-0.453125,0.046875,0.859375
1629797550531,-0.46875,0.0625,0.859375
1629797550562,-0.453125,0.046875,0.875
1629797550593,-0.46875,0.0625,0.859375
1629797550625,-0.46875,0.046875,0.875
1629797550656,-0.46875,0.0625,0.875
1629797550687,-0.46875,0.046875,0.859375
1629797550718,-0.46875,0.0625,0.859375
1629797550750,-0.46875,0.046875,0.859375
1629797550781,-0.46875,0.046875,0.859375
1629797550812,-0.46875,0.046875,0.859375
1629797550843,-0.46875,0.046875,0.859375
1629797550875,-0.46875,0.046875,0.859375
1629797550906,-0.46875,0.046875,0.859375
1629797550937,-0.46875,0.046875,0.859375
1629797550968,-0.46875,0.046875,0.859375
1629797551000,-0.46875,0.046875,0.859375
1629797551031,-0.46875,0.046875,0.875
1629797551062,-0.46875,0.046875,0.859375
1629797551093,-0.46875,0.046875,0.859375
1629797551125,-0.46875,0.046875,0.859375
1629797551156,-0.46875,0.046875,0.859375
1629797551187,-0.46875,0.046875,0.859375
1629797551218,-0.46875,0.046875,0.859375
1629797551250,-0.46875,0.046875,0.859375
1629797551281,-0.46875,0.046875,0.859375
1629797551312,-0.46875,0.046875,0.859375
1629797551343,-0.46875,0.046875,0.859375
1629797551375,-0.46875,0.046875,0.859375
1629797551406,-0.46875,0.046875,0.859375
1629797551437,-0.46875,0.046875,0.859375
1629797551468,-0.46875,0.046875,0.859375
1629797551500,-0.46875,0.046875,0.859375
1629797551531,-0.46875,0.046875,0.859375
1629797551562,-0.46875,0.046875,0.859375
1629797551593,-0.46875,0.046875,0.875
1629797551625,-0.46875,0.046875,0.859375
1629797551656,-0.46875,0.0625,0.859375
1629797551687,-0.46875,0.046875,0.859375
1629797551718,-0.46875,0.046875,0.859375
1629797551750,-0.46875,0.046875,0.859375
1629797551781,-0.46875,0.046875,0.859375
1629797551812,-0.46875,0.046875,0.875
1629797551843,-0.46875,0.0625,0.859375
1629797551875,-0.46875,0.0625,0.859375
1629797551906,-0.46875,0.0625,0.859375
1629797551937,-0.46875,0.046875,0.859375
1629797551968,-0.46875,0.0625,0.859375
1629797552000,-0.46875,0.0625,0.859375
1629797552031,-0.46875,0.046875,0.859375
1629797552062,-0.46875,0.046875,0.859375
1629797552093,-0.46875,0.046875,0.859375
1629797552125,-0.46875,0.046875,0.859375
1629797552156,-0.46875,0.046875,0.859375
1629797552187,-0.46875,0.046875,0.859375
1629797552218,-0.484375,0.046875,0.859375
1629797552250,-0.46875,0.046875,0.859375
1629797552281,-0.46875,0.046875,0.859375
1629797552312,-0.46875,0.046875,0.859375
1629797552343,-0.46875,0.046875,0.859375
1629797552375,-0.46875,0.046875,0.859375
1629797552406,-0.46875,0.046875,0.859375
1629797552437,-0.46875,0.046875,0.859375
1629797552468,-0.46875,0.046875,0.859375
1629797552500,-0.46875,0.046875,0.859375
1629797552531,-0.46875,0.046875,0.859375
1629797552562,-0.46875,0.046875,0.859375
1629797552593,-0.46875,0.046875,0.859375
1629797552625,-0.46875,0.046875,0.859375
1629797552656,-0.46875,0.046875,0.859375
1629797552687,-0.46875,0.046875,0.859375
1629797552718,-0.46875,0.046875,0.859375
1629797552750,-0.46875,0.046875,0.859375
1629797552781,-0.484375,0.0625,0.859375
1629797552812,-0.484375,0.046875,0.859375
1629797552843,-0.46875,0.0625,0.859375
1629797552875,-0.484375,0.0625,0.859375
1629797552906,-0.484375,0.046875,0.859375
1629797552937,-0.484375,0.0625,0.859375
1629797552968,-0.484375,0.0625,0.859375
1629797553000,-0.484375,0.046875,0.859375
1629797553031,-0.484375,0.046875,0.859375
1629797553062,-0.484375,0.046875,0.859375
1629797553093,-0.484375,0.0625,0.859375
1629797553125,-0.484375,0.046875,0.859375
1629797553156,-0.46875,0.046875,0.859375
1629797553187,-0.484375,0.0625,0.859375
1629797553218,-0.484375,0.0625,0.859375
1629797553250,-0.484375,0.0625,0.859375
1629797553281,-0.484375,0.0625,0.859375
1629797553312,-0.484375,0.0625,0.859375
1629797553343,-0.484375,0.046875,0.859375
1629797553375,-0.484375,0.0625,0.859375
1629797553406,-0.484375,0.0625,0.859375
1629797553437,-0.484375,0.0625,0.859375
1629797553468,-0.484375,0.0625,0.859375
1629797553500,-0.484375,0.0625,0.859375
1629797553531,-0.484375,0.046875,0.859375
1629797553562,-0.484375,0.0625,0.859375
1629797553593,-0.484375,0.0625,0.859375
1629797553625,-0.484375,0.046875,0.859375
1629797553656,-0.484375,0.046875,0.859375
1629797553687,-0.484375,0.0625,0.875
1629797553718,-0.484375,0.0625,0.859375
1629797553750,-0.484375,0.046875,0.859375
1629797553781,-0.484375,0.0625,0.859375
1629797553812,-0.484375,0.0625,0.859375
1629797553843,-0.484375,0.046875,0.859375
1629797553875,-0.484375,0.046875,0.859375
1629797553906,-0.484375,0.0625,0.859375
1629797553937,-0.484375,0.046875,0.859375
1629797553968,-0.46875,0.046875,0.859375
1629797554000,-0.484375,0.046875,0.859375
1629797554031,-0.46875,0.0625,0.859375
1629797554062,-0.46875,0.0625,0.859375
1629797554093,-0.46875,0.046875,0.859375
1629797554125,-0.46875,0.0625,0.859375
1629797554156,-0.46875,0.046875,0.859375
1629797554187,-0.46875,0.0625,0.859375
1629797554218,-0.46875,0.0625,0.859375
1629797554250,-0.46875,0.0625,0.859375
1629797554281,-0.46875,0.0625,0.859375
1629797554312,-0.46875,0.046875,0.859375
1629797554343,-0.46875,0.046875,0.875
1629797554375,-0.46875,0.046875,0.859375
1629797554406,-0.46875,0.0625,0.859375
1629797554437,-0.46875,0.0625,0.859375
1629797554468,-0.46875,0.0625,0.859375
1629797554500,-0.46875,0.046875,0.859375
1629797554531,-0.46875,0.046875,0.859375
1629797554562,-0.46875,0.046875,0.859375
1629797554593,-0.46875,0.0625,0.859375
1629797554625,-0.46875,0.0625,0.875
1629797554656,-0.46875,0.046875,0.859375
1629797554687,-0.46875,0.0625,0.859375
1629797554718,-0.46875,0.0625,0.859375
1629797554750,-0.46875,0.0625,0.859375
1629797554781,-0.46875,0.0625,0.859375
1629797554812,-0.46875,0.0625,0.859375
1629797554843,-0.46875,0.0625,0.859375
1629797554875,-0.46875,0.0625,0.859375
1629797554906,-0.46875,0.046875,0.859375
1629797554937,-0.46875,0.046875,0.859375
1629797554968,-0.46875,0.0625,0.859375
1629797555000,-0.46875,0.046875,0.859375
1629797555031,-0.46875,0.046875,0.859375
1629797555062,-0.46875,0.046875,0.859375
1629797555093,-0.46875,0.0625,0.859375
1629797555125,-0.46875,0.046875,0.859375
1629797555156,-0.46875,0.0625,0.859375
1629797555187,-0.46875,0.046875,0.859375
1629797555218,-0.46875,0.046875,0.859375
1629797555250,-0.46875,0.046875,0.859375
1629797555281,-0.46875,0.046875,0.859375
1629797555312,-0.46875,0.0625,0.859375
1629797555343,-0.46875,0.046875,0.859375
1629797555375,-0.46875,0.0625,0.859375
1629797555406,-0.46875,0.046875,0.859375
1629797555437,-0.46875,0.046875,0.859375
1629797555468,-0.46875,0.0625,0.859375
1629797555500,-0.46875,0.0625,0.859375
1629797555531,-0.46875,0.0625,0.859375
1629797555562,-0.46875,0.0625,0.859375
1629797555593,-0.46875,0.0625,0.859375
1629797555625,-0.46875,0.0625,0.859375
1629797555656,-0.46875,0.046875,0.859375
1629797555687,-0.46875,0.046875,0.859375
1629797555718,-0.46875,0.0625,0.859375
1629797555750,-0.484375,0.046875,0.859375
1629797555781,-0.46875,0.046875,0.859375
1629797555812,-0.46875,0.046875,0.859375
1629797555843,-0.46875,0.0625,0.859375
1629797555875,-0.46875,0.046875,0.859375
1629797555906,-0.46875,0.046875,0.859375
1629797555937,-0.46875,0.046875,0.859375
1629797555968,-0.46875,0.046875,0.859375
1629797556000,-0.484375,0.046875,0.859375
1629797556031,-0.46875,0.046875,0.859375
1629797556062,-0.46875,0.046875,0.859375
1629797556093,-0.46875,0.046875,0.859375
1629797556125,-0.46875,0.046875,0.859375
1629797556156,-0.46875,0.046875,0.859375
1629797556187,-0.484375,0.0625,0.859375
1629797556218,-0.484375,0.046875,0.859375
1629797556250,-0.46875,0.046875,0.859375
1629797556281,-0.484375,0.046875,0.859375
1629797556312,-0.484375,0.046875,0.859375
1629797556343,-0.46875,0.046875,0.859375
1629797556375,-0.46875,0.046875,0.859375
1629797556406,-0.46875,0.0625,0.859375
1629797556437,-0.484375,0.046875,0.859375
1629797556468,-0.484375,0.046875,0.859375
1629797556500,-0.484375,0.046875,0.859375
1629797556531,-0.46875,0.0625,0.859375
1629797556562,-0.46875,0.0625,0.859375
1629797556593,-0.484375,0.0625,0.859375
1629797556625,-0.484375,0.046875,0.859375
1629797556656,-0.484375,0.0625,0.859375
1629797556687,-0.484375,0.0625,0.859375
1629797556718,-0.484375,0.0625,0.859375
1629797556750,-0.484375,0.0625,0.859375
1629797556781,-0.484375,0.0625,0.859375
1629797556812,-0.484375,0.0625,0.859375
1629797556843,-0.484375,0.046875,0.859375
1629797556875,-0.484375,0.0625,0.859375
1629797556906,-0.484375,0.0625,0.859375
1629797556937,-0.484375,0.0625,0.859375
1629797556968,-0.484375,0.046875,0.859375
1629797557000,-0.484375,0.0625,0.859375
1629797557031,-0.484375,0.046875,0.859375
1629797557062,-0.484375,0.0625,0.859375
1629797557093,-0.484375,0.046875,0.859375
1629797557125,-0.484375,0.0625,0.859375
1629797557156,-0.484375,0.0625,0.859375
1629797557187,-0.484375,0.0625,0.859375
1629797557218,-0.484375,0.0625,0.84375
1629797557250,-0.484375,0.0625,0.859375
1629797557281,-0.484375,0.0625,0.84375
1629797557312,-0.484375,0.046875,0.859375
1629797557343,-0.484375,0.046875,0.859375
1629797557375,-0.484375,0.046875,0.859375
1629797557406,-0.484375,0.0625,0.859375
1629797557437,-0.484375,0.0625,0.859375
1629797557468,-0.484375,0.0625,0.859375
1629797557500,-0.484375,0.0625,0.859375
1629797557531,-0.484375,0.0625,0.84375
1629797557562,-0.484375,0.0625,0.859375
1629797557593,-0.484375,0.0625,0.859375
1629797557625,-0.484375,0.0625,0.859375
1629797557656,-0.484375,0.046875,0.859375
1629797557687,-0.484375,0.0625,0.859375
1629797557718,-0.484375,0.0625,0.859375
1629797557750,-0.484375,0.046875,0.859375
1629797557781,-0.484375,0.0625,0.859375
1629797557812,-0.484375,0.046875,0.859375
1629797557843,-0.484375,0.0625,0.859375
1629797557875,-0.484375,0.046875,0.859375
1629797557906,-0.484375,0.046875,0.859375
1629797557937,-0.484375,0.0625,0.859375
1629797557968,-0.484375,0.046875,0.859375
1629797558000,-0.484375,0.0625,0.859375
1629797558031,-0.484375,0.046875,0.859375
1629797558062,-0.484375,0.0625,0.859375
1629797558093,-0.484375,0.046875,0.859375
1629797558125,-0.484375,0.046875,0.859375
1629797558156,-0.484375,0.046875,0.859375
1629797558187,-0.46875,0.046875,0.859375
1629797558218,-0.46875,0.046875,0.859375
1629797558250,-0.484375,0.046875,0.859375
1629797558281,-0.46875,0.046875,0.859375
1629797558312,-0.484375,0.046875,0.859375
1629797558343,-0.484375,0.046875,0.859375
1629797558375,-0.46875,0.046875,0.859375
1629797558406,-0.46875,0.0625,0.859375
1629797558437,-0.46875,0.046875,0.859375
1629797558468,-0.46875,0.046875,0.859375
1629797558500,-0.46875,0.0625,0.859375
1629797558531,-0.46875,0.046875,0.859375
1629797558562,-0.46875,0.046875,0.859375
1629797558593,-0.46875,0.0625,0.859375
1629797558625,-0.46875,0.0625,0.859375
1629797558656,-0.46875,0.0625,0.859375
1629797558687,-0.46875,0.046875,0.859375
1629797558718,-0.46875,0.0625,0.859375
1629797558750,-0.46875,0.0625,0.859375
1629797558781,-0.46875,0.046875,0.859375
1629797558812,-0.46875,0.0625,0.859375
1629797558843,-0.46875,0.046875,0.859375
1629797558875,-0.46875,0.0625,0.859375
1629797558906,-0.46875,0.0625,0.859375
1629797558937,-0.46875,0.0625,0.859375
1629797558968,-0.46875,0.046875,0.859375
1629797559000,-0.46875,0.0625,0.859375
1629797559031,-0.46875,0.0625,0.859375
1629797559062,-0.46875,0.0625,0.859375
1629797559093,-0.46875,0.0625,0.859375
1629797559125,-0.46875,0.0625,0.859375
1629797559156,-0.46875,0.0625,0.859375
1629797559187,-0.46875,0.0625,0.859375
1629797559218,-0.46875,0.0625,0.859375
1629797559250,-0.46875,0.0625,0.859375
1629797559281,-0.46875,0.0625,0.859375
1629797559312,-0.46875,0.0625,0.859375
1629797559343,-0.46875,0.0625,0.859375
1629797559375,-0.46875,0.0625,0.859375
1629797559406,-0.46875,0.0625,0.859375
1629797559437,-0.46875,0.046875,0.859375
1629797559468,-0.46875,0.046875,0.859375
1629797559500,-0.46875,0.0625,0.859375
1629797559531,-0.46875,0.0625,0.859375
1629797559562,-0.46875,0.0625,0.859375
1629797559593,-0.46875,0.0625,0.859375
1629797559625,-0.484375,0.046875,0.859375
1629797559656,-0.46875,0.046875,0.859375
1629797559687,-0.46875,0.0625,0.859375
1629797559718,-0.46875,0.046875,0.859375
1629797559750,-0.46875,0.046875,0.859375
1629797559781,-0.46875,0.046875,0.859375
1629797559812,-0.484375,0.046875,0.859375
1629797559843,-0.484375,0.046875,0.859375
1629797559875,-0.484375,0.046875,0.859375
1629797559906,-0.484375,0.046875,0.859375
1629797559937,-0.484375,0.046875,0.859375
1629797559968,-0.484375,0.046875,0.859375
1629797560000,-0.484375,0.046875,0.859375
1629797560031,-0.484375,0.046875,0.859375
1629797560062,-0.484375,0.046875,0.859375
1629797560093,-0.484375,0.046875,0.859375
1629797560125,-0.484375,0.046875,0.859375
1629797560156,-0.484375,0.046875,0.859375
1629797560187,-0.484375,0.046875,0.859375
1629797560218,-0.484375,0.046875,0.859375
1629797560250,-0.484375,0.046875,0.859375
1629797560281,-0.484375,0.046875,0.859375
1629797560312,-0.484375,0.046875,0.859375
1629797560343,-0.484375,0.046875,0.859375
1629797560375,-0.484375,0.046875,0.859375
1629797560406,-0.484375,0.046875,0.859375
1629797560437,-0.484375,0.046875,0.859375
1629797560468,-0.484375,0.046875,0.859375
1629797560500,-0.484375,0.046875,0.859375
1629797560531,-0.484375,0.046875,0.859375
1629797560562,-0.484375,0.046875,0.859375
1629797560593,-0.484375,0.046875,0.859375
1629797560625,-0.484375,0.046875,0.859375
1629797560656,-0.484375,0.046875,0.859375
1629797560687,-0.484375,0.046875,0.859375
1629797560718,-0.484375,0.046875,0.859375
1629797560750,-0.484375,0.046875,0.859375
1629797560781,-0.484375,0.046875,0.84375
1629797560812,-0.484375,0.0625,0.859375
1629797560843,-0.484375,0.046875,0.859375
1629797560875,-0.484375,0.046875,0.84375
1629797560906,-0.484375,0.0625,0.859375
1629797560937,-0.484375,0.046875,0.859375
1629797560968,-0.484375,0.046875,0.859375
1629797561000,-0.484375,0.046875,0.859375
1629797561031,-0.484375,0.046875,0.859375
1629797561062,-0.484375,0.046875,0.859375
1629797561093,-0.484375,0.046875,0.859375
1629797561125,-0.484375,0.046875,0.859375
1629797561156,-0.484375,0.046875,0.859375
1629797561187,-0.484375,0.046875,0.859375
1629797561218,-0.484375,0.046875,0.84375
1629797561250,-0.484375,0.046875,0.84375
1629797561281,-0.484375,0.0625,0.84375
1629797561312,-0.5,0.0625,0.859375
1629797561343,-0.484375,0.046875,0.859375
1629797561375,-0.484375,0.046875,0.859375
1629797561406,-0.484375,0.0625,0.859375
1629797561437,-0.484375,0.046875,0.859375
1629797561468,-0.484375,0.046875,0.859375
1629797561500,-0.5,0.046875,0.859375
1629797561531,-0.5,0.046875,0.859375
1629797561562,-0.484375,0.046875,0.859375
1629797561593,-0.484375,0.046875,0.859375
1629797561625,-0.484375,0.046875,0.84375
1629797561656,-0.484375,0.046875,0.84375
1629797561687,-0.484375,0.046875,0.859375
1629797561718,-0.484375,0.046875,0.859375
1629797561750,-0.484375,0.046875,0.859375
1629797561781,-0.484375,0.046875,0.859375
1629797561812,-0.484375,0.046875,0.84375
1629797561843,-0.484375,0.046875,0.859375
1629797561875,-0.484375,0.046875,0.859375
1629797561906,-0.484375,0.046875,0.859375
1629797561937,-0.484375,0.0625,0.859375
1629797561968,-0.484375,0.0625,0.859375
1629797562000,-0.484375,0.046875,0.859375
1629797562031,-0.484375,0.046875,0.84375
1629797562062,-0.484375,0.046875,0.859375
1629797562093,-0.484375,0.046875,0.859375
1629797562125,-0.484375,0.046875,0.859375
1629797562156,-0.484375,0.046875,0.859375
1629797562187,-0.484375,0.046875,0.859375
1629797562218,-0.484375,0.046875,0.859375
1629797562250,-0.484375,0.046875,0.859375
1629797562281,-0.484375,0.046875,0.84375
1629797562312,-0.484375,0.046875,0.859375
1629797562343,-0.484375,0.046875,0.859375
1629797562375,-0.484375,0.046875,0.859375
1629797562406,-0.46875,0.046875,0.859375
1629797562437,-0.484375,0.046875,0.859375
1629797562468,-0.484375,0.046875,0.859375
1629797562500,-0.484375,0.046875,0.859375
1629797562531,-0.484375,0.046875,0.859375
1629797562562,-0.484375,0.046875,0.859375
1629797562593,-0.46875,0.046875,0.859375
1629797562625,-0.46875,0.046875,0.859375
1629797562656,-0.484375,0.046875,0.859375
1629797562687,-0.46875,0.046875,0.859375
1629797562718,-0.46875,0.046875,0.859375
1629797562750,-0.46875,0.046875,0.859375
1629797562781,-0.46875,0.046875,0.859375
1629797562812,-0.46875,0.046875,0.859375
1629797562843,-0.484375,0.046875,0.859375
1629797562875,-0.46875,0.046875,0.859375
1629797562906,-0.46875,0.03125,0.859375
1629797562937,-0.484375,0.046875,0.859375
1629797562968,-0.484375,0.046875,0.859375
1629797563000,-0.46875,0.046875,0.859375
1629797563031,-0.46875,0.046875,0.859375
1629797563062,-0.46875,0.046875,0.859375
1629797563093,-0.46875,0.046875,0.859375
1629797563125,-0.46875,0.046875,0.859375
1629797563156,-0.46875,0.046875,0.859375
1629797563187,-0.484375,0.046875,0.859375
1629797563218,-0.46875,0.046875,0.859375
1629797563250,-0.484375,0.03125,0.859375
1629797563281,-0.484375,0.03125,0.859375
1629797563312,-0.484375,0.03125,0.859375
1629797563343,-0.484375,0.015625,0.859375
1629797563375,-0.484375,0.03125,0.859375
1629797563406,-0.484375,0.015625,0.859375
1629797563437,-0.484375,0.03125,0.859375
1629797563468,-0.484375,0.015625,0.859375
1629797563500,-0.484375,0.015625,0.859375
1629797563531,-0.484375,0.015625,0.859375
1629797563562,-0.484375,0.015625,0.859375
1629797563593,-0.484375,0.015625,0.859375
1629797563625,-0.484375,0.015625,0.859375
1629797563656,-0.484375,0.015625,0.859375
1629797563687,-0.484375,0.015625,0.859375
1629797563718,-0.484375,0.015625,0.859375
1629797563750,-0.484375,0.015625,0.859375
1629797563781,-0.484375,0.015625,0.859375
1629797563812,-0.484375,0.015625,0.859375
1629797563843,-0.484375,0.015625,0.859375
1629797563875,-0.484375,0.015625,0.859375
1629797563906,-0.484375,0.015625,0.859375
1629797563937,-0.484375,0.015625,0.859375
1629797563968,-0.484375,0.0,0.859375
1629797564000,-0.484375,0.015625,0.859375
1629797564031,-0.5,0.0,0.859375
1629797564062,-0.5,0.0,0.859375
1629797564093,-0.484375,0.0,0.859375
1629797564125,-0.5,0.0,0.84375
1629797564156,-0.5,0.0,0.859375
1629797564187,-0.484375,0.0,0.859375
1629797564218,-0.484375,0.0,0.859375
1629797564250,-0.5,0.0,0.84375
1629797564281,-0.5,0.0,0.84375
1629797564312,-0.5,0.0,0.859375
1629797564343,-0.5,0.0,0.859375
1629797564375,-0.5,0.0,0.859375
1629797564406,-0.5,-0.015625,0.859375
1629797564437,-0.484375,0.0,0.859375
1629797564468,-0.5,0.0,0.84375
1629797564500,-0.5,0.0,0.84375
1629797564531,-0.5,0.0,0.84375
1629797564562,-0.5,0.0,0.84375
1629797564593,-0.5,0.0,0.84375
1629797564625,-0.5,0.0,0.84375
1629797564656,-0.5,0.0,0.859375
1629797564687,-0.5,0.0,0.859375
1629797564718,-0.5,0.0,0.84375
1629797564750,-0.5,0.0,0.859375
1629797564781,-0.5,0.015625,0.859375
1629797564812,-0.5,0.0,0.859375
1629797564843,-0.5,0.015625,0.84375
1629797564875,-0.5,0.0,0.84375
1629797564906,-0.5,0.0,0.84375
1629797564937,-0.5,0.0,0.84375
1629797564968,-0.5,0.0,0.84375
1629797565000,-0.5,0.0,0.859375
1629797565031,-0.5,0.015625,0.859375
1629797565062,-0.5,0.015625,0.84375
1629797565093,-0.5,0.015625,0.84375
1629797565125,-0.5,0.015625,0.859375
1629797565156,-0.5,0.015625,0.859375
1629797565187,-0.5,0.015625,0.84375
1629797565218,-0.5,0.03125,0.859375
1629797565250,-0.5,0.03125,0.84375
1629797565281,-0.5,0.03125,0.84375
1629797565312,-0.5,0.03125,0.84375
1629797565343,-0.5,0.046875,0.859375
1629797565375,-0.5,0.03125,0.84375
1629797565406,-0.5,0.03125,0.859375
1629797565437,-0.5,0.03125,0.84375
1629797565468,-0.5,0.046875,0.859375
1629797565500,-0.5,0.046875,0.84375
1629797565531,-0.5,0.046875,0.859375
1629797565562,-0.5,0.046875,0.859375
1629797565593,-0.5,0.046875,0.859375
1629797565625,-0.484375,0.046875,0.84375
1629797565656,-0.5,0.046875,0.859375
1629797565687,-0.5,0.046875,0.859375
1629797565718,-0.484375,0.046875,0.859375
1629797565750,-0.484375,0.0625,0.859375
1629797565781,-0.484375,0.0625,0.859375
1629797565812,-0.484375,0.0625,0.859375
1629797565843,-0.484375,0.0625,0.859375
1629797565875,-0.484375,0.0625,0.859375
1629797565906,-0.484375,0.0625,0.84375
1629797565937,-0.484375,0.0625,0.859375
1629797565968,-0.484375,0.0625,0.859375
1629797566000,-0.484375,0.0625,0.84375
1629797566031,-0.484375,0.0625,0.859375
1629797566062,-0.484375,0.0625,0.859375
1629797566093,-0.484375,0.0625,0.859375
1629797566125,-0.484375,0.0625,0.859375
1629797566156,-0.484375,0.0625,0.859375
1629797566187,-0.484375,0.078125,0.859375
1629797566218,-0.484375,0.078125,0.859375
1629797566250,-0.46875,0.078125,0.859375
1629797566281,-0.484375,0.078125,0.84375
1629797566312,-0.484375,0.078125,0.84375
1629797566343,-0.484375,0.078125,0.859375
1629797566375,-0.484375,0.078125,0.859375
1629797566406,-0.46875,0.0625,0.859375
1629797566437,-0.46875,0.078125,0.859375
1629797566468,-0.46875,0.078125,0.859375
1629797566500,-0.46875,0.078125,0.859375
1629797566531,-0.46875,0.078125,0.859375
1629797566562,-0.46875,0.078125,0.859375
1629797566593,-0.46875,0.078125,0.859375
1629797566625,-0.46875,0.078125,0.859375
1629797566656,-0.46875,0.078125,0.859375
1629797566687,-0.46875,0.078125,0.859375
1629797566718,-0.46875,0.078125,0.859375
1629797566750,-0.46875,0.078125,0.859375
1629797566781,-0.46875,0.078125,0.859375
1629797566812,-0.46875,0.078125,0.859375
1629797566843,-0.46875,0.078125,0.859375
1629797566875,-0.46875,0.078125,0.859375
1629797566906,-0.46875,0.078125,0.859375
1629797566937,-0.46875,0.09375,0.859375
1629797566968,-0.46875,0.09375,0.859375
1629797567000,-0.46875,0.09375,0.859375
1629797567031,-0.46875,0.09375,0.84375
1629797567062,-0.46875,0.078125,0.859375
1629797567093,-0.46875,0.078125,0.859375
1629797567125,-0.46875,0.09375,0.859375
1629797567156,-0.46875,0.078125,0.859375
1629797567187,-0.46875,0.078125,0.859375
1629797567218,-0.46875,0.078125,0.859375
1629797567250,-0.46875,0.078125,0.859375
1629797567281,-0.46875,0.078125,0.859375
1629797567312,-0.46875,0.078125,0.859375
1629797567343,-0.484375,0.078125,0.859375
1629797567375,-0.46875,0.078125,0.859375
1629797567406,-0.46875,0.078125,0.859375
1629797567437,-0.46875,0.078125,0.859375
1629797567468,-0.46875,0.078125,0.859375
1629797567500,-0.46875,0.078125,0.859375
1629797567531,-0.484375,0.078125,0.859375
1629797567562,-0.46875,0.078125,0.859375
1629797567593,-0.46875,0.078125,0.859375
1629797567625,-0.46875,0.078125,0.859375
1629797567656,-0.46875,0.0625,0.859375
1629797567687,-0.484375,0.078125,0.859375
1629797567718,-0.484375,0.0625,0.859375
1629797567750,-0.46875,0.0625,0.859375
1629797567781,-0.46875,0.0625,0.859375
1629797567812,-0.46875,0.0625,0.859375
1629797567843,-0.484375,0.0625,0.859375
1629797567875,-0.484375,0.0625,0.859375
1629797567906,-0.484375,0.0625,0.859375
1629797567937,-0.484375,0.0625,0.859375
1629797567968,-0.484375,0.0625,0.859375
1629797568000,-0.484375,0.0625,0.859375
1629797568031,-0.484375,0.0625,0.859375
1629797568062,-0.484375,0.0625,0.859375
1629797568093,-0.484375,0.046875,0.859375
1629797568125,-0.484375,0.0625,0.859375
1629797568156,-0.484375,0.0625,0.859375
1629797568187,-0.484375,0.0625,0.859375
1629797568218,-0.484375,0.0625,0.859375
1629797568250,-0.484375,0.0625,0.859375
1629797568281,-0.484375,0.0625,0.84375
1629797568312,-0.484375,0.0625,0.84375
1629797568343,-0.484375,0.0625,0.859375
1629797568375,-0.484375,0.0625,0.859375
1629797568406,-0.484375,0.0625,0.859375
1629797568437,-0.46875,0.0625,0.859375
1629797568468,-0.46875,0.0625,0.859375
1629797568500,-0.484375,0.0625,0.859375
1629797568531,-0.484375,0.0625,0.859375
1629797568562,-0.484375,0.0625,0.859375
1629797568593,-0.484375,0.0625,0.859375
1629797568625,-0.484375,0.0625,0.859375
1629797568656,-0.484375,0.0625,0.859375
1629797568687,-0.484375,0.0625,0.859375
1629797568718,-0.484375,0.0625,0.859375
1629797568750,-0.484375,0.0625,0.859375
1629797568781,-0.484375,0.0625,0.859375
1629797568812,-0.484375,0.0625,0.859375
1629797568843,-0.484375,0.0625,0.859375
1629797568875,-0.484375,0.0625,0.859375
1629797568906,-0.484375,0.0625,0.859375
1629797568937,-0.484375,0.0625,0.859375
1629797568968,-0.484375,0.0625,0.859375
1629797569000,-0.484375,0.0625,0.859375
1629797569031,-0.484375,0.0625,0.859375
1629797569062,-0.484375,0.0625,0.859375
1629797569093,-0.484375,0.0625,0.859375
1629797569125,-0.484375,0.0625,0.859375
1629797569156,-0.484375,0.0625,0.84375
1629797569187,-0.484375,0.0625,0.859375
1629797569218,-0.484375,0.0625,0.859375
1629797569250,-0.484375,0.0625,0.859375
1629797569281,-0.484375,0.0625,0.859375
1629797569312,-0.484375,0.0625,0.84375
1629797569343,-0.484375,0.0625,0.84375
1629797569375,-0.484375,0.0625,0.859375
1629797569406,-0.484375,0.0625,0.859375
1629797569437,-0.484375,0.0625,0.859375
1629797569468,-0.484375,0.0625,0.859375
1629797569500,-0.484375,0.0625,0.859375
1629797569531,-0.484375,0.0625,0.859375
1629797569562,-0.484375,0.0625,0.859375
1629797569593,-0.484375,0.0625,0.859375
1629797569625,-0.484375,0.0625,0.859375
1629797569656,-0.484375,0.0625,0.859375
1629797569687,-0.484375,0.0625,0.859375
1629797569718,-0.484375,0.0625,0.859375
1629797569750,-0.484375,0.0625,0.859375
1629797569781,-0.484375,0.0625,0.859375
1629797569812,-0.484375,0.0625,0.859375
1629797569843,-0.484375,0.0625,0.859375
1629797569875,-0.484375,0.0625,0.859375
1629797569906,-0.484375,0.0625,0.859375
1629797569937,-0.484375,0.0625,0.859375
1629797569968,-0.484375,0.0625,0.859375
1629797570000,-0.484375,0.0625,0.859375
1629797570031,-0.46875,0.0625,0.859375
1629797570062,-0.484375,0.0625,0.859375
1629797570093,-0.484375,0.0625,0.859375
1629797570125,-0.46875,0.0625,0.859375
1629797570156,-0.46875,0.0625,0.859375
1629797570187,-0.484375,0.0625,0.859375
1629797570218,-0.46875,0.0625,0.859375
1629797570250,-0.46875,0.0625,0.859375
1629797570281,-0.46875,0.0625,0.859375
1629797570312,-0.46875,0.0625,0.859375
1629797570343,-0.46875,0.0625,0.84375
1629797570375,-0.46875,0.0625,0.859375
1629797570406,-0.46875,0.0625,0.859375
1629797570437,-0.46875,0.0625,0.859375
1629797570468,-0.46875,0.0625,0.859375
1629797570500,-0.46875,0.0625,0.859375
1629797570531,-0.46875,0.0625,0.859375
1629797570562,-0.46875,0.0625,0.859375
1629797570593,-0.46875,0.0625,0.859375
1629797570625,-0.46875,0.0625,0.859375
1629797570656,-0.46875,0.0625,0.859375
1629797570687,-0.46875,0.0625,0.859375
1629797570718,-0.46875,0.0625,0.859375
1629797570750,-0.46875,0.0625,0.859375
1629797570781,-0.46875,0.0625,0.859375
1629797570812,-0.46875,0.0625,0.859375
1629797570843,-0.46875,0.0625,0.859375
1629797570875,-0.46875,0.0625,0.859375
1629797570906,-0.46875,0.0625,0.859375
1629797570937,-0.46875,0.0625,0.859375
1629797570968,-0.46875,0.0625,0.859375
1629797571000,-0.46875,0.0625,0.859375
1629797571031,-0.46875,0.0625,0.859375
1629797571062,-0.484375,0.0625,0.859375
1629797571093,-0.46875,0.0625,0.859375
1629797571125,-0.484375,0.0625,0.859375
1629797571156,-0.46875,0.0625,0.859375
1629797571187,-0.46875,0.0625,0.859375
1629797571218,-0.46875,0.0625,0.859375
1629797571250,-0.46875,0.0625,0.859375
1629797571281,-0.46875,0.0625,0.859375
1629797571312,-0.46875,0.0625,0.859375
1629797571343,-0.484375,0.0625,0.859375
1629797571375,-0.484375,0.0625,0.859375
1629797571406,-0.46875,0.0625,0.859375
1629797571437,-0.46875,0.0625,0.859375
1629797571468,-0.46875,0.0625,0.859375
1629797571500,-0.46875,0.0625,0.859375
1629797571531,-0.484375,0.0625,0.859375
1629797571562,-0.46875,0.0625,0.859375
1629797571593,-0.46875,0.0625,0.859375
1629797571625,-0.484375,0.0625,0.859375
1629797571656,-0.46875,0.0625,0.859375
1629797571687,-0.484375,0.0625,0.859375
1629797571718,-0.484375,0.0625,0.859375
1629797571750,-0.484375,0.0625,0.859375
1629797571781,-0.484375,0.0625,0.859375
1629797571812,-0.484375,0.0625,0.859375
1629797571843,-0.484375,0.0625,0.859375
1629797571875,-0.484375,0.0625,0.859375
1629797571906,-0.484375,0.0625,0.859375
1629797571937,-0.484375,0.0625,0.859375
1629797571968,-0.484375,0.0625,0.859375
1629797572000,-0.484375,0.0625,0.859375
1629797572031,-0.484375,0.0625,0.859375
1629797572062,-0.484375,0.0625,0.859375
1629797572093,-0.484375,0.0625,0.859375
1629797572125,-0.484375,0.0625,0.859375
1629797572156,-0.484375,0.0625,0.859375
1629797572187,-0.484375,0.0625,0.859375
1629797572218,-0.484375,0.0625,0.859375
1629797572250,-0.484375,0.0625,0.859375
1629797572281,-0.484375,0.0625,0.859375
1629797572312,-0.484375,0.0625,0.84375
1629797572343,-0.484375,0.0625,0.859375
1629797572375,-0.484375,0.0625,0.859375
1629797572406,-0.484375,0.0625,0.859375
1629797572437,-0.484375,0.0625,0.859375
1629797572468,-0.484375,0.0625,0.859375
1629797572500,-0.484375,0.0625,0.859375
1629797572531,-0.484375,0.0625,0.84375
1629797572562,-0.484375,0.0625,0.84375
1629797572593,-0.484375,0.0625,0.859375
1629797572625,-0.484375,0.0625,0.859375
1629797572656,-0.484375,0.0625,0.859375
1629797572687,-0.484375,0.0625,0.859375
1629797572718,-0.484375,0.0625,0.859375
1629797572750,-0.484375,0.0625,0.859375
1629797572781,-0.484375,0.0625,0.859375
1629797572812,-0.484375,0.0625,0.859375
1629797572843,-0.484375,0.0625,0.859375
1629797572875,-0.484375,0.0625,0.84375
1629797572906,-0.484375,0.0625,0.84375
1629797572937,-0.484375,0.0625,0.859375
1629797572968,-0.484375,0.0625,0.859375
1629797573000,-0.484375,0.0625,0.859375
1629797573031,-0.484375,0.0625,0.859375
1629797573062,-0.484375,0.0625,0.859375
1629797573093,-0.484375,0.0625,0.859375
1629797573125,-0.484375,0.0625,0.859375
1629797573156,-0.484375,0.0625,0.84375
1629797573187,-0.484375,0.0625,0.84375
1629797573218,-0.484375,0.0625,0.84375
1629797573250,-0.484375,0.0625,0.859375
1629797573281,-0.484375,0.0625,0.859375
1629797573312,-0.484375,0.0625,0.84375
1629797573343,-0.484375,0.0625,0.84375
1629797573375,-0.484375,0.0625,0.84375
1629797573406,-0.484375,0.0625,0.84375
1629797573437,-0.484375,0.0625,0.859375
1629797573468,-0.484375,0.0625,0.859375
1629797573500,-0.484375,0.0625,0.859375
1629797573531,-0.484375,0.0625,0.859375
1629797573562,-0.5,0.0625,0.859375
1629797573593,-0.484375,0.0625,0.859375
1629797573625,-0.484375,0.0625,0.859375
1629797573656,-0.484375,0.0625,0.859375
1629797573687,-0.484375,0.0625,0.859375
1629797573718,-0.484375,0.0625,0.859375
1629797573750,-0.484375,0.0625,0.859375
1629797573781,-0.484375,0.0625,0.859375
1629797573812,-0.484375,0.0625,0.859375
1629797573843,-0.484375,0.0625,0.84375
1629797573875,-0.484375,0.0625,0.84375
1629797573906,-0.484375,0.0625,0.859375
1629797573937,-0.484375,0.0625,0.84375
1629797573968,-0.484375,0.0625,0.859375
1629797574000,-0.484375,0.0625,0.859375
1629797574031,-0.484375,0.0625,0.859375
1629797574062,-0.484375,0.0625,0.859375
1629797574093,-0.484375,0.0625,0.859375
1629797574125,-0.484375,0.0625,0.859375
1629797574156,-0.484375,0.0625,0.859375
1629797574187,-0.484375,0.0625,0.859375
1629797574218,-0.484375,0.0625,0.859375
1629797574250,-0.484375,0.0625,0.859375
1629797574281,-0.484375,0.0625,0.859375
1629797574312,-0.46875,0.0625,0.859375
1629797574343,-0.484375,0.0625,0.859375
1629797574375,-0.484375,0.0625,0.859375
1629797574406,-0.484375,0.0625,0.859375
1629797574437,-0.46875,0.0625,0.859375
1629797574468,-0.46875,0.0625,0.859375
1629797574500,-0.46875,0.0625,0.859375
1629797574531,-0.484375,0.0625,0.859375
1629797574562,-0.46875,0.0625,0.859375
1629797574593,-0.46875,0.0625,0.859375
1629797574625,-0.46875,0.0625,0.859375
1629797574656,-0.46875,0.0625,0.859375
1629797574687,-0.46875,0.0625,0.859375
1629797574718,-0.46875,0.0625,0.859375
1629797574750,-0.46875,0.0625,0.859375
1629797574781,-0.46875,0.0625,0.859375
1629797574812,-0.46875,0.0625,0.859375
1629797574843,-0.46875,0.0625,0.84375
1629797574875,-0.46875,0.0625,0.859375
1629797574906,-0.46875,0.0625,0.859375
1629797574937,-0.46875,0.0625,0.859375
1629797574968,-0.46875,0.0625,0.859375
1629797575000,-0.484375,0.0625,0.859375
1629797575031,-0.484375,0.0625,0.859375
1629797575062,-0.46875,0.0625,0.859375
1629797575093,-0.484375,0.0625,0.859375
1629797575125,-0.46875,0.0625,0.859375
1629797575156,-0.46875,0.0625,0.859375
1629797575187,-0.46875,0.0625,0.859375
1629797575218,-0.46875,0.0625,0.859375
1629797575250,-0.484375,0.0625,0.84375
1629797575281,-0.484375,0.0625,0.859375
1629797575312,-0.484375,0.0625,0.859375
1629797575343,-0.484375,0.0625,0.859375
1629797575375,-0.46875,0.0625,0.859375
1629797575406,-0.46875,0.0625,0.859375
1629797575437,-0.46875,0.0625,0.859375
1629797575468,-0.484375,0.0625,0.859375
1629797575500,-0.484375,0.0625,0.859375
1629797575531,-0.46875,0.0625,0.859375
1629797575562,-0.484375,0.0625,0.859375
1629797575593,-0.484375,0.0625,0.84375
1629797575625,-0.46875,0.0625,0.859375
1629797575656,-0.484375,0.0625,0.859375
1629797575687,-0.484375,0.0625,0.859375
1629797575718,-0.484375,0.0625,0.859375
1629797575750,-0.484375,0.0625,0.859375
1629797575781,-0.484375,0.0625,0.859375
1629797575812,-0.484375,0.0625,0.859375
1629797575843,-0.484375,0.0625,0.859375
1629797575875,-0.484375,0.0625,0.859375
1629797575906,-0.484375,0.0625,0.859375
1629797575937,-0.484375,0.0625,0.859375
1629797575968,-0.484375,0.0625,0.859375
1629797576000,-0.484375,0.0625,0.859375
1629797576031,-0.484375,0.0625,0.859375
1629797576062,-0.484375,0.0625,0.859375
1629797576093,-0.484375,0.0625,0.859375
1629797576125,-0.484375,0.0625,0.859375
1629797576156,-0.484375,0.0625,0.859375
1629797576187,-0.484375,0.0625,0.859375
1629797576218,-0.484375,0.0625,0.859375
1629797576250,-0.484375,0.0625,0.84375
1629797576281,-0.484375,0.0625,0.84375
1629797576312,-0.484375,0.0625,0.859375
1629797576343,-0.484375,0.0625,0.859375
1629797576375,-0.484375,0.0625,0.859375
1629797576406,-0.484375,0.0625,0.859375
1629797576437,-0.484375,0.0625,0.859375
1629797576468,-0.484375,0.0625,0.859375
1629797576500,-0.484375,0.0625,0.859375
1629797576531,-0.484375,0.0625,0.859375
1629797576562,-0.484375,0.0625,0.859375
1629797576593,-0.484375,0.0625,0.859375
1629797576625,-0.484375,0.0625,0.859375
1629797576656,-0.484375,0.0625,0.859375
1629797576687,-0.484375,0.0625,0.859375
1629797576718,-0.484375,0.0625,0.84375
1629797576750,-0.484375,0.0625,0.84375
1629797576781,-0.484375,0.0625,0.84375
1629797576812,-0.484375,0.0625,0.859375
1629797576843,-0.484375,0.0625,0.84375
1629797576875,-0.5,0.0625,0.859375
1629797576906,-0.484375,0.0625,0.84375
1629797576937,-0.5,0.0625,0.84375
1629797576968,-0.484375,0.0625,0.84375
1629797577000,-0.5,0.0625,0.859375
1629797577031,-0.5,0.0625,0.859375
1629797577062,-0.484375,0.0625,0.859375
1629797577093,-0.5,0.0625,0.859375
1629797577125,-0.484375,0.0625,0.84375
1629797577156,-0.484375,0.0625,0.859375
1629797577187,-0.484375,0.0625,0.859375
1629797577218,-0.484375,0.0625,0.84375
1629797577250,-0.484375,0.0625,0.859375
1629797577281,-0.484375,0.0625,0.84375
1629797577312,-0.484375,0.0625,0.859375
1629797577343,-0.484375,0.0625,0.859375
1629797577375,-0.484375,0.0625,0.859375
1629797577406,-0.484375,0.0625,0.859375
1629797577437,-0.484375,0.0625,0.859375
1629797577468,-0.484375,0.0625,0.859375
1629797577500,-0.484375,0.0625,0.859375
1629797577531,-0.484375,0.0625,0.859375
1629797577562,-0.484375,0.0625,0.859375
1629797577593,-0.484375,0.0625,0.859375
1629797577625,-0.484375,0.0625,0.859375
1629797577656,-0.484375,0.0625,0.859375
1629797577687,-0.484375,0.0625,0.859375
1629797577718,-0.484375,0.0625,0.859375
1629797577750,-0.484375,0.0625,0.859375
1629797577781,-0.46875,0.0625,0.859375
1629797577812,-0.46875,0.0625,0.859375
1629797577843,-0.484375,0.0625,0.859375
1629797577875,-0.46875,0.0625,0.859375
1629797577906,-0.46875,0.0625,0.859375
1629797577937,-0.484375,0.0625,0.859375
1629797577968,-0.484375,0.0625,0.859375
1629797578000,-0.46875,0.0625,0.859375
1629797578031,-0.46875,0.0625,0.859375
1629797578062,-0.46875,0.0625,0.859375
1629797578093,-0.46875,0.0625,0.859375
1629797578125,-0.46875,0.0625,0.859375
1629797578156,-0.46875,0.0625,0.859375
1629797578187,-0.46875,0.0625,0.859375
1629797578218,-0.46875,0.0625,0.859375
1629797578250,-0.46875,0.0625,0.859375
1629797578281,-0.46875,0.0625,0.859375
1629797578312,-0.46875,0.0625,0.859375
1629797578343,-0.46875,0.0625,0.859375
1629797578375,-0.46875,0.0625,0.859375
1629797578406,-0.46875,0.0625,0.859375
1629797578437,-0.46875,0.0625,0.859375
1629797578468,-0.46875,0.0625,0.859375
1629797578500,-0.46875,0.0625,0.859375
1629797578531,-0.46875,0.0625,0.859375
1629797578562,-0.46875,0.0625,0.859375
1629797578593,-0.46875,0.0625,0.859375
1629797578625,-0.46875,0.0625,0.859375
1629797578656,-0.46875,0.0625,0.859375
1629797578687,-0.46875,0.0625,0.859375
1629797578718,-0.46875,0.0625,0.859375
1629797578750,-0.46875,0.0625,0.859375
1629797578781,-0.484375,0.0625,0.859375
1629797578812,-0.46875,0.0625,0.859375
1629797578843,-0.46875,0.0625,0.859375
1629797578875,-0.46875,0.0625,0.859375
1629797578906,-0.46875,0.0625,0.859375
1629797578937,-0.484375,0.0625,0.859375
1629797578968,-0.484375,0.0625,0.859375
1629797579000,-0.46875,0.0625,0.859375
1629797579031,-0.484375,0.0625,0.859375
1629797579062,-0.46875,0.0625,0.859375
1629797579093,-0.46875,0.0625,0.859375
1629797579125,-0.46875,0.0625,0.84375
1629797579156,-0.46875,0.0625,0.84375
1629797579187,-0.484375,0.0625,0.859375
1629797579218,-0.484375,0.0625,0.859375
1629797579250,-0.46875,0.0625,0.859375
1629797579281,-0.46875,0.0625,0.859375
1629797579312,-0.46875,0.0625,0.859375
1629797579343,-0.484375,0.0625,0.859375
1629797579375,-0.484375,0.0625,0.859375
1629797579406,-0.484375,0.0625,0.859375
1629797579437,-0.484375,0.0625,0.859375
1629797579468,-0.484375,0.0625,0.859375
1629797579500,-0.484375,0.0625,0.859375
1629797579531,-0.484375,0.0625,0.859375
1629797579562,-0.484375,0.0625,0.859375
1629797579593,-0.484375,0.0625,0.859375
1629797579625,-0.484375,0.0625,0.859375
1629797579656,-0.484375,0.0625,0.859375
1629797579687,-0.484375,0.0625,0.84375
1629797579718,-0.484375,0.0625,0.84375
1629797579750,-0.484375,0.0625,0.859375
1629797579781,-0.484375,0.0625,0.859375
1629797579812,-0.484375,0.0625,0.859375
1629797579843,-0.484375,0.0625,0.859375
1629797579875,-0.484375,0.0625,0.859375
1629797579906,-0.484375,0.0625,0.859375
1629797579937,-0.484375,0.0625,0.859375
1629797579968,-0.484375,0.0625,0.859375
1629797580000,-0.484375,0.0625,0.859375
1629797580031,-0.484375,0.0625,0.859375
1629797580062,-0.484375,0.0625,0.859375
1629797580093,-0.484375,0.0625,0.84375
1629797580125,-0.484375,0.0625,0.84375
1629797580156,-0.484375,0.0625,0.84375
1629797580187,-0.5,0.0625,0.859375
1629797580218,-0.484375,0.0625,0.859375
1629797580250,-0.484375,0.0625,0.859375
1629797580281,-0.5,0.0625,0.859375
1629797580312,-0.5,0.0625,0.859375
1629797580343,-0.5,0.0625,0.859375
1629797580375,-0.5,0.0625,0.859375
1629797580406,-0.484375,0.0625,0.84375
1629797580437,-0.484375,0.0625,0.859375
1629797580468,-0.5,0.0625,0.859375
1629797580500,-0.5,0.0625,0.84375
1629797580531,-0.484375,0.0625,0.859375
1629797580562,-0.484375,0.0625,0.859375
1629797580593,-0.5,0.0625,0.859375
1629797580625,-0.484375,0.0625,0.859375
1629797580656,-0.5,0.0625,0.84375
1629797580687,-0.484375,0.0625,0.84375
1629797580718,-0.5,0.0625,0.859375
1629797580750,-0.5,0.0625,0.84375
1629797580781,-0.484375,0.0625,0.859375
1629797580812,-0.5,0.0625,0.84375
1629797580843,-0.5,0.0625,0.859375
1629797580875,-0.5,0.0625,0.859375
1629797580906,-0.5,0.0625,0.84375
1629797580937,-0.5,0.0625,0.859375
1629797580968,-0.484375,0.0625,0.84375
1629797581000,-0.5,0.0625,0.859375
1629797581031,-0.484375,0.0625,0.859375
1629797581062,-0.484375,0.0625,0.859375
1629797581093,-0.484375,0.0625,0.859375
1629797581125,-0.484375,0.0625,0.84375
1629797581156,-0.484375,0.0625,0.859375
1629797581187,-0.484375,0.0625,0.859375
1629797581218,-0.484375,0.0625,0.859375
1629797581250,-0.484375,0.0625,0.859375
1629797581281,-0.484375,0.0625,0.859375
1629797581312,-0.484375,0.0625,0.859375
1629797581343,-0.484375,0.0625,0.859375
1629797581375,-0.484375,0.0625,0.859375
1629797581406,-0.484375,0.0625,0.84375
1629797581437,-0.484375,0.0625,0.859375
1629797581468,-0.484375,0.0625,0.859375
1629797581500,-0.484375,0.0625,0.859375
1629797581531,-0.484375,0.0625,0.859375
1629797581562,-0.484375,0.0625,0.859375
1629797581593,-0.484375,0.0625,0.859375
1629797581625,-0.484375,0.0625,0.859375
1629797581656,-0.484375,0.0625,0.859375
1629797581687,-0.484375,0.0625,0.859375
1629797581718,-0.484375,0.0625,0.859375
1629797581750,-0.484375,0.0625,0.859375
1629797581781,-0.484375,0.0625,0.859375
1629797581812,-0.484375,0.0625,0.859375
1629797581843,-0.484375,0.0625,0.859375
1629797581875,-0.484375,0.0625,0.859375
1629797581906,-0.484375,0.0625,0.859375
1629797581937,-0.46875,0.0625,0.859375
1629797581968,-0.484375,0.0625,0.859375
1629797582000,-0.46875,0.0625,0.859375
1629797582031,-0.46875,0.0625,0.859375
1629797582062,-0.46875,0.0625,0.859375
1629797582093,-0.484375,0.0625,0.859375
1629797582125,-0.484375,0.0625,0.859375
1629797582156,-0.484375,0.0625,0.859375
1629797582187,-0.46875,0.0625,0.859375
1629797582218,-0.46875,0.0625,0.859375
1629797582250,-0.46875,0.0625,0.859375
1629797582281,-0.46875,0.0625,0.859375
1629797582312,-0.484375,0.0625,0.859375
1629797582343,-0.46875,0.0625,0.859375
1629797582375,-0.46875,0.0625,0.859375
1629797582406,-0.484375,0.0625,0.859375
1629797582437,-0.46875,0.0625,0.859375
1629797582468,-0.46875,0.0625,0.859375
1629797582500,-0.484375,0.0625,0.859375
1629797582531,-0.484375,0.0625,0.859375
1629797582562,-0.46875,0.0625,0.859375
1629797582593,-0.484375,0.0625,0.859375
1629797582625,-0.484375,0.0625,0.859375
1629797582656,-0.46875,0.0625,0.859375
1629797582687,-0.46875,0.0625,0.859375
1629797582718,-0.484375,0.0625,0.859375
1629797582750,-0.484375,0.0625,0.859375
1629797582781,-0.484375,0.0625,0.859375
1629797582812,-0.484375,0.0625,0.859375
1629797582843,-0.484375,0.0625,0.859375
1629797582875,-0.46875,0.0625,0.859375
1629797582906,-0.484375,0.0625,0.859375
1629797582937,-0.484375,0.0625,0.859375
1629797582968,-0.484375,0.0625,0.859375
1629797583000,-0.484375,0.0625,0.859375
1629797583031,-0.46875,0.0625,0.859375
1629797583062,-0.484375,0.0625,0.84375
1629797583093,-0.484375,0.0625,0.859375
1629797583125,-0.484375,0.0625,0.859375
1629797583156,-0.484375,0.0625,0.859375
1629797583187,-0.484375,0.0625,0.859375
1629797583218,-0.484375,0.0625,0.859375
1629797583250,-0.46875,0.0625,0.859375
1629797583281,-0.484375,0.0625,0.859375
1629797583312,-0.484375,0.0625,0.84375
1629797583343,-0.484375,0.0625,0.859375
1629797583375,-0.484375,0.0625,0.859375
1629797583406,-0.484375,0.0625,0.859375
1629797583437,-0.46875,0.0625,0.859375
1629797583468,-0.484375,0.0625,0.859375
1629797583500,-0.484375,0.0625,0.859375
1629797583531,-0.484375,0.0625,0.859375
1629797583562,-0.484375,0.0625,0.859375
1629797583593,-0.484375,0.0625,0.859375
1629797583625,-0.484375,0.0625,0.859375
1629797583656,-0.484375,0.0625,0.859375
1629797583687,-0.484375,0.0625,0.859375
1629797583718,-0.484375,0.0625,0.859375
1629797583750,-0.484375,0.0625,0.859375
1629797583781,-0.484375,0.0625,0.859375
1629797583812,-0.5,0.0625,0.84375
1629797583843,-0.484375,0.0625,0.84375
1629797583875,-0.484375,0.0625,0.859375
1629797583906,-0.484375,0.0625,0.859375
1629797583937,-0.484375,0.0625,0.84375
1629797583968,-0.484375,0.0625,0.84375
1629797584000,-0.484375,0.0625,0.84375
1629797584031,-0.484375,0.0625,0.84375
1629797584062,-0.484375,0.0625,0.84375
1629797584093,-0.484375,0.0625,0.84375
1629797584125,-0.484375,0.0625,0.84375
1629797584156,-0.484375,0.0625,0.84375
1629797584187,-0.5,0.0625,0.859375
1629797584218,-0.484375,0.0625,0.859375
1629797584250,-0.484375,0.0625,0.859375
1629797584281,-0.484375,0.0625,0.84375
1629797584312,-0.484375,0.0625,0.859375
1629797584343,-0.5,0.0625,0.84375
1629797584375,-0.484375,0.0625,0.84375
1629797584406,-0.484375,0.0625,0.859375
1629797584437,-0.5,0.0625,0.859375
1629797584468,-0.5,0.0625,0.859375
1629797584500,-0.484375,0.0625,0.859375
1629797584531,-0.484375,0.0625,0.859375
1629797584562,-0.484375,0.0625,0.859375
1629797584593,-0.484375,0.0625,0.84375
1629797584625,-0.484375,0.0625,0.859375
1629797584656,-0.484375,0.0625,0.84375
1629797584687,-0.484375,0.0625,0.84375
1629797584718,-0.484375,0.0625,0.859375
1629797584750,-0.484375,0.0625,0.859375
1629797584781,-0.484375,0.0625,0.859375
1629797584812,-0.484375,0.0625,0.859375
1629797584843,-0.484375,0.0625,0.859375
1629797584875,-0.484375,0.0625,0.859375
1629797584906,-0.484375,0.0625,0.859375
1629797584937,-0.484375,0.0625,0.859375
1629797584968,-0.484375,0.0625,0.859375
1629797585000,-0.46875,0.0625,0.859375
1629797585031,-0.46875,0.0625,0.859375
1629797585062,-0.484375,0.0625,0.859375
1629797585093,-0.484375,0.0625,0.84375
1629797585125,-0.484375,0.0625,0.859375
1629797585156,-0.484375,0.0625,0.859375
1629797585187,-0.484375,0.0625,0.859375
1629797585218,-0.46875,0.0625,0.859375
1629797585250,-0.46875,0.0625,0.859375
1629797585281,-0.484375,0.0625,0.859375
1629797585312,-0.484375,0.0625,0.859375
1629797585343,-0.46875,0.0625,0.859375
1629797585375,-0.46875,0.0625,0.859375
1629797585406,-0.46875,0.0625,0.859375
1629797585437,-0.46875,0.0625,0.859375
1629797585468,-0.484375,0.0625,0.859375
1629797585500,-0.46875,0.0625,0.859375
1629797585531,-0.46875,0.0625,0.859375
1629797585562,-0.46875,0.0625,0.859375
1629797585593,-0.46875,0.0625,0.859375
1629797585625,-0.46875,0.0625,0.859375
1629797585656,-0.46875,0.0625,0.859375
1629797585687,-0.484375,0.0625,0.859375
1629797585718,-0.46875,0.0625,0.859375
1629797585750,-0.46875,0.0625,0.859375
1629797585781,-0.484375,0.0625,0.859375
1629797585812,-0.46875,0.0625,0.859375
1629797585843,-0.46875,0.0625,0.859375
1629797585875,-0.46875,0.0625,0.859375
1629797585906,-0.484375,0.0625,0.84375
1629797585937,-0.484375,0.0625,0.859375
1629797585968,-0.46875,0.0625,0.859375
1629797586000,-0.46875,0.0625,0.859375
1629797586031,-0.484375,0.0625,0.859375
1629797586062,-0.484375,0.0625,0.84375
1629797586093,-0.484375,0.0625,0.859375
1629797586125,-0.484375,0.0625,0.859375
1629797586156,-0.46875,0.0625,0.859375
1629797586187,-0.46875,0.0625,0.859375
1629797586218,-0.484375,0.0625,0.859375
1629797586250,-0.484375,0.0625,0.84375
1629797586281,-0.484375,0.0625,0.859375
1629797586312,-0.484375,0.0625,0.859375
1629797586343,-0.484375,0.0625,0.859375
1629797586375,-0.484375,0.0625,0.859375
1629797586406,-0.484375,0.0625,0.859375
1629797586437,-0.46875,0.0625,0.859375
1629797586468,-0.484375,0.0625,0.859375
1629797586500,-0.46875,0.0625,0.859375
1629797586531,-0.46875,0.0625,0.859375
1629797586562,-0.484375,0.0625,0.859375
1629797586593,-0.484375,0.0625,0.859375
1629797586625,-0.484375,0.0625,0.859375
1629797586656,-0.484375,0.0625,0.859375
1629797586687,-0.484375,0.0625,0.84375
1629797586718,-0.484375,0.0625,0.859375
1629797586750,-0.484375,0.0625,0.859375
1629797586781,-0.484375,0.0625,0.859375
1629797586812,-0.484375,0.0625,0.859375
1629797586843,-0.484375,0.0625,0.859375
1629797586875,-0.484375,0.0625,0.859375
1629797586906,-0.484375,0.0625,0.859375
1629797586937,-0.484375,0.0625,0.859375
1629797586968,-0.484375,0.0625,0.859375
1629797587000,-0.484375,0.0625,0.84375
1629797587031,-0.484375,0.0625,0.84375
1629797587062,-0.484375,0.0625,0.859375
1629797587093,-0.484375,0.0625,0.859375
1629797587125,-0.484375,0.0625,0.859375
1629797587156,-0.484375,0.0625,0.859375
1629797587187,-0.484375,0.0625,0.859375
1629797587218,-0.484375,0.0625,0.859375
1629797587250,-0.484375,0.0625,0.859375
1629797587281,-0.484375,0.0625,0.859375
1629797587312,-0.484375,0.0625,0.859375
1629797587343,-0.484375,0.0625,0.859375
1629797587375,-0.484375,0.0625,0.859375
1629797587406,-0.484375,0.0625,0.859375
1629797587437,-0.484375,0.0625,0.859375
1629797587468,-0.484375,0.0625,0.859375
1629797587500,-0.484375,0.0625,0.859375
1629797587531,-0.484375,0.0625,0.859375
1629797587562,-0.484375,0.0625,0.859375
1629797587593,-0.484375,0.0625,0.859375
1629797587625,-0.484375,0.0625,0.859375
1629797587656,-0.484375,0.0625,0.859375
1629797587687,-0.484375,0.0625,0.859375
1629797587718,-0.484375,0.0625,0.859375
1629797587750,-0.484375,0.0625,0.84375
1629797587781,-0.484375,0.0625,0.859375
1629797587812,-0.5,0.0625,0.859375
1629797587843,-0.484375,0.0625,0.859375
1629797587875,-0.5,0.0625,0.859375
1629797587906,-0.484375,0.0625,0.859375
1629797587937,-0.5,0.0625,0.859375
1629797587968,-0.5,0.0625,0.875
1629797588000,-0.5,0.078125,0.859375
1629797588031,-0.5,0.0625,0.859375
1629797588062,-0.484375,0.0625,0.859375
1629797588093,-0.46875,0.0625,0.84375
1629797588125,-0.46875,0.0625,0.84375
1629797588156,-0.46875,0.0625,0.84375
1629797588187,-0.46875,0.0625,0.859375
1629797588218,-0.46875,0.0625,0.859375
1629797588250,-0.46875,0.0625,0.875
1629797588281,-0.453125,0.0625,0.890625
1629797588312,-0.453125,0.0625,0.890625
1629797588343,-0.4375,0.078125,0.875
1629797588375,-0.4375,0.078125,0.890625
1629797588406,-0.4375,0.078125,0.875
1629797588437,-0.421875,0.078125,0.875
1629797588468,-0.421875,0.078125,0.875
1629797588500,-0.421875,0.078125,0.875
1629797588531,-0.421875,0.078125,0.875
1629797588562,-0.421875,0.078125,0.875
1629797588593,-0.40625,0.078125,0.875
1629797588625,-0.40625,0.078125,0.875
1629797588656,-0.40625,0.078125,0.875
1629797588687,-0.40625,0.078125,0.875
1629797588718,-0.40625,0.078125,0.890625
1629797588750,-0.40625,0.078125,0.890625
1629797588781,-0.40625,0.078125,0.890625
1629797588812,-0.40625,0.078125,0.890625
1629797588843,-0.40625,0.078125,0.890625
1629797588875,-0.40625,0.078125,0.875
1629797588906,-0.40625,0.078125,0.875
1629797588937,-0.40625,0.078125,0.875
1629797588968,-0.421875,0.078125,0.875
1629797589000,-0.4375,0.078125,0.875
1629797589031,-0.4375,0.078125,0.890625
1629797589062,-0.4375,0.0625,0.875
1629797589093,-0.453125,0.078125,0.875
1629797589125,-0.4375,0.078125,0.875
1629797589156,-0.453125,0.0625,0.875
1629797589187,-0.453125,0.0625,0.875
1629797589218,-0.46875,0.078125,0.875
1629797589250,-0.46875,0.0625,0.875
1629797589281,-0.46875,0.0625,0.875
1629797589312,-0.46875,0.0625,0.875
1629797589343,-0.46875,0.0625,0.875
1629797589375,-0.46875,0.0625,0.875
1629797589406,-0.46875,0.0625,0.875
1629797589437,-0.453125,0.0625,0.875
1629797589468,-0.453125,0.0625,0.875
1629797589500,-0.4375,0.0625,0.875
1629797589531,-0.4375,0.0625,0.875
1629797589562,-0.4375,0.0625,0.875
1629797589593,-0.4375,0.0625,0.875
1629797589625,-0.4375,0.0625,0.875
1629797589656,-0.4375,0.0625,0.875
1629797589687,-0.4375,0.0625,0.875
1629797589718,-0.421875,0.0625,0.875
1629797589750,-0.421875,0.0625,0.875
1629797589781,-0.4375,0.0625,0.875
1629797589812,-0.4375,0.0625,0.875
1629797589843,-0.4375,0.0625,0.875
1629797589875,-0.4375,0.0625,0.875
1629797589906,-0.4375,0.0625,0.875
1629797589937,-0.4375,0.046875,0.875
1629797589968,-0.4375,0.046875,0.875
1629797590000,-0.453125,0.046875,0.875
1629797590031,-0.453125,0.046875,0.875
1629797590062,-0.453125,0.046875,0.875
1629797590093,-0.453125,0.046875,0.875
1629797590125,-0.453125,0.0625,0.875
1629797590156,-0.453125,0.0625,0.875
1629797590187,-0.453125,0.0625,0.875
1629797590218,-0.453125,0.0625,0.875
1629797590250,-0.46875,0.0625,0.875
1629797590281,-0.453125,0.0625,0.875
1629797590312,-0.453125,0.0625,0.875
1629797590343,-0.46875,0.0625,0.875
1629797590375,-0.46875,0.0625,0.875
1629797590406,-0.46875,0.0625,0.875
1629797590437,-0.46875,0.0625,0.875
1629797590468,-0.46875,0.0625,0.875
1629797590500,-0.46875,0.0625,0.875
1629797590531,-0.46875,0.0625,0.875
1629797590562,-0.453125,0.0625,0.859375
1629797590593,-0.4375,0.0625,0.859375
1629797590625,-0.4375,0.0625,0.859375
1629797590656,-0.4375,0.0625,0.875
1629797590687,-0.4375,0.0625,0.875
1629797590718,-0.453125,0.0625,0.875
1629797590750,-0.453125,0.0625,0.875
1629797590781,-0.4375,0.0625,0.875
1629797590812,-0.4375,0.078125,0.875
1629797590843,-0.453125,0.0625,0.875
1629797590875,-0.4375,0.078125,0.859375
1629797590906,-0.453125,0.078125,0.859375
1629797590937,-0.453125,0.078125,0.859375
1629797590968,-0.46875,0.0625,0.875
1629797591000,-0.46875,0.0625,0.875
1629797591031,-0.46875,0.0625,0.875
1629797591062,-0.46875,0.0625,0.875
1629797591093,-0.46875,0.0625,0.875
1629797591125,-0.46875,0.0625,0.859375
1629797591156,-0.46875,0.0625,0.859375
1629797591187,-0.46875,0.0625,0.859375
1629797591218,-0.46875,0.0625,0.859375
1629797591250,-0.46875,0.0625,0.875
1629797591281,-0.46875,0.0625,0.859375
1629797591312,-0.46875,0.0625,0.859375
1629797591343,-0.46875,0.046875,0.859375
1629797591375,-0.46875,0.046875,0.859375
1629797591406,-0.46875,0.046875,0.859375
1629797591437,-0.46875,0.0625,0.859375
1629797591468,-0.46875,0.0625,0.859375
1629797591500,-0.46875,0.0625,0.859375
1629797591531,-0.46875,0.0625,0.859375
1629797591562,-0.46875,0.0625,0.875
1629797591593,-0.453125,0.0625,0.875
1629797591625,-0.453125,0.0625,0.859375
1629797591656,-0.453125,0.0625,0.859375
1629797591687,-0.453125,0.0625,0.859375
1629797591718,-0.453125,0.0625,0.859375
1629797591750,-0.453125,0.078125,0.859375
1629797591781,-0.453125,0.078125,0.859375
1629797591812,-0.46875,0.0625,0.859375
1629797591843,-0.46875,0.0625,0.875
1629797591875,-0.46875,0.0625,0.875
1629797591906,-0.453125,0.0625,0.875
1629797591937,-0.46875,0.0625,0.859375
1629797591968,-0.46875,0.0625,0.859375
1629797592000,-0.46875,0.0625,0.859375
1629797592031,-0.46875,0.0625,0.859375
1629797592062,-0.484375,0.0625,0.875
1629797592093,-0.46875,0.046875,0.859375
1629797592125,-0.46875,0.046875,0.859375
1629797592156,-0.46875,0.046875,0.859375
1629797592187,-0.46875,0.03125,0.859375
1629797592218,-0.46875,0.03125,0.859375
1629797592250,-0.46875,0.03125,0.859375
1629797592281,-0.46875,0.03125,0.875
1629797592312,-0.484375,0.015625,0.859375
1629797592343,-0.484375,0.015625,0.875
1629797592375,-0.484375,0.015625,0.875
1629797592406,-0.484375,0.03125,0.859375
1629797592437,-0.484375,0.03125,0.859375
1629797592468,-0.484375,0.03125,0.859375
1629797592500,-0.46875,0.03125,0.859375
1629797592531,-0.46875,0.03125,0.859375
1629797592562,-0.46875,0.046875,0.859375
1629797592593,-0.46875,0.046875,0.875
1629797592625,-0.46875,0.046875,0.875
1629797592656,-0.46875,0.046875,0.875
1629797592687,-0.453125,0.046875,0.875
1629797592718,-0.453125,0.0625,0.875
1629797592750,-0.453125,0.0625,0.875
1629797592781,-0.453125,0.0625,0.875
1629797592812,-0.453125,0.0625,0.859375
1629797592843,-0.453125,0.0625,0.859375
1629797592875,-0.453125,0.0625,0.859375
1629797592906,-0.453125,0.046875,0.859375
1629797592937,-0.453125,0.0625,0.859375
1629797592968,-0.46875,0.046875,0.859375
1629797593000,-0.46875,0.046875,0.875
1629797593031,-0.46875,0.046875,0.875
1629797593062,-0.46875,0.046875,0.875
1629797593093,-0.46875,0.046875,0.875
1629797593125,-0.46875,0.046875,0.859375
1629797593156,-0.46875,0.046875,0.859375
1629797593187,-0.46875,0.03125,0.859375
1629797593218,-0.46875,0.03125,0.859375
1629797593250,-0.46875,0.03125,0.859375
1629797593281,-0.46875,0.03125,0.859375
1629797593312,-0.46875,0.046875,0.875
1629797593343,-0.46875,0.03125,0.875
1629797593375,-0.46875,0.03125,0.875
1629797593406,-0.46875,0.03125,0.875
1629797593437,-0.453125,0.046875,0.859375
1629797593468,-0.453125,0.046875,0.859375
1629797593500,-0.453125,0.03125,0.859375
1629797593531,-0.453125,0.03125,0.859375
1629797593562,-0.453125,0.03125,0.859375
1629797593593,-0.453125,0.03125,0.859375
1629797593625,-0.453125,0.03125,0.859375
1629797593656,-0.453125,0.03125,0.875
1629797593687,-0.453125,0.046875,0.875
1629797593718,-0.453125,0.046875,0.875
1629797593750,-0.453125,0.046875,0.875
1629797593781,-0.453125,0.046875,0.875
1629797593812,-0.453125,0.0625,0.875
1629797593843,-0.453125,0.0625,0.875
1629797593875,-0.453125,0.0625,0.875
1629797593906,-0.453125,0.0625,0.859375
1629797593937,-0.46875,0.0625,0.859375
1629797593968,-0.46875,0.0625,0.859375
1629797594000,-0.46875,0.0625,0.875
1629797594031,-0.46875,0.0625,0.875
1629797594062,-0.46875,0.078125,0.859375
1629797594093,-0.46875,0.078125,0.859375
1629797594125,-0.453125,0.0625,0.859375
1629797594156,-0.46875,0.078125,0.859375
1629797594187,-0.453125,0.078125,0.859375
1629797594218,-0.46875,0.078125,0.859375
1629797594250,-0.46875,0.078125,0.875
1629797594281,-0.46875,0.078125,0.875
1629797594312,-0.46875,0.078125,0.859375
1629797594343,-0.453125,0.078125,0.859375
1629797594375,-0.453125,0.0625,0.859375
1629797594406,-0.453125,0.0625,0.859375
1629797594437,-0.453125,0.0625,0.875
1629797594468,-0.46875,0.0625,0.875
1629797594500,-0.46875,0.0625,0.875
1629797594531,-0.46875,0.0625,0.859375
1629797594562,-0.46875,0.0625,0.859375
1629797594593,-0.46875,0.0625,0.859375
1629797594625,-0.46875,0.0625,0.859375
1629797594656,-0.46875,0.0625,0.859375
1629797594687,-0.46875,0.078125,0.859375
1629797594718,-0.46875,0.078125,0.859375
1629797594750,-0.46875,0.078125,0.859375
1629797594781,-0.46875,0.078125,0.859375
1629797594812,-0.46875,0.078125,0.859375
1629797594843,-0.46875,0.09375,0.859375
1629797594875,-0.46875,0.078125,0.859375
1629797594906,-0.46875,0.09375,0.859375
1629797594937,-0.46875,0.09375,0.859375
1629797594968,-0.46875,0.09375,0.859375
1629797595000,-0.46875,0.09375,0.859375
1629797595031,-0.46875,0.09375,0.859375
1629797595062,-0.46875,0.09375,0.859375
1629797595093,-0.46875,0.09375,0.859375
1629797595125,-0.46875,0.09375,0.859375
1629797595156,-0.46875,0.09375,0.859375
1629797595187,-0.46875,0.09375,0.859375
1629797595218,-0.46875,0.09375,0.859375
1629797595250,-0.46875,0.09375,0.859375
1629797595281,-0.46875,0.09375,0.859375
1629797595312,-0.46875,0.078125,0.859375
1629797595343,-0.46875,0.09375,0.859375
1629797595375,-0.46875,0.078125,0.859375
1629797595406,-0.46875,0.078125,0.859375
1629797595437,-0.46875,0.078125,0.859375
1629797595468,-0.46875,0.078125,0.859375
1629797595500,-0.46875,0.078125,0.859375
1629797595531,-0.46875,0.0625,0.859375
1629797595562,-0.46875,0.0625,0.859375
1629797595593,-0.46875,0.078125,0.859375
1629797595625,-0.46875,0.0625,0.859375
1629797595656,-0.46875,0.0625,0.859375
1629797595687,-0.46875,0.078125,0.859375
1629797595718,-0.46875,0.078125,0.859375
1629797595750,-0.46875,0.078125,0.859375
1629797595781,-0.484375,0.0625,0.859375
1629797595812,-0.484375,0.0625,0.859375
1629797595843,-0.46875,0.046875,0.859375
1629797595875,-0.46875,0.046875,0.859375
1629797595906,-0.484375,0.046875,0.859375
1629797595937,-0.484375,0.046875,0.859375
1629797595968,-0.484375,0.03125,0.859375
1629797596000,-0.484375,0.03125,0.859375
1629797596031,-0.484375,0.03125,0.859375
1629797596062,-0.484375,0.03125,0.859375
1629797596093,-0.484375,0.03125,0.859375
1629797596125,-0.484375,0.03125,0.859375
1629797596156,-0.484375,0.03125,0.859375
1629797596187,-0.484375,0.03125,0.859375
1629797596218,-0.484375,0.03125,0.859375
1629797596250,-0.484375,0.03125,0.859375
1629797596281,-0.484375,0.03125,0.859375
1629797596312,-0.484375,0.03125,0.859375
1629797596343,-0.46875,0.03125,0.859375
1629797596375,-0.46875,0.03125,0.859375
1629797596406,-0.46875,0.03125,0.859375
1629797596437,-0.46875,0.03125,0.859375
1629797596468,-0.46875,0.03125,0.859375
1629797596500,-0.46875,0.046875,0.859375
1629797596531,-0.46875,0.03125,0.859375
1629797596562,-0.46875,0.046875,0.859375
1629797596593,-0.46875,0.046875,0.859375
1629797596625,-0.46875,0.046875,0.859375
1629797596656,-0.46875,0.046875,0.859375
1629797596687,-0.46875,0.046875,0.859375
1629797596718,-0.46875,0.046875,0.875
1629797596750,-0.46875,0.046875,0.859375
1629797596781,-0.46875,0.046875,0.859375
1629797596812,-0.46875,0.046875,0.859375
1629797596843,-0.46875,0.0625,0.859375
1629797596875,-0.46875,0.0625,0.875
1629797596906,-0.453125,0.0625,0.859375
1629797596937,-0.46875,0.0625,0.859375
1629797596968,-0.46875,0.0625,0.859375
1629797597000,-0.46875,0.0625,0.875
1629797597031,-0.46875,0.0625,0.875
1629797597062,-0.453125,0.0625,0.875
1629797597093,-0.453125,0.0625,0.875
1629797597125,-0.453125,0.0625,0.859375
1629797597156,-0.453125,0.0625,0.859375
1629797597187,-0.453125,0.0625,0.859375
1629797597218,-0.453125,0.0625,0.859375
1629797597250,-0.453125,0.0625,0.875
1629797597281,-0.453125,0.0625,0.859375
1629797597312,-0.453125,0.0625,0.875
1629797597343,-0.453125,0.0625,0.859375
1629797597375,-0.453125,0.0625,0.859375
1629797597406,-0.453125,0.0625,0.875
1629797597437,-0.46875,0.0625,0.875
1629797597468,-0.453125,0.046875,0.875
1629797597500,-0.46875,0.046875,0.875
1629797597531,-0.46875,0.046875,0.875
1629797597562,-0.46875,0.046875,0.875
1629797597593,-0.46875,0.046875,0.859375
1629797597625,-0.46875,0.046875,0.859375
1629797597656,-0.46875,0.046875,0.875
1629797597687,-0.46875,0.046875,0.859375
1629797597718,-0.46875,0.046875,0.859375
1629797597750,-0.46875,0.046875,0.859375
1629797597781,-0.46875,0.046875,0.875
1629797597812,-0.46875,0.046875,0.859375
1629797597843,-0.46875,0.046875,0.859375
1629797597875,-0.46875,0.046875,0.859375
1629797597906,-0.46875,0.046875,0.859375
1629797597937,-0.46875,0.046875,0.859375
1629797597968,-0.46875,0.046875,0.875
1629797598000,-0.46875,0.046875,0.875
1629797598031,-0.46875,0.046875,0.875
1629797598062,-0.46875,0.046875,0.859375
1629797598093,-0.46875,0.046875,0.859375
1629797598125,-0.46875,0.046875,0.859375
1629797598156,-0.46875,0.046875,0.859375
1629797598187,-0.46875,0.046875,0.859375
1629797598218,-0.46875,0.046875,0.859375
1629797598250,-0.453125,0.046875,0.875
1629797598281,-0.46875,0.046875,0.875
1629797598312,-0.46875,0.046875,0.859375
1629797598343,-0.46875,0.0625,0.875
1629797598375,-0.46875,0.0625,0.875
1629797598406,-0.46875,0.046875,0.859375
1629797598437,-0.46875,0.046875,0.859375
1629797598468,-0.46875,0.046875,0.859375
1629797598500,-0.46875,0.0625,0.859375
1629797598531,-0.46875,0.046875,0.859375
1629797598562,-0.46875,0.046875,0.859375
1629797598593,-0.46875,0.046875,0.859375
1629797598625,-0.46875,0.046875,0.859375
1629797598656,-0.46875,0.046875,0.875
1629797598687,-0.46875,0.046875,0.875
1629797598718,-0.46875,0.046875,0.875
1629797598750,-0.46875,0.046875,0.859375
1629797598781,-0.46875,0.046875,0.859375
1629797598812,-0.46875,0.046875,0.859375
1629797598843,-0.46875,0.046875,0.859375
1629797598875,-0.46875,0.046875,0.859375
1629797598906,-0.46875,0.046875,0.859375
1629797598937,-0.46875,0.046875,0.859375
1629797598968,-0.46875,0.046875,0.859375
1629797599000,-0.46875,0.046875,0.859375
1629797599031,-0.46875,0.046875,0.859375
1629797599062,-0.46875,0.046875,0.859375
1629797599093,-0.46875,0.046875,0.875
1629797599125,-0.46875,0.046875,0.859375
1629797599156,-0.46875,0.046875,0.859375
1629797599187,-0.46875,0.046875,0.859375
1629797599218,-0.46875,0.046875,0.859375
1629797599250,-0.46875,0.046875,0.859375
1629797599281,-0.46875,0.046875,0.875
1629797599312,-0.46875,0.046875,0.859375
1629797599343,-0.46875,0.046875,0.859375
1629797599375,-0.46875,0.046875,0.859375
1629797599406,-0.46875,0.046875,0.859375
1629797599437,-0.46875,0.046875,0.859375
1629797599468,-0.46875,0.046875,0.859375
1629797599500,-0.46875,0.046875,0.859375
1629797599531,-0.46875,0.046875,0.859375
1629797599562,-0.46875,0.046875,0.859375
1629797599593,-0.46875,0.046875,0.859375
1629797599625,-0.46875,0.046875,0.859375
1629797599656,-0.46875,0.046875,0.859375
1629797599687,-0.46875,0.046875,0.859375
1629797599718,-0.46875,0.046875,0.859375
1629797599750,-0.46875,0.046875,0.859375
1629797599781,-0.46875,0.046875,0.859375
1629797599812,-0.46875,0.046875,0.859375
1629797599843,-0.46875,0.046875,0.859375
1629797599875,-0.46875,0.046875,0.859375
1629797599906,-0.46875,0.0625,0.859375
1629797599937,-0.46875,0.046875,0.859375
1629797599968,-0.484375,0.046875,0.859375
1629797600000,-0.46875,0.046875,0.859375
1629797600031,-0.46875,0.046875,0.859375
1629797600062,-0.46875,0.046875,0.859375
1629797600093,-0.46875,0.046875,0.859375
1629797600125,-0.46875,0.046875,0.859375
1629797600156,-0.46875,0.046875,0.859375
1629797600187,-0.46875,0.046875,0.859375
1629797600218,-0.46875,0.046875,0.859375
1629797600250,-0.46875,0.046875,0.859375
1629797600281,-0.46875,0.046875,0.859375
1629797600312,-0.46875,0.046875,0.859375
1629797600343,-0.46875,0.046875,0.859375
1629797600375,-0.46875,0.046875,0.859375
1629797600406,-0.46875,0.046875,0.859375
1629797600437,-0.46875,0.046875,0.859375
1629797600468,-0.46875,0.046875,0.859375
1629797600500,-0.46875,0.046875,0.859375
1629797600531,-0.46875,0.046875,0.859375
1629797600562,-0.46875,0.046875,0.859375
1629797600593,-0.46875,0.046875,0.859375
1629797600625,-0.46875,0.046875,0.859375
1629797600656,-0.46875,0.046875,0.859375
1629797600687,-0.46875,0.046875,0.859375
1629797600718,-0.46875,0.046875,0.859375
1629797600750,-0.46875,0.046875,0.859375
1629797600781,-0.46875,0.046875,0.875
1629797600812,-0.46875,0.046875,0.859375
1629797600843,-0.46875,0.046875,0.859375
1629797600875,-0.46875,0.046875,0.859375
1629797600906,-0.46875,0.046875,0.859375
1629797600937,-0.46875,0.046875,0.859375
1629797600968,-0.46875,0.046875,0.859375
1629797601000,-0.46875,0.046875,0.875
1629797601031,-0.46875,0.046875,0.859375
1629797601062,-0.46875,0.046875,0.875
1629797601093,-0.46875,0.046875,0.875
1629797601125,-0.453125,0.046875,0.875
1629797601156,-0.453125,0.046875,0.875
1629797601187,-0.46875,0.046875,0.859375
1629797601218,-0.453125,0.046875,0.859375
1629797601250,-0.453125,0.046875,0.875
1629797601281,-0.453125,0.046875,0.859375
1629797601312,-0.453125,0.046875,0.875
1629797601343,-0.453125,0.046875,0.875
1629797601375,-0.453125,0.046875,0.875
1629797601406,-0.453125,0.046875,0.875
1629797601437,-0.453125,0.046875,0.875
1629797601468,-0.453125,0.046875,0.859375
1629797601500,-0.453125,0.046875,0.875
1629797601531,-0.453125,0.046875,0.875
1629797601562,-0.453125,0.046875,0.859375
1629797601593,-0.453125,0.046875,0.859375
1629797601625,-0.453125,0.046875,0.859375
1629797601656,-0.453125,0.046875,0.875
1629797601687,-0.453125,0.046875,0.875
1629797601718,-0.453125,0.046875,0.875
1629797601750,-0.453125,0.046875,0.875
1629797601781,-0.453125,0.046875,0.875
1629797601812,-0.453125,0.046875,0.875
1629797601843,-0.453125,0.046875,0.875
1629797601875,-0.453125,0.046875,0.875
1629797601906,-0.453125,0.046875,0.859375
1629797601937,-0.453125,0.046875,0.875
1629797601968,-0.453125,0.046875,0.859375
1629797602000,-0.46875,0.046875,0.875
1629797602031,-0.46875,0.046875,0.875
1629797602062,-0.46875,0.046875,0.875
1629797602093,-0.453125,0.046875,0.859375
1629797602125,-0.453125,0.046875,0.875
1629797602156,-0.46875,0.046875,0.859375
1629797602187,-0.46875,0.046875,0.859375
1629797602218,-0.453125,0.046875,0.875
1629797602250,-0.453125,0.046875,0.875
1629797602281,-0.46875,0.046875,0.859375
1629797602312,-0.453125,0.046875,0.875
1629797602343,-0.46875,0.046875,0.875
1629797602375,-0.46875,0.046875,0.875
1629797602406,-0.46875,0.046875,0.859375
1629797602437,-0.46875,0.046875,0.859375
1629797602468,-0.46875,0.046875,0.875
1629797602500,-0.46875,0.046875,0.859375
1629797602531,-0.453125,0.046875,0.859375
1629797602562,-0.46875,0.046875,0.875
1629797602593,-0.46875,0.046875,0.859375
1629797602625,-0.46875,0.046875,0.875
1629797602656,-0.46875,0.046875,0.859375
1629797602687,-0.46875,0.046875,0.859375
1629797602718,-0.46875,0.046875,0.859375
1629797602750,-0.46875,0.046875,0.875
1629797602781,-0.46875,0.046875,0.875
1629797602812,-0.46875,0.046875,0.859375
1629797602843,-0.46875,0.046875,0.859375
1629797602875,-0.46875,0.046875,0.875
1629797602906,-0.46875,0.046875,0.859375
1629797602937,-0.46875,0.046875,0.859375
1629797602968,-0.46875,0.046875,0.859375
1629797603000,-0.46875,0.046875,0.859375
1629797603031,-0.46875,0.046875,0.859375
1629797603062,-0.46875,0.046875,0.875
1629797603093,-0.46875,0.046875,0.859375
1629797603125,-0.46875,0.046875,0.859375
1629797603156,-0.46875,0.046875,0.859375
1629797603187,-0.46875,0.046875,0.859375
1629797603218,-0.46875,0.046875,0.859375
1629797603250,-0.46875,0.046875,0.859375
1629797603281,-0.46875,0.046875,0.875
1629797603312,-0.46875,0.046875,0.859375
1629797603343,-0.46875,0.046875,0.859375
1629797603375,-0.46875,0.046875,0.859375
1629797603406,-0.46875,0.046875,0.859375
1629797603437,-0.46875,0.046875,0.859375
1629797603468,-0.46875,0.046875,0.859375
1629797603500,-0.46875,0.046875,0.859375
1629797603531,-0.46875,0.046875,0.859375
1629797603562,-0.46875,0.046875,0.859375
1629797603593,-0.46875,0.046875,0.859375
1629797603625,-0.46875,0.046875,0.859375
1629797603656,-0.46875,0.046875,0.859375
1629797603687,-0.46875,0.046875,0.859375
1629797603718,-0.46875,0.046875,0.859375
1629797603750,-0.46875,0.046875,0.859375
1629797603781,-0.46875,0.046875,0.859375
1629797603812,-0.46875,0.046875,0.859375
1629797603843,-0.46875,0.046875,0.859375
1629797603875,-0.46875,0.046875,0.859375
1629797603906,-0.46875,0.046875,0.859375
1629797603937,-0.46875,0.046875,0.859375
1629797603968,-0.46875,0.046875,0.859375
1629797604000,-0.46875,0.046875,0.859375
1629797604031,-0.46875,0.046875,0.859375
1629797604062,-0.46875,0.046875,0.859375
1629797604093,-0.46875,0.046875,0.859375
1629797604125,-0.46875,0.046875,0.875
1629797604156,-0.46875,0.046875,0.859375
1629797604187,-0.46875,0.0625,0.859375
1629797604218,-0.46875,0.0625,0.859375
1629797604250,-0.46875,0.0625,0.859375
1629797604281,-0.46875,0.046875,0.859375
1629797604312,-0.46875,0.046875,0.859375
1629797604343,-0.46875,0.046875,0.859375
1629797604375,-0.46875,0.046875,0.859375
1629797604406,-0.46875,0.046875,0.859375
1629797604437,-0.46875,0.046875,0.859375
1629797604468,-0.46875,0.046875,0.859375
1629797604500,-0.46875,0.046875,0.859375
1629797604531,-0.46875,0.046875,0.859375
1629797604562,-0.46875,0.046875,0.859375
1629797604593,-0.46875,0.046875,0.859375
1629797604625,-0.46875,0.046875,0.875
1629797604656,-0.46875,0.046875,0.859375
1629797604687,-0.46875,0.046875,0.859375
1629797604718,-0.46875,0.046875,0.875
1629797604750,-0.46875,0.046875,0.875
1629797604781,-0.46875,0.046875,0.859375
1629797604812,-0.46875,0.046875,0.859375
1629797604843,-0.453125,0.046875,0.875
1629797604875,-0.46875,0.046875,0.875
1629797604906,-0.46875,0.046875,0.859375
1629797604937,-0.46875,0.046875,0.859375
1629797604968,-0.46875,0.046875,0.875
1629797605000,-0.46875,0.046875,0.875
1629797605031,-0.453125,0.046875,0.875
1629797605062,-0.453125,0.046875,0.875
1629797605093,-0.453125,0.046875,0.875
1629797605125,-0.46875,0.046875,0.875
1629797605156,-0.453125,0.046875,0.875
1629797605187,-0.453125,0.046875,0.859375
1629797605218,-0.453125,0.046875,0.859375
1629797605250,-0.453125,0.046875,0.859375
1629797605281,-0.453125,0.046875,0.875
1629797605312,-0.453125,0.046875,0.875
1629797605343,-0.453125,0.046875,0.875
1629797605375,-0.453125,0.046875,0.875
1629797605406,-0.453125,0.046875,0.875
1629797605437,-0.453125,0.046875,0.859375
1629797605468,-0.453125,0.046875,0.859375
1629797605500,-0.453125,0.0625,0.875
1629797605531,-0.453125,0.046875,0.859375
1629797605562,-0.453125,0.046875,0.859375
1629797605593,-0.453125,0.0625,0.859375
1629797605625,-0.453125,0.046875,0.875
1629797605656,-0.453125,0.0625,0.875
1629797605687,-0.453125,0.046875,0.875
1629797605718,-0.453125,0.046875,0.875
1629797605750,-0.453125,0.0625,0.875
1629797605781,-0.453125,0.046875,0.875
1629797605812,-0.453125,0.0625,0.875
1629797605843,-0.453125,0.046875,0.859375
1629797605875,-0.453125,0.046875,0.859375
1629797605906,-0.453125,0.046875,0.875
1629797605937,-0.453125,0.046875,0.875
1629797605968,-0.453125,0.046875,0.875
1629797606000,-0.453125,0.046875,0.875
1629797606031,-0.453125,0.046875,0.875
1629797606062,-0.453125,0.046875,0.859375
1629797606093,-0.453125,0.046875,0.875
1629797606125,-0.453125,0.046875,0.875
1629797606156,-0.453125,0.0625,0.859375
1629797606187,-0.453125,0.046875,0.875
1629797606218,-0.453125,0.046875,0.875
1629797606250,-0.453125,0.0625,0.875
1629797606281,-0.453125,0.0625,0.875
1629797606312,-0.453125,0.0625,0.875
1629797606343,-0.453125,0.046875,0.875
1629797606375,-0.453125,0.046875,0.875
1629797606406,-0.453125,0.046875,0.875
1629797606437,-0.453125,0.0625,0.875
1629797606468,-0.453125,0.046875,0.859375
1629797606500,-0.453125,0.0625,0.875
1629797606531,-0.453125,0.046875,0.859375
1629797606562,-0.453125,0.0625,0.875
1629797606593,-0.453125,0.0625,0.875
1629797606625,-0.453125,0.046875,0.875
1629797606656,-0.453125,0.046875,0.875
1629797606687,-0.453125,0.046875,0.859375
1629797606718,-0.453125,0.046875,0.875
1629797606750,-0.453125,0.046875,0.859375
1629797606781,-0.453125,0.046875,0.859375
1629797606812,-0.46875,0.046875,0.859375
1629797606843,-0.46875,0.046875,0.875
1629797606875,-0.46875,0.046875,0.875
1629797606906,-0.453125,0.046875,0.875
1629797606937,-0.453125,0.046875,0.875
1629797606968,-0.453125,0.046875,0.859375
1629797607000,-0.453125,0.046875,0.875
1629797607031,-0.46875,0.046875,0.859375
1629797607062,-0.453125,0.046875,0.875
1629797607093,-0.46875,0.046875,0.859375
1629797607125,-0.453125,0.046875,0.875
1629797607156,-0.46875,0.046875,0.875
1629797607187,-0.46875,0.046875,0.875
1629797607218,-0.453125,0.046875,0.875
1629797607250,-0.453125,0.046875,0.875
1629797607281,-0.46875,0.046875,0.859375
1629797607312,-0.46875,0.046875,0.875
1629797607343,-0.46875,0.046875,0.875
1629797607375,-0.46875,0.046875,0.875
1629797607406,-0.46875,0.046875,0.875
1629797607437,-0.46875,0.046875,0.875
1629797607468,-0.46875,0.046875,0.875
1629797607500,-0.46875,0.046875,0.875
1629797607531,-0.46875,0.046875,0.859375
1629797607562,-0.46875,0.046875,0.859375
1629797607593,-0.46875,0.046875,0.859375
1629797607625,-0.46875,0.046875,0.875
1629797607656,-0.453125,0.046875,0.875
1629797607687,-0.46875,0.046875,0.859375
1629797607718,-0.46875,0.046875,0.859375
1629797607750,-0.46875,0.046875,0.859375
1629797607781,-0.46875,0.046875,0.875
1629797607812,-0.46875,0.046875,0.875
1629797607843,-0.453125,0.046875,0.875
1629797607875,-0.453125,0.046875,0.859375
1629797607906,-0.46875,0.046875,0.875
1629797607937,-0.46875,0.046875,0.875
1629797607968,-0.453125,0.046875,0.875
1629797608000,-0.453125,0.046875,0.875
1629797608031,-0.453125,0.046875,0.875
1629797608062,-0.453125,0.046875,0.875
1629797608093,-0.46875,0.046875,0.875
1629797608125,-0.453125,0.046875,0.875
1629797608156,-0.453125,0.046875,0.875
1629797608187,-0.453125,0.046875,0.875
1629797608218,-0.453125,0.046875,0.875
1629797608250,-0.453125,0.046875,0.859375
1629797608281,-0.453125,0.046875,0.875
1629797608312,-0.453125,0.046875,0.859375
1629797608343,-0.453125,0.046875,0.875
1629797608375,-0.453125,0.046875,0.859375
1629797608406,-0.453125,0.046875,0.875
1629797608437,-0.453125,0.046875,0.859375
1629797608468,-0.453125,0.046875,0.875
1629797608500,-0.453125,0.046875,0.875
1629797608531,-0.453125,0.046875,0.875
1629797608562,-0.453125,0.046875,0.875
1629797608593,-0.453125,0.046875,0.875
1629797608625,-0.453125,0.046875,0.875
1629797608656,-0.453125,0.046875,0.859375
1629797608687,-0.453125,0.046875,0.875
1629797608718,-0.453125,0.046875,0.875
1629797608750,-0.453125,0.046875,0.875
1629797608781,-0.453125,0.046875,0.875
1629797608812,-0.453125,0.046875,0.875
1629797608843,-0.453125,0.046875,0.875
1629797608875,-0.453125,0.046875,0.875
1629797608906,-0.453125,0.046875,0.875
1629797608937,-0.453125,0.046875,0.875
1629797608968,-0.453125,0.046875,0.875
1629797609000,-0.453125,0.046875,0.875
1629797609031,-0.453125,0.046875,0.875
1629797609062,-0.453125,0.046875,0.875
1629797609093,-0.453125,0.046875,0.859375
1629797609125,-0.453125,0.046875,0.859375
1629797609156,-0.453125,0.046875,0.859375
1629797609187,-0.453125,0.046875,0.859375
1629797609218,-0.453125,0.046875,0.875
1629797609250,-0.453125,0.046875,0.875
1629797609281,-0.453125,0.046875,0.875
1629797609312,-0.46875,0.046875,0.875
1629797609343,-0.453125,0.046875,0.859375
1629797609375,-0.46875,0.046875,0.875
1629797609406,-0.453125,0.046875,0.875
1629797609437,-0.453125,0.046875,0.875
1629797609468,-0.453125,0.046875,0.859375
1629797609500,-0.46875,0.046875,0.859375
1629797609531,-0.46875,0.046875,0.875
1629797609562,-0.46875,0.046875,0.875
1629797609593,-0.46875,0.046875,0.875
1629797609625,-0.453125,0.046875,0.859375
1629797609656,-0.453125,0.046875,0.859375
1629797609687,-0.46875,0.046875,0.859375
1629797609718,-0.46875,0.046875,0.875
1629797609750,-0.46875,0.046875,0.875
1629797609781,-0.46875,0.046875,0.875
1629797609812,-0.46875,0.046875,0.875
1629797609843,-0.46875,0.046875,0.875
1629797609875,-0.46875,0.046875,0.875
1629797609906,-0.46875,0.046875,0.875
1629797609937,-0.46875,0.046875,0.859375
1629797609968,-0.46875,0.046875,0.859375
1629797610000,-0.46875,0.046875,0.859375
1629797610031,-0.46875,0.046875,0.859375
1629797610062,-0.46875,0.046875,0.859375
1629797610093,-0.46875,0.046875,0.859375
1629797610125,-0.46875,0.046875,0.859375
1629797610156,-0.46875,0.046875,0.859375
1629797610187,-0.46875,0.046875,0.859375
1629797610218,-0.46875,0.046875,0.859375
1629797610250,-0.46875,0.046875,0.859375
1629797610281,-0.46875,0.046875,0.859375
1629797610312,-0.46875,0.046875,0.875
1629797610343,-0.46875,0.046875,0.859375
1629797610375,-0.46875,0.046875,0.859375
1629797610406,-0.46875,0.046875,0.859375
1629797610437,-0.46875,0.046875,0.859375
1629797610468,-0.46875,0.046875,0.859375
1629797610500,-0.46875,0.046875,0.859375
1629797610531,-0.46875,0.046875,0.859375
1629797610562,-0.46875,0.046875,0.859375
1629797610593,-0.46875,0.046875,0.859375
1629797610625,-0.46875,0.046875,0.859375
1629797610656,-0.46875,0.046875,0.859375
1629797610687,-0.46875,0.046875,0.859375
1629797610718,-0.46875,0.046875,0.859375
1629797610750,-0.46875,0.046875,0.859375
1629797610781,-0.46875,0.046875,0.859375
1629797610812,-0.46875,0.046875,0.859375
1629797610843,-0.46875,0.046875,0.859375
1629797610875,-0.46875,0.046875,0.859375
1629797610906,-0.46875,0.046875,0.859375
1629797610937,-0.46875,0.046875,0.859375
1629797610968,-0.46875,0.046875,0.859375
1629797611000,-0.46875,0.046875,0.859375
1629797611031,-0.46875,0.046875,0.859375
1629797611062,-0.484375,0.046875,0.859375
1629797611093,-0.46875,0.046875,0.859375
1629797611125,-0.46875,0.046875,0.859375
1629797611156,-0.46875,0.046875,0.859375
1629797611187,-0.46875,0.046875,0.859375
1629797611218,-0.46875,0.046875,0.859375
1629797611250,-0.46875,0.046875,0.859375
1629797611281,-0.46875,0.046875,0.859375
1629797611312,-0.46875,0.046875,0.859375
1629797611343,-0.46875,0.046875,0.859375
1629797611375,-0.46875,0.046875,0.859375
1629797611406,-0.46875,0.046875,0.859375
1629797611437,-0.484375,0.046875,0.859375
1629797611468,-0.46875,0.046875,0.859375
1629797611500,-0.484375,0.046875,0.859375
1629797611531,-0.46875,0.046875,0.859375
1629797611562,-0.46875,0.046875,0.859375
1629797611593,-0.46875,0.046875,0.859375
1629797611625,-0.46875,0.046875,0.859375
1629797611656,-0.46875,0.046875,0.859375
1629797611687,-0.484375,0.046875,0.859375
1629797611718,-0.46875,0.046875,0.859375
1629797611750,-0.46875,0.046875,0.859375
1629797611781,-0.46875,0.046875,0.859375
1629797611812,-0.46875,0.046875,0.859375
1629797611843,-0.46875,0.046875,0.859375
1629797611875,-0.46875,0.046875,0.859375
1629797611906,-0.46875,0.046875,0.859375
1629797611937,-0.46875,0.046875,0.859375
1629797611968,-0.46875,0.046875,0.859375
1629797612000,-0.46875,0.046875,0.859375
1629797612031,-0.46875,0.046875,0.859375
1629797612062,-0.46875,0.046875,0.859375
1629797612093,-0.46875,0.046875,0.859375
1629797612125,-0.46875,0.046875,0.859375
1629797612156,-0.46875,0.046875,0.859375
1629797612187,-0.46875,0.046875,0.859375
1629797612218,-0.46875,0.046875,0.859375
1629797612250,-0.46875,0.046875,0.859375
1629797612281,-0.46875,0.046875,0.875
1629797612312,-0.46875,0.046875,0.859375
1629797612343,-0.46875,0.046875,0.875
1629797612375,-0.46875,0.046875,0.875
1629797612406,-0.453125,0.046875,0.875
1629797612437,-0.453125,0.046875,0.859375
1629797612468,-0.46875,0.046875,0.859375
1629797612500,-0.46875,0.046875,0.875
1629797612531,-0.46875,0.046875,0.875
1629797612562,-0.46875,0.046875,0.875
1629797612593,-0.453125,0.046875,0.875
1629797612625,-0.453125,0.046875,0.859375
1629797612656,-0.46875,0.046875,0.859375
1629797612687,-0.46875,0.046875,0.875
1629797612718,-0.46875,0.046875,0.875
1629797612750,-0.453125,0.046875,0.875
1629797612781,-0.46875,0.046875,0.859375
1629797612812,-0.453125,0.046875,0.875
1629797612843,-0.46875,0.046875,0.875
1629797612875,-0.46875,0.046875,0.859375
1629797612906,-0.453125,0.046875,0.875
1629797612937,-0.453125,0.046875,0.859375
1629797612968,-0.453125,0.046875,0.859375
1629797613000,-0.453125,0.046875,0.875
1629797613031,-0.453125,0.046875,0.859375
1629797613062,-0.46875,0.046875,0.875
1629797613093,-0.46875,0.046875,0.875
1629797613125,-0.453125,0.046875,0.875
1629797613156,-0.46875,0.046875,0.875
1629797613187,-0.46875,0.046875,0.875
1629797613218,-0.46875,0.046875,0.875
1629797613250,-0.46875,0.046875,0.875
1629797613281,-0.453125,0.046875,0.875
1629797613312,-0.453125,0.046875,0.859375
1629797613343,-0.46875,0.046875,0.875
1629797613375,-0.453125,0.046875,0.875
1629797613406,-0.453125,0.046875,0.875
1629797613437,-0.453125,0.046875,0.859375
1629797613468,-0.46875,0.046875,0.875
1629797613500,-0.46875,0.046875,0.875
1629797613531,-0.46875,0.046875,0.875
1629797613562,-0.46875,0.046875,0.875
1629797613593,-0.453125,0.046875,0.875
1629797613625,-0.46875,0.046875,0.875
1629797613656,-0.46875,0.046875,0.859375
1629797613687,-0.46875,0.046875,0.859375
1629797613718,-0.46875,0.046875,0.875
1629797613750,-0.46875,0.046875,0.859375
1629797613781,-0.453125,0.046875,0.875
1629797613812,-0.453125,0.046875,0.859375
1629797613843,-0.46875,0.046875,0.875
1629797613875,-0.46875,0.046875,0.859375
1629797613906,-0.46875,0.046875,0.859375
1629797613937,-0.46875,0.046875,0.859375
1629797613968,-0.46875,0.046875,0.859375
1629797614000,-0.46875,0.046875,0.859375
1629797614031,-0.46875,0.046875,0.859375
1629797614062,-0.46875,0.046875,0.859375
1629797614093,-0.46875,0.046875,0.859375
1629797614125,-0.46875,0.046875,0.859375
1629797614156,-0.46875,0.046875,0.859375
1629797614187,-0.46875,0.046875,0.859375
1629797614218,-0.46875,0.046875,0.859375
1629797614250,-0.46875,0.046875,0.859375
1629797614281,-0.46875,0.046875,0.859375
1629797614312,-0.46875,0.046875,0.859375
1629797614343,-0.46875,0.046875,0.859375
1629797614375,-0.46875,0.046875,0.875
1629797614406,-0.46875,0.046875,0.859375
1629797614437,-0.46875,0.046875,0.859375
1629797614468,-0.46875,0.046875,0.859375
1629797614500,-0.46875,0.046875,0.875
1629797614531,-0.46875,0.046875,0.859375
1629797614562,-0.46875,0.046875,0.859375
1629797614593,-0.46875,0.046875,0.859375
1629797614625,-0.46875,0.046875,0.859375
1629797614656,-0.46875,0.046875,0.859375
1629797614687,-0.46875,0.046875,0.859375
1629797614718,-0.46875,0.046875,0.859375
1629797614750,-0.46875,0.046875,0.859375
1629797614781,-0.46875,0.046875,0.859375
1629797614812,-0.46875,0.046875,0.859375
1629797614843,-0.46875,0.046875,0.875
1629797614875,-0.46875,0.046875,0.859375
1629797614906,-0.46875,0.046875,0.859375
1629797614937,-0.46875,0.046875,0.859375
1629797614968,-0.46875,0.046875,0.859375
1629797615000,-0.46875,0.046875,0.859375
1629797615031,-0.46875,0.046875,0.859375
1629797615062,-0.46875,0.046875,0.859375
1629797615093,-0.46875,0.046875,0.859375
1629797615125,-0.46875,0.046875,0.859375
1629797615156,-0.46875,0.046875,0.859375
1629797615187,-0.46875,0.046875,0.859375
1629797615218,-0.46875,0.046875,0.859375
1629797615250,-0.46875,0.046875,0.859375
1629797615281,-0.46875,0.046875,0.859375
1629797615312,-0.46875,0.046875,0.859375
1629797615343,-0.46875,0.046875,0.859375
1629797615375,-0.46875,0.046875,0.859375
1629797615406,-0.46875,0.046875,0.859375
1629797615437,-0.46875,0.046875,0.859375
1629797615468,-0.46875,0.046875,0.859375
1629797615500,-0.46875,0.046875,0.859375
1629797615531,-0.46875,0.046875,0.859375
1629797615562,-0.46875,0.046875,0.859375
1629797615593,-0.46875,0.046875,0.859375
1629797615625,-0.46875,0.046875,0.859375
1629797615656,-0.46875,0.046875,0.859375
1629797615687,-0.46875,0.046875,0.859375
1629797615718,-0.46875,0.046875,0.859375
1629797615750,-0.46875,0.046875,0.859375
1629797615781,-0.46875,0.046875,0.859375
1629797615812,-0.46875,0.046875,0.859375
1629797615843,-0.46875,0.046875,0.859375
1629797615875,-0.46875,0.046875,0.859375
1629797615906,-0.46875,0.046875,0.859375
1629797615937,-0.46875,0.046875,0.875
1629797615968,-0.46875,0.046875,0.859375
1629797616000,-0.46875,0.046875,0.859375
1629797616031,-0.46875,0.046875,0.859375
1629797616062,-0.46875,0.046875,0.859375
1629797616093,-0.46875,0.046875,0.859375
1629797616125,-0.46875,0.046875,0.859375
1629797616156,-0.46875,0.046875,0.859375
1629797616187,-0.46875,0.046875,0.859375
1629797616218,-0.46875,0.046875,0.859375
1629797616250,-0.46875,0.046875,0.859375
1629797616281,-0.46875,0.046875,0.859375
1629797616312,-0.46875,0.046875,0.859375
1629797616343,-0.46875,0.046875,0.859375
1629797616375,-0.46875,0.046875,0.859375
1629797616406,-0.46875,0.046875,0.859375
1629797616437,-0.46875,0.046875,0.859375
1629797616468,-0.46875,0.046875,0.859375
1629797616500,-0.46875,0.046875,0.859375
1629797616531,-0.46875,0.046875,0.859375
1629797616562,-0.46875,0.046875,0.859375
1629797616593,-0.46875,0.046875,0.875
1629797616625,-0.46875,0.046875,0.859375
1629797616656,-0.453125,0.046875,0.859375
1629797616687,-0.46875,0.046875,0.859375
1629797616718,-0.46875,0.046875,0.875
1629797616750,-0.46875,0.046875,0.859375
1629797616781,-0.453125,0.046875,0.859375
1629797616812,-0.453125,0.046875,0.859375
1629797616843,-0.453125,0.046875,0.859375
1629797616875,-0.453125,0.046875,0.875
1629797616906,-0.46875,0.046875,0.875
1629797616937,-0.46875,0.046875,0.875
1629797616968,-0.453125,0.046875,0.875
1629797617000,-0.453125,0.046875,0.859375
1629797617031,-0.453125,0.046875,0.875
1629797617062,-0.453125,0.046875,0.859375
1629797617093,-0.453125,0.046875,0.875
1629797617125,-0.46875,0.046875,0.875
1629797617156,-0.46875,0.046875,0.875
1629797617187,-0.46875,0.046875,0.875
1629797617218,-0.46875,0.046875,0.875
1629797617250,-0.453125,0.046875,0.875
1629797617281,-0.453125,0.046875,0.859375
1629797617312,-0.453125,0.046875,0.859375
1629797617343,-0.453125,0.046875,0.875
1629797617375,-0.453125,0.046875,0.859375
1629797617406,-0.453125,0.046875,0.875
1629797617437,-0.453125,0.046875,0.859375
1629797617468,-0.453125,0.046875,0.875
1629797617500,-0.453125,0.046875,0.875
1629797617531,-0.453125,0.046875,0.875
1629797617562,-0.453125,0.046875,0.875
1629797617593,-0.453125,0.046875,0.875
1629797617625,-0.453125,0.046875,0.875
1629797617656,-0.453125,0.046875,0.875
1629797617687,-0.453125,0.046875,0.875
1629797617718,-0.453125,0.046875,0.875
1629797617750,-0.453125,0.046875,0.875
1629797617781,-0.453125,0.046875,0.875
1629797617812,-0.453125,0.046875,0.875
1629797617843,-0.453125,0.046875,0.875
1629797617875,-0.453125,0.046875,0.875
1629797617906,-0.453125,0.046875,0.875
1629797617937,-0.453125,0.046875,0.875
1629797617968,-0.453125,0.046875,0.875
1629797618000,-0.453125,0.03125,0.875
1629797618031,-0.453125,0.03125,0.875
1629797618062,-0.453125,0.03125,0.875
1629797618093,-0.453125,0.03125,0.875
1629797618125,-0.453125,0.03125,0.875
1629797618156,-0.46875,0.03125,0.875
1629797618187,-0.453125,0.03125,0.875
1629797618218,-0.453125,0.03125,0.875
1629797618250,-0.46875,0.03125,0.859375
1629797618281,-0.46875,0.03125,0.859375
1629797618312,-0.46875,0.015625,0.875
1629797618343,-0.46875,0.015625,0.875
1629797618375,-0.46875,0.015625,0.875
1629797618406,-0.46875,0.015625,0.859375
1629797618437,-0.46875,0.03125,0.875
1629797618468,-0.453125,0.03125,0.875
1629797618500,-0.46875,0.03125,0.859375
1629797618531,-0.46875,0.03125,0.859375
1629797618562,-0.46875,0.03125,0.875
1629797618593,-0.46875,0.03125,0.875
1629797618625,-0.46875,0.03125,0.859375
1629797618656,-0.46875,0.03125,0.875
1629797618687,-0.46875,0.03125,0.859375
1629797618718,-0.46875,0.03125,0.859375
1629797618750,-0.46875,0.03125,0.859375
1629797618781,-0.46875,0.03125,0.875
1629797618812,-0.46875,0.03125,0.859375
1629797618843,-0.46875,0.046875,0.859375
1629797618875,-0.46875,0.046875,0.859375
1629797618906,-0.46875,0.046875,0.859375
1629797618937,-0.46875,0.046875,0.875
1629797618968,-0.46875,0.046875,0.859375
1629797619000,-0.46875,0.046875,0.875
1629797619031,-0.46875,0.046875,0.859375
1629797619062,-0.46875,0.046875,0.859375
1629797619093,-0.46875,0.046875,0.859375
1629797619125,-0.46875,0.046875,0.859375
1629797619156,-0.46875,0.046875,0.859375
1629797619187,-0.46875,0.046875,0.859375
1629797619218,-0.46875,0.046875,0.859375
1629797619250,-0.46875,0.046875,0.859375
1629797619281,-0.46875,0.046875,0.859375
1629797619312,-0.46875,0.046875,0.859375
1629797619343,-0.46875,0.0625,0.859375
1629797619375,-0.46875,0.0625,0.859375
1629797619406,-0.46875,0.0625,0.859375
1629797619437,-0.46875,0.0625,0.859375
1629797619468,-0.46875,0.0625,0.859375
1629797619500,-0.46875,0.0625,0.859375
1629797619531,-0.46875,0.0625,0.859375
1629797619562,-0.46875,0.0625,0.859375
1629797619593,-0.46875,0.0625,0.859375
1629797619625,-0.46875,0.0625,0.859375
1629797619656,-0.46875,0.0625,0.859375
1629797619687,-0.46875,0.0625,0.859375
1629797619718,-0.46875,0.0625,0.875
1629797619750,-0.46875,0.0625,0.875
1629797619781,-0.46875,0.0625,0.859375
1629797619812,-0.46875,0.0625,0.859375
1629797619843,-0.46875,0.0625,0.859375
1629797619875,-0.46875,0.0625,0.859375
1629797619906,-0.46875,0.0625,0.859375
1629797619937,-0.46875,0.0625,0.859375
1629797619968,-0.46875,0.0625,0.859375
1629797620000,-0.46875,0.0625,0.859375
1629797620031,-0.46875,0.0625,0.859375
1629797620062,-0.46875,0.0625,0.859375
1629797620093,-0.46875,0.078125,0.859375
1629797620125,-0.46875,0.0625,0.859375
1629797620156,-0.46875,0.0625,0.859375
1629797620187,-0.46875,0.0625,0.859375
1629797620218,-0.46875,0.0625,0.859375
1629797620250,-0.46875,0.078125,0.859375
1629797620281,-0.46875,0.0625,0.859375
1629797620312,-0.46875,0.078125,0.875
1629797620343,-0.46875,0.078125,0.859375
1629797620375,-0.453125,0.0625,0.875
1629797620406,-0.453125,0.0625,0.875
1629797620437,-0.453125,0.078125,0.859375
1629797620468,-0.453125,0.0625,0.859375
1629797620500,-0.453125,0.0625,0.859375
1629797620531,-0.453125,0.0625,0.875
1629797620562,-0.453125,0.0625,0.859375
1629797620593,-0.453125,0.0625,0.859375
1629797620625,-0.453125,0.0625,0.875
1629797620656,-0.453125,0.0625,0.875
1629797620687,-0.453125,0.0625,0.875
1629797620718,-0.453125,0.0625,0.875
1629797620750,-0.453125,0.0625,0.875
1629797620781,-0.453125,0.0625,0.859375
1629797620812,-0.453125,0.0625,0.875
1629797620843,-0.453125,0.0625,0.875
1629797620875,-0.453125,0.0625,0.875
1629797620906,-0.453125,0.0625,0.875
1629797620937,-0.453125,0.0625,0.875
1629797620968,-0.453125,0.0625,0.875
1629797621000,-0.453125,0.0625,0.875
1629797621031,-0.453125,0.0625,0.875
1629797621062,-0.453125,0.0625,0.875
1629797621093,-0.453125,0.0625,0.875
1629797621125,-0.453125,0.0625,0.859375
1629797621156,-0.453125,0.0625,0.875
1629797621187,-0.453125,0.0625,0.859375
1629797621218,-0.453125,0.0625,0.875
1629797621250,-0.453125,0.0625,0.875
1629797621281,-0.453125,0.0625,0.859375
1629797621312,-0.453125,0.0625,0.875
1629797621343,-0.453125,0.0625,0.875
1629797621375,-0.453125,0.0625,0.875
1629797621406,-0.453125,0.0625,0.875
1629797621437,-0.453125,0.0625,0.875
1629797621468,-0.453125,0.0625,0.875
1629797621500,-0.453125,0.0625,0.875
1629797621531,-0.453125,0.0625,0.875
1629797621562,-0.453125,0.0625,0.875
1629797621593,-0.453125,0.0625,0.875
1629797621625,-0.453125,0.0625,0.875
1629797621656,-0.453125,0.0625,0.875
1629797621687,-0.453125,0.0625,0.875
1629797621718,-0.453125,0.0625,0.875
1629797621750,-0.453125,0.0625,0.875
1629797621781,-0.453125,0.0625,0.875
1629797621812,-0.453125,0.0625,0.875
1629797621843,-0.453125,0.0625,0.875
1629797621875,-0.453125,0.0625,0.859375
1629797621906,-0.453125,0.0625,0.875
1629797621937,-0.453125,0.0625,0.875
1629797621968,-0.453125,0.0625,0.875
1629797622000,-0.453125,0.0625,0.875
1629797622031,-0.453125,0.0625,0.875
1629797622062,-0.453125,0.0625,0.859375
1629797622093,-0.46875,0.0625,0.875
1629797622125,-0.46875,0.0625,0.859375
1629797622156,-0.453125,0.0625,0.859375
1629797622187,-0.46875,0.0625,0.859375
1629797622218,-0.46875,0.0625,0.859375
1629797622250,-0.46875,0.0625,0.875
1629797622281,-0.46875,0.0625,0.875
1629797622312,-0.46875,0.0625,0.875
1629797622343,-0.46875,0.0625,0.859375
1629797622375,-0.46875,0.0625,0.859375
1629797622406,-0.46875,0.0625,0.859375
1629797622437,-0.46875,0.0625,0.859375
1629797622468,-0.46875,0.0625,0.859375
1629797622500,-0.453125,0.0625,0.875
1629797622531,-0.453125,0.0625,0.875
1629797622562,-0.46875,0.0625,0.859375
1629797622593,-0.46875,0.0625,0.859375
1629797622625,-0.46875,0.0625,0.859375
1629797622656,-0.46875,0.0625,0.859375
1629797622687,-0.46875,0.0625,0.875
1629797622718,-0.46875,0.0625,0.875
1629797622750,-0.46875,0.0625,0.875
1629797622781,-0.46875,0.0625,0.859375
1629797622812,-0.46875,0.0625,0.859375
1629797622843,-0.46875,0.0625,0.859375
1629797622875,-0.46875,0.0625,0.859375
1629797622906,-0.46875,0.0625,0.859375
