timestamp,ax,ay,az
1631023450750,-0.96875,0.234375,0.078125
1631023450781,-0.96875,0.234375,0.078125
1631023450812,-0.96875,0.234375,0.078125
1631023450843,-0.96875,0.234375,0.078125
1631023450875,-0.96875,0.234375,0.078125
1631023450906,-0.96875,0.234375,0.078125
1631023450937,-0.96875,0.234375,0.078125
1631023450968,-0.96875,0.234375,0.078125
1631023451000,-0.96875,0.234375,0.078125
1631023451031,-0.96875,0.234375,0.078125
1631023451062,-0.96875,0.234375,0.078125
1631023451093,-0.96875,0.234375,0.078125
1631023451125,-0.96875,0.234375,0.078125
1631023451156,-0.96875,0.234375,0.078125
1631023451187,-0.96875,0.234375,0.078125
1631023451218,-0.96875,0.234375,0.078125
1631023451250,-0.96875,0.234375,0.078125
1631023451281,-0.96875,0.234375,0.078125
1631023451312,-0.96875,0.234375,0.078125
1631023451343,-0.96875,0.234375,0.078125
1631023451375,-0.96875,0.234375,0.078125
1631023451406,-0.96875,0.234375,0.078125
1631023451437,-0.96875,0.234375,0.078125
1631023451468,-0.96875,0.234375,0.078125
1631023451500,-0.96875,0.234375,0.078125
1631023451531,-0.96875,0.234375,0.078125
1631023451562,-0.96875,0.234375,0.078125
1631023451593,-0.96875,0.234375,0.078125
1631023451625,-0.96875,0.234375,0.078125
1631023451656,-0.96875,0.234375,0.078125
1631023451687,-0.96875,0.234375,0.078125
1631023451718,-0.96875,0.234375,0.078125
1631023451750,-0.96875,0.234375,0.078125
1631023451781,-0.96875,0.234375,0.078125
1631023451812,-0.984375,0.234375,0.078125
1631023451843,-0.984375,0.25,0.0625
1631023451875,-0.984375,0.234375,0.0625
1631023451906,-0.984375,0.25,0.03125
1631023451937,-0.984375,0.25,0.0625
1631023451968,-1.0,0.234375,0.0625
1631023452000,-1.03125,0.234375,0.015625
1631023452031,-1.046875,0.21875,0.015625
1631023452062,-0.921875,0.234375,0.15625
1631023452093,-0.90625,0.265625,0.28125
1631023452125,-0.90625,0.25,0.296875
1631023452156,-0.90625,0.25,0.296875
1631023452187,-0.90625,0.234375,0.296875
1631023452218,-0.875,0.25,0.34375
1631023452250,-0.875,0.265625,0.296875
1631023452281,-0.9375,0.265625,0.21875
1631023452312,-1.03125,0.21875,0.078125
1631023452343,-1.03125,0.21875,0.0625
1631023452375,-0.953125,0.234375,0.15625
1631023452406,-0.9375,0.234375,0.1875
1631023452437,-0.96875,0.25,0.1875
1631023452468,-1.0,0.25,0.203125
1631023452500,-0.953125,0.25,0.21875
1631023452531,-0.921875,0.265625,0.21875
1631023452562,-0.90625,0.25,0.15625
1631023452593,-0.9375,0.25,0.109375
1631023452625,-0.9375,0.203125,0.140625
1631023452656,-0.96875,0.21875,0.1875
1631023452687,-0.96875,0.203125,0.21875
1631023452718,-0.96875,0.21875,0.203125
1631023452750,-0.96875,0.21875,0.1875
1631023452781,-0.9375,0.234375,0.203125
1631023452812,-0.703125,0.3125,0.390625
1631023452843,-0.859375,0.25,0.21875
1631023452875,-1.046875,0.140625,-0.046875
1631023452906,-1.046875,0.140625,-0.09375
1631023452937,-1.03125,0.1875,-0.125
1631023452968,-1.046875,0.171875,-0.171875
1631023453000,-1.078125,0.1875,-0.15625
1631023453031,-0.984375,0.203125,-0.046875
1631023453062,-0.921875,0.21875,0.046875
1631023453093,-0.953125,0.203125,0.078125
1631023453125,-0.96875,0.171875,0.015625
1631023453156,-0.984375,0.171875,0.0
1631023453187,-1.0,0.1875,0.0
1631023453218,-0.984375,0.203125,0.0
1631023453250,-0.96875,0.203125,0.0
1631023453281,-0.953125,0.203125,0.015625
1631023453312,-0.96875,0.203125,0.015625
1631023453343,-0.984375,0.203125,0.0
1631023453375,-1.0,0.1875,-0.03125
1631023453406,-0.984375,0.1875,-0.046875
1631023453437,-0.984375,0.1875,-0.046875
1631023453468,-0.984375,0.1875,-0.03125
1631023453500,-0.984375,0.21875,0.046875
1631023453531,-1.03125,0.203125,0.015625
1631023453562,-1.0,0.203125,0.015625
1631023453593,-0.96875,0.203125,0.015625
1631023453625,-0.96875,0.1875,0.03125
1631023453656,-0.9375,0.203125,0.09375
1631023453687,-0.953125,0.203125,0.140625
1631023453718,-0.953125,0.21875,0.140625
1631023453750,-0.96875,0.203125,0.109375
1631023453781,-0.96875,0.203125,0.09375
1631023453812,-0.96875,0.203125,0.109375
1631023453843,-0.96875,0.203125,0.125
1631023453875,-0.96875,0.21875,0.109375
1631023453906,-0.984375,0.21875,0.09375
1631023453937,-0.96875,0.21875,0.109375
1631023453968,-0.96875,0.21875,0.109375
1631023454000,-0.953125,0.21875,0.109375
1631023454031,-0.953125,0.21875,0.109375
1631023454062,-0.96875,0.21875,0.109375
1631023454093,-0.96875,0.21875,0.109375
1631023454125,-0.96875,0.21875,0.125
1631023454156,-0.96875,0.21875,0.109375
1631023454187,-0.96875,0.21875,0.109375
1631023454218,-0.96875,0.21875,0.078125
1631023454250,-0.984375,0.234375,0.09375
1631023454281,-0.984375,0.234375,0.09375
1631023454312,-0.96875,0.234375,0.09375
1631023454343,-0.96875,0.234375,0.09375
1631023454375,-0.96875,0.234375,0.09375
1631023454406,-0.96875,0.234375,0.109375
1631023454437,-0.96875,0.21875,0.109375
1631023454468,-0.96875,0.21875,0.109375
1631023454500,-0.96875,0.21875,0.09375
1631023454531,-0.96875,0.21875,0.09375
1631023454562,-0.96875,0.21875,0.09375
1631023454593,-0.96875,0.21875,0.109375
1631023454625,-0.96875,0.21875,0.109375
1631023454656,-0.96875,0.21875,0.109375
1631023454687,-0.96875,0.21875,0.109375
1631023454718,-0.96875,0.21875,0.125
1631023454750,-0.96875,0.21875,0.125
1631023454781,-0.96875,0.21875,0.109375
1631023454812,-0.96875,0.21875,0.109375
1631023454843,-0.96875,0.21875,0.109375
1631023454875,-0.96875,0.21875,0.109375
1631023454906,-0.96875,0.21875,0.109375
1631023454937,-0.96875,0.21875,0.109375
1631023454968,-0.96875,0.21875,0.109375
1631023455000,-0.96875,0.21875,0.109375
1631023455031,-0.96875,0.21875,0.109375
1631023455062,-0.96875,0.21875,0.109375
1631023455093,-0.96875,0.21875,0.109375
1631023455125,-0.96875,0.21875,0.109375
1631023455156,-0.96875,0.21875,0.109375
1631023455187,-1.0,0.21875,0.09375
1631023455218,-1.0,0.21875,0.109375
1631023455250,-0.984375,0.203125,0.09375
1631023455281,-0.921875,0.203125,0.125
1631023455312,-0.9375,0.1875,0.109375
1631023455343,-0.96875,0.203125,0.140625
1631023455375,-0.96875,0.21875,0.15625
1631023455406,-0.96875,0.203125,0.15625
1631023455437,-0.953125,0.203125,0.125
1631023455468,-0.953125,0.203125,0.125
1631023455500,-0.984375,0.21875,0.125
1631023455531,-0.984375,0.21875,0.125
1631023455562,-0.96875,0.21875,0.140625
1631023455593,-0.96875,0.203125,0.125
1631023455625,-0.96875,0.203125,0.125
1631023455656,-0.96875,0.21875,0.140625
1631023455687,-0.96875,0.21875,0.125
1631023455718,-0.96875,0.21875,0.125
1631023455750,-0.96875,0.21875,0.125
1631023455781,-0.96875,0.21875,0.125
1631023455812,-0.96875,0.21875,0.125
1631023455843,-0.953125,0.21875,0.140625
1631023455875,-0.96875,0.21875,0.140625
1631023455906,-0.96875,0.21875,0.125
1631023455937,-0.96875,0.203125,0.125
1631023455968,-0.96875,0.203125,0.140625
1631023456000,-0.96875,0.203125,0.125
1631023456031,-0.96875,0.203125,0.125
1631023456062,-0.96875,0.203125,0.125
1631023456093,-0.96875,0.21875,0.125
1631023456125,-0.96875,0.21875,0.125
1631023456156,-0.96875,0.21875,0.125
1631023456187,-0.96875,0.21875,0.125
1631023456218,-0.96875,0.203125,0.125
1631023456250,-0.96875,0.21875,0.125
1631023456281,-0.96875,0.21875,0.125
1631023456312,-0.96875,0.21875,0.125
1631023456343,-0.96875,0.21875,0.125
1631023456375,-0.96875,0.21875,0.125
1631023456406,-0.96875,0.21875,0.125
1631023456437,-0.96875,0.21875,0.125
1631023456468,-0.96875,0.21875,0.125
1631023456500,-0.96875,0.21875,0.125
1631023456531,-0.96875,0.21875,0.125
1631023456562,-0.96875,0.21875,0.125
1631023456593,-0.96875,0.21875,0.125
1631023456625,-0.96875,0.21875,0.125
1631023456656,-0.96875,0.21875,0.125
1631023456687,-0.96875,0.21875,0.125
1631023456718,-0.96875,0.21875,0.125
1631023456750,-0.96875,0.21875,0.125
1631023456781,-0.96875,0.21875,0.125
1631023456812,-0.96875,0.21875,0.125
1631023456843,-0.96875,0.21875,0.125
1631023456875,-0.96875,0.21875,0.125
1631023456906,-0.96875,0.21875,0.125
1631023456937,-0.96875,0.21875,0.125
1631023456968,-0.96875,0.21875,0.125
1631023457000,-0.96875,0.21875,0.125
1631023457031,-0.96875,0.21875,0.125
1631023457062,-0.96875,0.21875,0.140625
1631023457093,-0.96875,0.21875,0.125
1631023457125,-0.96875,0.21875,0.125
1631023457156,-0.96875,0.21875,0.125
1631023457187,-0.96875,0.21875,0.125
1631023457218,-0.96875,0.21875,0.140625
1631023457250,-0.96875,0.21875,0.125
1631023457281,-0.96875,0.21875,0.125
1631023457312,-0.96875,0.21875,0.140625
1631023457343,-0.96875,0.21875,0.140625
1631023457375,-0.96875,0.21875,0.125
1631023457406,-0.96875,0.21875,0.125
1631023457437,-0.96875,0.21875,0.125
1631023457468,-0.96875,0.21875,0.125
1631023457500,-0.96875,0.21875,0.125
1631023457531,-0.96875,0.21875,0.125
1631023457562,-0.96875,0.21875,0.125
1631023457593,-0.96875,0.21875,0.125
1631023457625,-0.96875,0.21875,0.125
1631023457656,-0.96875,0.21875,0.125
1631023457687,-0.96875,0.21875,0.125
1631023457718,-0.96875,0.21875,0.125
1631023457750,-0.96875,0.21875,0.125
1631023457781,-0.96875,0.21875,0.125
1631023457812,-0.96875,0.21875,0.125
1631023457843,-0.96875,0.21875,0.125
1631023457875,-0.96875,0.21875,0.125
1631023457906,-0.96875,0.21875,0.125
1631023457937,-0.96875,0.21875,0.125
1631023457968,-0.96875,0.21875,0.125
1631023458000,-0.96875,0.21875,0.125
1631023458031,-0.96875,0.21875,0.125
1631023458062,-0.96875,0.21875,0.125
1631023458093,-0.96875,0.21875,0.125
1631023458125,-0.96875,0.203125,0.125
1631023458156,-0.953125,0.203125,0.125
1631023458187,-0.953125,0.21875,0.125
1631023458218,-0.984375,0.21875,0.125
1631023458250,-0.984375,0.21875,0.140625
1631023458281,-0.96875,0.234375,0.140625
1631023458312,-0.953125,0.21875,0.125
1631023458343,-0.953125,0.21875,0.125
1631023458375,-0.96875,0.21875,0.125
1631023458406,-0.96875,0.21875,0.125
1631023458437,-0.96875,0.21875,0.125
1631023458468,-0.96875,0.21875,0.125
1631023458500,-0.96875,0.21875,0.125
1631023458531,-0.96875,0.21875,0.125
1631023458562,-0.96875,0.21875,0.125
1631023458593,-0.96875,0.21875,0.125
1631023458625,-0.96875,0.21875,0.125
1631023458656,-0.96875,0.21875,0.125
1631023458687,-0.96875,0.21875,0.125
1631023458718,-0.96875,0.21875,0.125
1631023458750,-0.96875,0.21875,0.125
1631023458781,-0.96875,0.21875,0.125
1631023458812,-0.96875,0.21875,0.125
1631023458843,-0.96875,0.21875,0.125
1631023458875,-0.96875,0.21875,0.140625
1631023458906,-0.96875,0.21875,0.125
1631023458937,-0.96875,0.21875,0.125
1631023458968,-0.96875,0.21875,0.125
1631023459000,-0.96875,0.21875,0.125
1631023459031,-0.96875,0.21875,0.125
1631023459062,-0.96875,0.21875,0.125
1631023459093,-0.96875,0.21875,0.125
1631023459125,-0.96875,0.21875,0.125
1631023459156,-0.96875,0.21875,0.125
1631023459187,-0.96875,0.21875,0.125
1631023459218,-0.96875,0.21875,0.125
1631023459250,-0.96875,0.21875,0.125
1631023459281,-0.96875,0.21875,0.125
1631023459312,-0.96875,0.21875,0.125
1631023459343,-0.96875,0.21875,0.125
1631023459375,-0.96875,0.21875,0.125
1631023459406,-0.96875,0.21875,0.125
1631023459437,-0.96875,0.21875,0.125
1631023459468,-0.96875,0.21875,0.125
1631023459500,-0.96875,0.21875,0.125
1631023459531,-0.96875,0.21875,0.125
1631023459562,-0.96875,0.21875,0.125
1631023459593,-0.96875,0.21875,0.125
1631023459625,-0.96875,0.21875,0.125
1631023459656,-0.96875,0.21875,0.125
1631023459687,-0.96875,0.21875,0.125
1631023459718,-0.96875,0.21875,0.125
1631023459750,-0.96875,0.21875,0.125
1631023459781,-0.96875,0.21875,0.125
1631023459812,-0.96875,0.21875,0.125
1631023459843,-0.96875,0.21875,0.125
1631023459875,-0.96875,0.21875,0.125
1631023459906,-0.96875,0.21875,0.125
1631023459937,-0.96875,0.21875,0.125
1631023459968,-0.96875,0.21875,0.125
1631023460000,-0.96875,0.21875,0.125
1631023460031,-0.96875,0.21875,0.125
1631023460062,-0.96875,0.21875,0.125
1631023460093,-0.96875,0.21875,0.125
1631023460125,-0.96875,0.21875,0.125
1631023460156,-0.96875,0.21875,0.125
1631023460187,-0.96875,0.21875,0.125
1631023460218,-0.96875,0.21875,0.125
1631023460250,-0.96875,0.21875,0.125
1631023460281,-0.96875,0.21875,0.125
1631023460312,-0.96875,0.21875,0.125
1631023460343,-0.96875,0.21875,0.125
1631023460375,-0.96875,0.234375,0.125
1631023460406,-0.96875,0.21875,0.125
1631023460437,-0.96875,0.21875,0.125
1631023460468,-0.96875,0.21875,0.125
1631023460500,-0.96875,0.21875,0.125
1631023460531,-0.96875,0.21875,0.125
1631023460562,-0.96875,0.21875,0.125
1631023460593,-0.96875,0.234375,0.125
1631023460625,-0.96875,0.21875,0.125
1631023460656,-0.96875,0.234375,0.125
1631023460687,-0.96875,0.234375,0.125
1631023460718,-0.96875,0.21875,0.109375
1631023460750,-0.96875,0.21875,0.125
1631023460781,-0.96875,0.21875,0.125
1631023460812,-0.96875,0.21875,0.125
1631023460843,-0.96875,0.21875,0.125
1631023460875,-0.96875,0.21875,0.125
1631023460906,-0.96875,0.21875,0.125
1631023460937,-0.96875,0.21875,0.125
1631023460968,-0.96875,0.21875,0.125
1631023461000,-0.96875,0.21875,0.125
1631023461031,-0.96875,0.21875,0.125
1631023461062,-0.96875,0.21875,0.125
1631023461093,-0.96875,0.21875,0.125
1631023461125,-0.96875,0.21875,0.125
1631023461156,-0.96875,0.21875,0.125
1631023461187,-0.96875,0.21875,0.125
1631023461218,-0.96875,0.21875,0.125
1631023461250,-0.96875,0.21875,0.125
1631023461281,-0.96875,0.21875,0.125
1631023461312,-0.96875,0.21875,0.125
1631023461343,-0.96875,0.21875,0.125
1631023461375,-0.96875,0.21875,0.125
1631023461406,-0.96875,0.21875,0.125
1631023461437,-0.96875,0.21875,0.125
1631023461468,-0.96875,0.21875,0.125
1631023461500,-0.96875,0.21875,0.125
1631023461531,-0.96875,0.21875,0.125
1631023461562,-0.96875,0.21875,0.125
1631023461593,-0.96875,0.21875,0.125
1631023461625,-0.96875,0.21875,0.125
1631023461656,-0.96875,0.21875,0.125
1631023461687,-0.96875,0.21875,0.125
1631023461718,-0.96875,0.21875,0.125
1631023461750,-0.96875,0.21875,0.125
1631023461781,-0.96875,0.21875,0.125
1631023461812,-0.96875,0.21875,0.125
1631023461843,-0.96875,0.21875,0.125
1631023461875,-0.96875,0.21875,0.125
1631023461906,-0.96875,0.21875,0.125
1631023461937,-0.96875,0.21875,0.125
1631023461968,-0.96875,0.21875,0.125
1631023462000,-0.96875,0.21875,0.125
1631023462031,-0.96875,0.21875,0.125
1631023462062,-0.96875,0.21875,0.125
1631023462093,-0.96875,0.21875,0.125
1631023462125,-0.96875,0.21875,0.125
1631023462156,-0.96875,0.21875,0.125
1631023462187,-0.96875,0.21875,0.125
1631023462218,-0.96875,0.21875,0.125
1631023462250,-0.96875,0.21875,0.109375
1631023462281,-0.96875,0.21875,0.125
1631023462312,-0.96875,0.21875,0.125
1631023462343,-0.96875,0.21875,0.125
1631023462375,-0.96875,0.21875,0.125
1631023462406,-0.96875,0.21875,0.125
1631023462437,-0.96875,0.21875,0.125
1631023462468,-0.96875,0.21875,0.125
1631023462500,-0.96875,0.21875,0.125
1631023462531,-0.96875,0.21875,0.125
1631023462562,-0.96875,0.21875,0.125
1631023462593,-0.96875,0.21875,0.125
1631023462625,-0.96875,0.21875,0.125
1631023462656,-0.96875,0.21875,0.125
1631023462687,-0.96875,0.21875,0.125
1631023462718,-0.96875,0.21875,0.125
1631023462750,-0.96875,0.21875,0.125
1631023462781,-0.96875,0.21875,0.125
1631023462812,-0.96875,0.21875,0.125
1631023462843,-0.96875,0.21875,0.125
1631023462875,-0.96875,0.21875,0.125
1631023462906,-0.96875,0.21875,0.125
1631023462937,-0.96875,0.21875,0.125
1631023462968,-0.96875,0.21875,0.125
1631023463000,-0.96875,0.21875,0.125
1631023463031,-0.96875,0.21875,0.125
1631023463062,-0.96875,0.21875,0.125
1631023463093,-0.96875,0.21875,0.125
1631023463125,-0.96875,0.21875,0.125
1631023463156,-0.96875,0.21875,0.125
1631023463187,-0.96875,0.21875,0.125
1631023463218,-0.96875,0.21875,0.125
1631023463250,-0.96875,0.21875,0.125
1631023463281,-0.96875,0.21875,0.125
1631023463312,-0.96875,0.21875,0.125
1631023463343,-0.96875,0.21875,0.125
1631023463375,-0.96875,0.21875,0.125
1631023463406,-0.96875,0.21875,0.125
1631023463437,-0.96875,0.21875,0.125
1631023463468,-0.96875,0.21875,0.125
1631023463500,-0.96875,0.21875,0.125
1631023463531,-0.96875,0.21875,0.125
1631023463562,-0.96875,0.21875,0.125
1631023463593,-0.96875,0.21875,0.125
1631023463625,-0.96875,0.21875,0.125
1631023463656,-0.96875,0.21875,0.125
1631023463687,-0.96875,0.21875,0.125
1631023463718,-0.96875,0.21875,0.125
1631023463750,-0.96875,0.21875,0.125
1631023463781,-0.96875,0.21875,0.109375
1631023463812,-0.96875,0.21875,0.125
1631023463843,-0.96875,0.21875,0.125
1631023463875,-0.96875,0.21875,0.125
1631023463906,-0.96875,0.21875,0.125
1631023463937,-0.96875,0.21875,0.125
1631023463968,-0.96875,0.21875,0.125
1631023464000,-0.96875,0.21875,0.125
1631023464031,-0.96875,0.21875,0.125
1631023464062,-0.96875,0.21875,0.109375
1631023464093,-0.96875,0.21875,0.109375
1631023464125,-0.96875,0.21875,0.109375
1631023464156,-0.96875,0.21875,0.125
1631023464187,-0.96875,0.21875,0.125
1631023464218,-0.96875,0.21875,0.125
1631023464250,-0.96875,0.21875,0.125
1631023464281,-0.96875,0.21875,0.125
1631023464312,-0.96875,0.21875,0.125
1631023464343,-0.96875,0.21875,0.125
1631023464375,-0.96875,0.21875,0.125
1631023464406,-0.96875,0.21875,0.125
1631023464437,-0.96875,0.21875,0.125
1631023464468,-0.96875,0.21875,0.125
1631023464500,-0.96875,0.21875,0.125
1631023464531,-0.96875,0.21875,0.125
1631023464562,-0.96875,0.21875,0.125
1631023464593,-0.96875,0.21875,0.125
1631023464625,-0.96875,0.21875,0.125
1631023464656,-0.96875,0.21875,0.125
1631023464687,-0.96875,0.21875,0.125
1631023464718,-0.96875,0.21875,0.125
1631023464750,-0.96875,0.21875,0.125
1631023464781,-0.96875,0.21875,0.125
1631023464812,-0.96875,0.21875,0.125
1631023464843,-0.96875,0.21875,0.125
1631023464875,-0.96875,0.21875,0.125
1631023464906,-0.96875,0.21875,0.125
1631023464937,-0.96875,0.21875,0.125
1631023464968,-0.96875,0.21875,0.109375
1631023465000,-0.96875,0.21875,0.125
1631023465031,-0.96875,0.21875,0.125
1631023465062,-0.96875,0.21875,0.125
1631023465093,-0.96875,0.21875,0.125
1631023465125,-0.96875,0.21875,0.125
1631023465156,-0.96875,0.21875,0.125
1631023465187,-0.96875,0.21875,0.125
1631023465218,-0.96875,0.21875,0.125
1631023465250,-0.96875,0.21875,0.125
1631023465281,-0.96875,0.21875,0.125
1631023465312,-0.96875,0.21875,0.125
1631023465343,-0.96875,0.21875,0.125
1631023465375,-0.96875,0.21875,0.109375
1631023465406,-0.96875,0.21875,0.125
1631023465437,-0.96875,0.21875,0.125
1631023465468,-0.96875,0.21875,0.125
1631023465500,-0.96875,0.21875,0.125
1631023465531,-0.96875,0.21875,0.125
1631023465562,-0.96875,0.21875,0.125
1631023465593,-0.96875,0.21875,0.125
1631023465625,-0.96875,0.21875,0.125
1631023465656,-0.96875,0.21875,0.125
1631023465687,-0.96875,0.21875,0.109375
1631023465718,-0.96875,0.21875,0.125
1631023465750,-0.96875,0.21875,0.125
1631023465781,-0.96875,0.21875,0.125
1631023465812,-0.96875,0.21875,0.125
1631023465843,-0.96875,0.21875,0.125
1631023465875,-0.96875,0.21875,0.109375
1631023465906,-0.96875,0.21875,0.125
1631023465937,-0.96875,0.21875,0.125
1631023465968,-0.96875,0.21875,0.125
1631023466000,-0.96875,0.21875,0.109375
1631023466031,-0.96875,0.21875,0.125
1631023466062,-0.96875,0.21875,0.125
1631023466093,-0.96875,0.21875,0.125
1631023466125,-0.96875,0.21875,0.125
1631023466156,-0.96875,0.21875,0.109375
1631023466187,-0.96875,0.21875,0.125
1631023466218,-0.96875,0.21875,0.109375
1631023466250,-0.96875,0.21875,0.125
1631023466281,-0.96875,0.21875,0.125
1631023466312,-0.96875,0.21875,0.125
1631023466343,-0.96875,0.21875,0.125
1631023466375,-0.96875,0.21875,0.125
1631023466406,-0.96875,0.21875,0.125
1631023466437,-0.96875,0.21875,0.125
1631023466468,-0.96875,0.21875,0.125
1631023466500,-0.96875,0.21875,0.125
1631023466531,-0.96875,0.234375,0.125
1631023466562,-0.96875,0.21875,0.109375
1631023466593,-0.96875,0.234375,0.109375
1631023466625,-0.96875,0.21875,0.109375
1631023466656,-0.96875,0.234375,0.125
1631023466687,-0.96875,0.21875,0.125
1631023466718,-0.96875,0.234375,0.109375
1631023466750,-0.96875,0.21875,0.109375
1631023466781,-0.96875,0.21875,0.109375
1631023466812,-0.96875,0.21875,0.109375
1631023466843,-0.96875,0.21875,0.125
1631023466875,-0.96875,0.21875,0.125
1631023466906,-0.96875,0.21875,0.109375
1631023466937,-0.96875,0.234375,0.125
1631023466968,-0.96875,0.21875,0.125
1631023467000,-0.96875,0.21875,0.125
1631023467031,-0.96875,0.21875,0.109375
1631023467062,-0.96875,0.21875,0.109375
1631023467093,-0.96875,0.234375,0.109375
1631023467125,-0.96875,0.21875,0.109375
1631023467156,-0.96875,0.21875,0.109375
1631023467187,-0.96875,0.21875,0.109375
1631023467218,-0.96875,0.21875,0.109375
1631023467250,-0.96875,0.21875,0.109375
1631023467281,-0.96875,0.234375,0.125
1631023467312,-0.96875,0.21875,0.109375
1631023467343,-0.96875,0.21875,0.109375
1631023467375,-0.96875,0.21875,0.109375
1631023467406,-0.96875,0.21875,0.109375
1631023467437,-0.96875,0.21875,0.109375
1631023467468,-0.96875,0.21875,0.109375
1631023467500,-0.96875,0.21875,0.109375
1631023467531,-0.96875,0.21875,0.125
1631023467562,-0.96875,0.21875,0.109375
1631023467593,-0.96875,0.21875,0.109375
1631023467625,-0.96875,0.21875,0.109375
1631023467656,-0.96875,0.21875,0.109375
1631023467687,-0.96875,0.21875,0.125
1631023467718,-0.96875,0.21875,0.125
1631023467750,-0.96875,0.21875,0.109375
1631023467781,-0.96875,0.21875,0.109375
1631023467812,-0.96875,0.21875,0.109375
1631023467843,-0.96875,0.21875,0.109375
1631023467875,-0.96875,0.21875,0.109375
1631023467906,-0.96875,0.21875,0.109375
1631023467937,-0.96875,0.21875,0.125
1631023467968,-0.96875,0.21875,0.109375
1631023468000,-0.96875,0.21875,0.109375
1631023468031,-0.96875,0.21875,0.109375
1631023468062,-0.96875,0.21875,0.109375
1631023468093,-0.96875,0.21875,0.109375
1631023468125,-0.96875,0.21875,0.125
1631023468156,-0.96875,0.21875,0.125
1631023468187,-0.96875,0.21875,0.125
1631023468218,-0.96875,0.21875,0.109375
1631023468250,-0.96875,0.21875,0.109375
1631023468281,-0.96875,0.21875,0.109375
1631023468312,-0.96875,0.21875,0.125
1631023468343,-0.96875,0.21875,0.109375
1631023468375,-0.96875,0.21875,0.109375
1631023468406,-0.96875,0.21875,0.109375
1631023468437,-0.96875,0.21875,0.109375
1631023468468,-0.96875,0.21875,0.109375
1631023468500,-0.96875,0.21875,0.109375
1631023468531,-0.96875,0.21875,0.109375
1631023468562,-0.96875,0.21875,0.109375
1631023468593,-0.96875,0.21875,0.125
1631023468625,-0.96875,0.21875,0.109375
1631023468656,-0.96875,0.21875,0.109375
1631023468687,-0.96875,0.21875,0.125
1631023468718,-0.96875,0.21875,0.109375
1631023468750,-0.96875,0.21875,0.109375
1631023468781,-0.96875,0.21875,0.125
1631023468812,-0.96875,0.21875,0.109375
1631023468843,-0.96875,0.21875,0.125
1631023468875,-0.96875,0.21875,0.125
1631023468906,-0.96875,0.21875,0.109375
1631023468937,-0.96875,0.21875,0.109375
1631023468968,-0.96875,0.21875,0.109375
1631023469000,-0.96875,0.21875,0.125
1631023469031,-0.96875,0.21875,0.109375
1631023469062,-0.96875,0.21875,0.109375
1631023469093,-0.96875,0.21875,0.109375
1631023469125,-0.96875,0.21875,0.109375
1631023469156,-0.96875,0.21875,0.125
1631023469187,-0.96875,0.21875,0.109375
1631023469218,-0.96875,0.21875,0.109375
1631023469250,-0.96875,0.21875,0.109375
1631023469281,-0.96875,0.21875,0.125
1631023469312,-0.96875,0.21875,0.109375
1631023469343,-0.96875,0.21875,0.109375
1631023469375,-0.96875,0.21875,0.109375
1631023469406,-0.96875,0.21875,0.109375
1631023469437,-0.96875,0.21875,0.109375
1631023469468,-0.96875,0.21875,0.109375
1631023469500,-0.96875,0.21875,0.109375
1631023469531,-0.96875,0.21875,0.109375
1631023469562,-0.96875,0.21875,0.109375
1631023469593,-0.96875,0.21875,0.125
1631023469625,-0.96875,0.21875,0.109375
1631023469656,-0.96875,0.21875,0.109375
1631023469687,-0.96875,0.21875,0.109375
1631023469718,-0.96875,0.21875,0.109375
1631023469750,-0.96875,0.21875,0.109375
1631023469781,-0.96875,0.21875,0.109375
1631023469812,-0.96875,0.21875,0.109375
1631023469843,-0.96875,0.21875,0.125
1631023469875,-0.96875,0.234375,0.109375
1631023469906,-0.96875,0.21875,0.109375
1631023469937,-0.96875,0.21875,0.109375
1631023469968,-0.96875,0.21875,0.109375
1631023470000,-0.96875,0.21875,0.109375
1631023470031,-0.96875,0.234375,0.109375
1631023470062,-0.96875,0.21875,0.109375
1631023470093,-0.96875,0.21875,0.109375
1631023470125,-0.96875,0.234375,0.109375
1631023470156,-0.96875,0.21875,0.125
1631023470187,-0.96875,0.21875,0.125
1631023470218,-0.96875,0.21875,0.109375
1631023470250,-0.96875,0.234375,0.109375
1631023470281,-0.96875,0.21875,0.109375
1631023470312,-0.96875,0.21875,0.109375
1631023470343,-0.96875,0.21875,0.125
1631023470375,-0.96875,0.21875,0.125
1631023470406,-0.96875,0.21875,0.109375
1631023470437,-0.96875,0.21875,0.109375
1631023470468,-0.96875,0.21875,0.109375
1631023470500,-0.96875,0.21875,0.109375
1631023470531,-0.96875,0.21875,0.109375
1631023470562,-0.96875,0.21875,0.125
1631023470593,-0.96875,0.21875,0.109375
1631023470625,-0.96875,0.21875,0.109375
1631023470656,-0.96875,0.21875,0.109375
1631023470687,-0.96875,0.21875,0.109375
1631023470718,-0.96875,0.21875,0.109375
1631023470750,-0.96875,0.21875,0.109375
1631023470781,-0.96875,0.21875,0.109375
1631023470812,-0.96875,0.21875,0.109375
1631023470843,-0.96875,0.21875,0.109375
1631023470875,-0.96875,0.21875,0.109375
1631023470906,-0.96875,0.21875,0.125
1631023470937,-0.96875,0.21875,0.109375
1631023470968,-0.96875,0.21875,0.109375
1631023471000,-0.96875,0.21875,0.109375
1631023471031,-0.96875,0.21875,0.125
1631023471062,-0.96875,0.21875,0.125
1631023471093,-0.96875,0.21875,0.125
1631023471125,-0.96875,0.21875,0.109375
1631023471156,-0.96875,0.21875,0.109375
1631023471187,-0.96875,0.21875,0.125
1631023471218,-0.96875,0.21875,0.109375
1631023471250,-0.96875,0.21875,0.109375
1631023471281,-0.96875,0.21875,0.125
1631023471312,-0.96875,0.21875,0.109375
1631023471343,-0.96875,0.21875,0.125
1631023471375,-0.96875,0.21875,0.109375
1631023471406,-0.96875,0.21875,0.125
1631023471437,-0.96875,0.21875,0.109375
1631023471468,-0.96875,0.21875,0.125
1631023471500,-0.96875,0.21875,0.125
1631023471531,-0.96875,0.21875,0.125
1631023471562,-0.96875,0.21875,0.125
1631023471593,-0.96875,0.21875,0.125
1631023471625,-0.96875,0.21875,0.109375
1631023471656,-0.96875,0.21875,0.125
1631023471687,-0.96875,0.21875,0.109375
1631023471718,-0.96875,0.21875,0.109375
1631023471750,-0.96875,0.21875,0.109375
1631023471781,-0.96875,0.21875,0.125
1631023471812,-0.96875,0.21875,0.125
1631023471843,-0.96875,0.21875,0.109375
1631023471875,-0.96875,0.21875,0.125
1631023471906,-0.96875,0.21875,0.125
1631023471937,-0.96875,0.21875,0.109375
1631023471968,-0.96875,0.21875,0.109375
1631023472000,-0.96875,0.21875,0.109375
1631023472031,-0.96875,0.21875,0.109375
1631023472062,-0.96875,0.21875,0.125
1631023472093,-0.96875,0.21875,0.109375
1631023472125,-0.96875,0.21875,0.109375
1631023472156,-0.96875,0.21875,0.109375
1631023472187,-0.96875,0.21875,0.109375
1631023472218,-0.96875,0.21875,0.125
1631023472250,-0.96875,0.21875,0.125
1631023472281,-0.96875,0.21875,0.109375
1631023472312,-0.96875,0.21875,0.109375
1631023472343,-0.96875,0.21875,0.109375
1631023472375,-0.96875,0.21875,0.109375
1631023472406,-0.96875,0.234375,0.109375
1631023472437,-0.96875,0.21875,0.109375
1631023472468,-0.96875,0.21875,0.109375
1631023472500,-0.96875,0.21875,0.109375
1631023472531,-0.96875,0.21875,0.109375
1631023472562,-0.96875,0.21875,0.109375
1631023472593,-0.96875,0.21875,0.109375
1631023472625,-0.96875,0.21875,0.109375
1631023472656,-0.96875,0.21875,0.109375
1631023472687,-0.96875,0.21875,0.109375
1631023472718,-0.96875,0.234375,0.125
1631023472750,-0.96875,0.234375,0.109375
1631023472781,-0.96875,0.21875,0.125
1631023472812,-0.96875,0.21875,0.109375
1631023472843,-0.96875,0.21875,0.109375
1631023472875,-0.96875,0.21875,0.109375
1631023472906,-0.96875,0.21875,0.109375
1631023472937,-0.96875,0.21875,0.125
1631023472968,-0.96875,0.21875,0.109375
1631023473000,-0.96875,0.21875,0.109375
1631023473031,-0.96875,0.21875,0.125
1631023473062,-0.96875,0.21875,0.125
1631023473093,-0.96875,0.21875,0.125
1631023473125,-0.96875,0.21875,0.109375
1631023473156,-0.96875,0.21875,0.109375
1631023473187,-0.96875,0.21875,0.109375
1631023473218,-0.96875,0.21875,0.109375
1631023473250,-0.96875,0.21875,0.109375
1631023473281,-0.96875,0.21875,0.109375
1631023473312,-0.96875,0.21875,0.125
1631023473343,-0.96875,0.21875,0.109375
1631023473375,-0.96875,0.21875,0.109375
1631023473406,-0.96875,0.21875,0.109375
1631023473437,-0.96875,0.21875,0.109375
1631023473468,-0.96875,0.21875,0.109375
1631023473500,-0.96875,0.21875,0.109375
1631023473531,-0.96875,0.21875,0.109375
1631023473562,-0.96875,0.21875,0.109375
1631023473593,-0.96875,0.21875,0.109375
1631023473625,-0.96875,0.21875,0.125
1631023473656,-0.96875,0.21875,0.109375
1631023473687,-0.96875,0.21875,0.109375
1631023473718,-0.96875,0.21875,0.109375
1631023473750,-0.96875,0.21875,0.125
1631023473781,-0.96875,0.21875,0.125
1631023473812,-0.96875,0.21875,0.109375
1631023473843,-0.96875,0.21875,0.109375
1631023473875,-0.96875,0.21875,0.109375
1631023473906,-0.96875,0.21875,0.109375
1631023473937,-0.96875,0.21875,0.109375
1631023473968,-0.96875,0.21875,0.125
1631023474000,-0.96875,0.21875,0.109375
1631023474031,-0.96875,0.21875,0.109375
1631023474062,-0.96875,0.21875,0.125
1631023474093,-0.96875,0.21875,0.125
1631023474125,-0.96875,0.21875,0.109375
1631023474156,-0.96875,0.21875,0.109375
1631023474187,-0.96875,0.21875,0.109375
1631023474218,-0.96875,0.21875,0.125
1631023474250,-0.96875,0.21875,0.109375
1631023474281,-0.96875,0.21875,0.109375
1631023474312,-0.96875,0.21875,0.109375
1631023474343,-0.96875,0.21875,0.109375
1631023474375,-0.96875,0.21875,0.109375
1631023474406,-0.96875,0.21875,0.125
1631023474437,-0.96875,0.21875,0.109375
1631023474468,-0.96875,0.21875,0.109375
1631023474500,-0.96875,0.21875,0.109375
1631023474531,-0.96875,0.21875,0.125
1631023474562,-0.96875,0.21875,0.125
1631023474593,-0.96875,0.21875,0.109375
1631023474625,-0.96875,0.21875,0.109375
1631023474656,-0.96875,0.21875,0.109375
1631023474687,-0.96875,0.21875,0.109375
1631023474718,-0.96875,0.21875,0.109375
1631023474750,-0.96875,0.21875,0.109375
1631023474781,-0.96875,0.21875,0.109375
1631023474812,-0.96875,0.21875,0.125
1631023474843,-0.96875,0.21875,0.109375
1631023474875,-0.96875,0.21875,0.109375
1631023474906,-0.96875,0.21875,0.125
1631023474937,-0.96875,0.21875,0.109375
1631023474968,-0.96875,0.21875,0.109375
1631023475000,-0.96875,0.21875,0.125
1631023475031,-0.96875,0.21875,0.109375
1631023475062,-0.96875,0.21875,0.109375
1631023475093,-0.96875,0.21875,0.109375
1631023475125,-0.96875,0.21875,0.109375
1631023475156,-0.96875,0.21875,0.109375
1631023475187,-0.96875,0.21875,0.109375
1631023475218,-0.96875,0.21875,0.109375
1631023475250,-0.96875,0.21875,0.109375
1631023475281,-0.96875,0.234375,0.109375
1631023475312,-0.96875,0.21875,0.109375
1631023475343,-0.96875,0.21875,0.109375
1631023475375,-0.96875,0.234375,0.109375
1631023475406,-0.96875,0.21875,0.109375
1631023475437,-0.96875,0.21875,0.125
1631023475468,-0.96875,0.21875,0.109375
1631023475500,-0.96875,0.21875,0.109375
1631023475531,-0.96875,0.234375,0.109375
1631023475562,-0.96875,0.21875,0.109375
1631023475593,-0.96875,0.21875,0.109375
1631023475625,-0.96875,0.21875,0.109375
1631023475656,-0.96875,0.21875,0.109375
1631023475687,-0.96875,0.21875,0.109375
1631023475718,-0.96875,0.21875,0.109375
1631023475750,-0.96875,0.21875,0.109375
1631023475781,-0.96875,0.234375,0.109375
1631023475812,-0.96875,0.21875,0.109375
1631023475843,-0.96875,0.21875,0.109375
1631023475875,-0.96875,0.21875,0.109375
1631023475906,-0.96875,0.21875,0.109375
1631023475937,-0.96875,0.21875,0.109375
1631023475968,-0.96875,0.21875,0.109375
1631023476000,-0.96875,0.21875,0.109375
1631023476031,-0.96875,0.21875,0.109375
1631023476062,-0.96875,0.21875,0.109375
1631023476093,-0.96875,0.21875,0.109375
1631023476125,-0.96875,0.21875,0.109375
1631023476156,-0.96875,0.21875,0.109375
1631023476187,-0.96875,0.21875,0.109375
1631023476218,-0.96875,0.21875,0.109375
1631023476250,-0.96875,0.21875,0.125
1631023476281,-0.96875,0.234375,0.109375
1631023476312,-0.96875,0.21875,0.125
1631023476343,-0.96875,0.21875,0.109375
1631023476375,-0.96875,0.21875,0.109375
1631023476406,-0.96875,0.21875,0.109375
1631023476437,-0.96875,0.21875,0.109375
1631023476468,-0.96875,0.21875,0.125
1631023476500,-0.96875,0.21875,0.109375
1631023476531,-0.96875,0.21875,0.125
1631023476562,-0.96875,0.21875,0.109375
1631023476593,-0.96875,0.21875,0.125
1631023476625,-0.96875,0.21875,0.109375
1631023476656,-0.96875,0.21875,0.125
1631023476687,-0.96875,0.21875,0.109375
1631023476718,-0.96875,0.21875,0.109375
1631023476750,-0.96875,0.21875,0.109375
1631023476781,-0.96875,0.21875,0.109375
1631023476812,-0.96875,0.21875,0.109375
1631023476843,-0.96875,0.21875,0.109375
1631023476875,-0.96875,0.21875,0.125
1631023476906,-0.96875,0.21875,0.109375
1631023476937,-0.96875,0.21875,0.109375
1631023476968,-0.96875,0.21875,0.125
1631023477000,-0.96875,0.21875,0.109375
1631023477031,-0.96875,0.21875,0.109375
1631023477062,-0.96875,0.21875,0.109375
1631023477093,-0.96875,0.21875,0.125
1631023477125,-0.96875,0.21875,0.125
1631023477156,-0.96875,0.21875,0.109375
1631023477187,-0.96875,0.21875,0.125
1631023477218,-0.96875,0.21875,0.109375
1631023477250,-0.96875,0.21875,0.125
1631023477281,-0.96875,0.21875,0.109375
1631023477312,-0.96875,0.21875,0.109375
1631023477343,-0.96875,0.21875,0.109375
1631023477375,-0.96875,0.21875,0.109375
1631023477406,-0.96875,0.21875,0.125
1631023477437,-0.96875,0.21875,0.109375
1631023477468,-0.96875,0.21875,0.109375
1631023477500,-0.96875,0.21875,0.109375
1631023477531,-0.96875,0.21875,0.125
1631023477562,-0.96875,0.21875,0.125
1631023477593,-0.96875,0.21875,0.109375
1631023477625,-0.96875,0.21875,0.125
1631023477656,-0.96875,0.21875,0.109375
1631023477687,-0.96875,0.21875,0.109375
1631023477718,-0.96875,0.21875,0.109375
1631023477750,-0.96875,0.21875,0.109375
1631023477781,-0.96875,0.21875,0.109375
1631023477812,-0.96875,0.21875,0.109375
1631023477843,-0.96875,0.21875,0.109375
1631023477875,-0.96875,0.21875,0.109375
1631023477906,-0.96875,0.21875,0.109375
1631023477937,-0.96875,0.21875,0.125
1631023477968,-0.96875,0.21875,0.125
1631023478000,-0.96875,0.21875,0.125
1631023478031,-0.96875,0.21875,0.125
1631023478062,-0.96875,0.21875,0.109375
1631023478093,-0.96875,0.21875,0.109375
1631023478125,-0.96875,0.21875,0.125
1631023478156,-0.96875,0.21875,0.109375
1631023478187,-0.96875,0.21875,0.109375
1631023478218,-0.96875,0.21875,0.109375
1631023478250,-0.96875,0.21875,0.109375
1631023478281,-0.96875,0.21875,0.109375
1631023478312,-0.96875,0.21875,0.109375
1631023478343,-0.96875,0.21875,0.109375
1631023478375,-0.96875,0.21875,0.125
1631023478406,-0.96875,0.21875,0.109375
1631023478437,-0.96875,0.21875,0.109375
1631023478468,-0.96875,0.21875,0.125
1631023478500,-0.96875,0.21875,0.109375
1631023478531,-0.96875,0.21875,0.125
1631023478562,-0.96875,0.21875,0.125
1631023478593,-0.96875,0.21875,0.109375
1631023478625,-0.96875,0.21875,0.109375
1631023478656,-0.96875,0.21875,0.109375
1631023478687,-0.96875,0.21875,0.109375
1631023478718,-0.96875,0.21875,0.109375
1631023478750,-0.96875,0.21875,0.109375
1631023478781,-0.96875,0.21875,0.109375
1631023478812,-0.96875,0.21875,0.109375
1631023478843,-0.96875,0.21875,0.109375
1631023478875,-0.96875,0.21875,0.109375
1631023478906,-0.96875,0.21875,0.109375
1631023478937,-0.96875,0.21875,0.109375
1631023478968,-0.96875,0.21875,0.109375
1631023479000,-0.96875,0.234375,0.109375
1631023479031,-0.96875,0.234375,0.109375
1631023479062,-0.96875,0.21875,0.125
1631023479093,-0.96875,0.21875,0.109375
1631023479125,-0.96875,0.21875,0.109375
1631023479156,-0.96875,0.21875,0.109375
1631023479187,-0.96875,0.21875,0.109375
1631023479218,-0.96875,0.21875,0.109375
1631023479250,-0.96875,0.21875,0.109375
1631023479281,-0.96875,0.21875,0.109375
1631023479312,-0.96875,0.21875,0.109375
1631023479343,-0.96875,0.21875,0.125
1631023479375,-0.96875,0.21875,0.109375
1631023479406,-0.96875,0.21875,0.109375
1631023479437,-0.96875,0.21875,0.109375
1631023479468,-0.96875,0.21875,0.109375
1631023479500,-0.96875,0.21875,0.109375
1631023479531,-0.96875,0.21875,0.109375
1631023479562,-0.96875,0.21875,0.109375
1631023479593,-0.96875,0.21875,0.109375
1631023479625,-0.96875,0.21875,0.109375
1631023479656,-0.96875,0.21875,0.109375
1631023479687,-0.96875,0.21875,0.109375
1631023479718,-0.96875,0.21875,0.109375
1631023479750,-0.96875,0.21875,0.109375
1631023479781,-0.96875,0.21875,0.125
1631023479812,-0.96875,0.21875,0.109375
1631023479843,-0.96875,0.21875,0.109375
1631023479875,-0.96875,0.21875,0.109375
1631023479906,-0.96875,0.21875,0.109375
1631023479937,-0.96875,0.21875,0.109375
1631023479968,-0.96875,0.21875,0.109375
1631023480000,-0.96875,0.21875,0.109375
1631023480031,-0.96875,0.21875,0.109375
1631023480062,-0.96875,0.21875,0.109375
1631023480093,-0.96875,0.21875,0.125
1631023480125,-0.96875,0.21875,0.109375
1631023480156,-0.96875,0.21875,0.109375
1631023480187,-0.96875,0.21875,0.109375
1631023480218,-0.96875,0.21875,0.125
1631023480250,-0.96875,0.21875,0.109375
1631023480281,-0.96875,0.21875,0.109375
1631023480312,-0.96875,0.21875,0.109375
1631023480343,-0.96875,0.21875,0.109375
1631023480375,-0.96875,0.21875,0.109375
1631023480406,-0.96875,0.21875,0.125
1631023480437,-0.96875,0.21875,0.125
1631023480468,-0.96875,0.21875,0.125
1631023480500,-0.96875,0.21875,0.109375
1631023480531,-0.96875,0.21875,0.125
1631023480562,-0.96875,0.21875,0.109375
1631023480593,-0.96875,0.21875,0.125
1631023480625,-0.96875,0.21875,0.109375
1631023480656,-0.96875,0.21875,0.109375
1631023480687,-0.96875,0.21875,0.125
1631023480718,-0.96875,0.21875,0.109375
1631023480750,-0.96875,0.21875,0.109375
1631023480781,-0.96875,0.21875,0.109375
1631023480812,-0.96875,0.21875,0.109375
1631023480843,-0.96875,0.21875,0.109375
1631023480875,-0.96875,0.21875,0.109375
1631023480906,-0.96875,0.21875,0.109375
1631023480937,-0.96875,0.21875,0.109375
1631023480968,-0.96875,0.21875,0.109375
1631023481000,-0.96875,0.21875,0.109375
1631023481031,-0.96875,0.21875,0.109375
1631023481062,-0.96875,0.21875,0.109375
1631023481093,-0.96875,0.21875,0.125
1631023481125,-0.96875,0.21875,0.109375
1631023481156,-0.96875,0.21875,0.125
1631023481187,-0.96875,0.21875,0.109375
1631023481218,-0.96875,0.21875,0.125
1631023481250,-0.96875,0.21875,0.109375
1631023481281,-0.96875,0.21875,0.109375
1631023481312,-0.96875,0.21875,0.109375
1631023481343,-0.96875,0.21875,0.109375
1631023481375,-0.96875,0.21875,0.109375
1631023481406,-0.96875,0.21875,0.109375
1631023481437,-0.96875,0.21875,0.109375
1631023481468,-0.96875,0.21875,0.109375
1631023481500,-0.96875,0.21875,0.125
1631023481531,-0.96875,0.21875,0.109375
1631023481562,-0.96875,0.21875,0.109375
1631023481593,-0.96875,0.21875,0.109375
1631023481625,-0.96875,0.21875,0.109375
1631023481656,-0.96875,0.21875,0.109375
1631023481687,-0.96875,0.234375,0.109375
1631023481718,-0.96875,0.21875,0.109375
1631023481750,-0.96875,0.21875,0.109375
1631023481781,-0.96875,0.21875,0.109375
1631023481812,-0.96875,0.21875,0.109375
1631023481843,-0.96875,0.21875,0.109375
1631023481875,-0.96875,0.21875,0.109375
1631023481906,-0.96875,0.21875,0.109375
1631023481937,-0.96875,0.234375,0.109375
1631023481968,-0.96875,0.21875,0.109375
1631023482000,-0.96875,0.21875,0.109375
1631023482031,-0.96875,0.234375,0.109375
1631023482062,-0.96875,0.21875,0.109375
1631023482093,-0.96875,0.21875,0.109375
1631023482125,-0.96875,0.21875,0.109375
1631023482156,-0.96875,0.234375,0.109375
1631023482187,-0.96875,0.234375,0.109375
1631023482218,-0.96875,0.234375,0.109375
1631023482250,-0.96875,0.21875,0.109375
1631023482281,-0.96875,0.21875,0.109375
1631023482312,-0.96875,0.21875,0.109375
1631023482343,-0.96875,0.234375,0.109375
1631023482375,-0.96875,0.234375,0.109375
1631023482406,-0.96875,0.21875,0.109375
1631023482437,-0.96875,0.21875,0.109375
1631023482468,-0.96875,0.234375,0.109375
1631023482500,-0.96875,0.234375,0.109375
1631023482531,-0.96875,0.21875,0.109375
1631023482562,-0.96875,0.234375,0.109375
1631023482593,-0.96875,0.234375,0.109375
1631023482625,-0.96875,0.21875,0.109375
1631023482656,-0.96875,0.234375,0.109375
1631023482687,-0.96875,0.234375,0.109375
1631023482718,-0.96875,0.234375,0.109375
1631023482750,-0.96875,0.234375,0.109375
1631023482781,-0.96875,0.21875,0.125
1631023482812,-0.96875,0.21875,0.125
1631023482843,-0.96875,0.21875,0.109375
1631023482875,-0.96875,0.21875,0.109375
1631023482906,-0.96875,0.21875,0.109375
1631023482937,-0.96875,0.234375,0.109375
1631023482968,-0.96875,0.21875,0.109375
1631023483000,-0.96875,0.21875,0.109375
1631023483031,-0.96875,0.21875,0.125
1631023483062,-0.96875,0.21875,0.109375
1631023483093,-0.96875,0.21875,0.109375
1631023483125,-0.96875,0.21875,0.109375
1631023483156,-0.96875,0.21875,0.109375
1631023483187,-0.96875,0.21875,0.109375
1631023483218,-0.96875,0.21875,0.109375
1631023483250,-0.96875,0.21875,0.109375
1631023483281,-0.96875,0.21875,0.125
1631023483312,-0.96875,0.21875,0.125
1631023483343,-0.96875,0.21875,0.109375
1631023483375,-0.96875,0.21875,0.109375
1631023483406,-0.96875,0.21875,0.109375
1631023483437,-0.96875,0.234375,0.109375
1631023483468,-0.96875,0.21875,0.109375
1631023483500,-0.96875,0.21875,0.109375
1631023483531,-0.96875,0.21875,0.109375
1631023483562,-0.96875,0.21875,0.109375
1631023483593,-0.96875,0.21875,0.109375
1631023483625,-0.96875,0.21875,0.109375
1631023483656,-0.96875,0.21875,0.109375
1631023483687,-0.96875,0.21875,0.125
1631023483718,-0.96875,0.21875,0.109375
1631023483750,-0.96875,0.21875,0.109375
1631023483781,-0.96875,0.21875,0.109375
1631023483812,-0.96875,0.21875,0.109375
1631023483843,-0.96875,0.21875,0.125
1631023483875,-0.96875,0.21875,0.109375
1631023483906,-0.96875,0.21875,0.125
1631023483937,-0.96875,0.21875,0.109375
1631023483968,-0.96875,0.21875,0.109375
1631023484000,-0.96875,0.21875,0.109375
1631023484031,-0.96875,0.21875,0.125
1631023484062,-0.96875,0.21875,0.109375
1631023484093,-0.96875,0.21875,0.109375
1631023484125,-0.96875,0.21875,0.109375
1631023484156,-0.96875,0.21875,0.109375
1631023484187,-0.96875,0.21875,0.109375
1631023484218,-0.96875,0.21875,0.109375
1631023484250,-0.96875,0.21875,0.109375
1631023484281,-0.96875,0.21875,0.109375
1631023484312,-0.96875,0.21875,0.109375
1631023484343,-0.96875,0.21875,0.125
1631023484375,-0.96875,0.21875,0.125
1631023484406,-0.96875,0.21875,0.109375
1631023484437,-0.96875,0.21875,0.109375
1631023484468,-0.96875,0.21875,0.109375
1631023484500,-0.96875,0.21875,0.125
1631023484531,-0.96875,0.21875,0.125
1631023484562,-0.96875,0.21875,0.109375
1631023484593,-0.96875,0.21875,0.125
1631023484625,-0.96875,0.21875,0.125
1631023484656,-0.96875,0.21875,0.109375
1631023484687,-0.96875,0.21875,0.109375
1631023484718,-0.96875,0.21875,0.109375
1631023484750,-0.96875,0.21875,0.109375
1631023484781,-0.96875,0.21875,0.109375
1631023484812,-0.96875,0.21875,0.109375
1631023484843,-0.96875,0.234375,0.109375
1631023484875,-0.96875,0.21875,0.125
1631023484906,-0.96875,0.21875,0.109375
1631023484937,-0.96875,0.21875,0.109375
1631023484968,-0.96875,0.21875,0.125
1631023485000,-0.96875,0.21875,0.109375
1631023485031,-0.96875,0.21875,0.109375
1631023485062,-0.96875,0.21875,0.109375
1631023485093,-0.96875,0.21875,0.109375
1631023485125,-0.96875,0.21875,0.109375
1631023485156,-0.96875,0.21875,0.109375
1631023485187,-0.96875,0.234375,0.109375
1631023485218,-0.96875,0.234375,0.109375
1631023485250,-0.96875,0.21875,0.109375
1631023485281,-0.96875,0.21875,0.109375
1631023485312,-0.96875,0.21875,0.109375
1631023485343,-0.96875,0.234375,0.109375
1631023485375,-0.96875,0.234375,0.109375
1631023485406,-0.96875,0.21875,0.109375
1631023485437,-0.96875,0.21875,0.109375
1631023485468,-0.96875,0.234375,0.109375
1631023485500,-0.96875,0.234375,0.109375
1631023485531,-0.96875,0.234375,0.109375
1631023485562,-0.96875,0.21875,0.109375
1631023485593,-0.96875,0.21875,0.109375
1631023485625,-0.96875,0.21875,0.109375
1631023485656,-0.96875,0.21875,0.109375
1631023485687,-0.96875,0.21875,0.109375
1631023485718,-0.96875,0.21875,0.109375
1631023485750,-0.96875,0.21875,0.109375
1631023485781,-0.96875,0.21875,0.109375
1631023485812,-0.96875,0.21875,0.109375
1631023485843,-0.96875,0.21875,0.109375
1631023485875,-0.96875,0.21875,0.109375
1631023485906,-0.96875,0.21875,0.109375
1631023485937,-0.96875,0.234375,0.109375
1631023485968,-0.96875,0.21875,0.109375
1631023486000,-0.96875,0.21875,0.109375
1631023486031,-0.96875,0.21875,0.109375
1631023486062,-0.96875,0.21875,0.109375
1631023486093,-0.96875,0.21875,0.109375
1631023486125,-0.96875,0.21875,0.109375
1631023486156,-0.96875,0.21875,0.109375
1631023486187,-0.96875,0.21875,0.109375
1631023486218,-0.96875,0.21875,0.109375
1631023486250,-0.96875,0.21875,0.125
1631023486281,-0.96875,0.21875,0.109375
1631023486312,-0.96875,0.21875,0.109375
1631023486343,-0.96875,0.21875,0.109375
1631023486375,-0.96875,0.21875,0.109375
1631023486406,-0.96875,0.21875,0.109375
1631023486437,-0.96875,0.21875,0.125
1631023486468,-0.96875,0.21875,0.109375
1631023486500,-0.96875,0.21875,0.109375
1631023486531,-0.96875,0.21875,0.109375
1631023486562,-0.96875,0.21875,0.109375
1631023486593,-0.96875,0.21875,0.109375
1631023486625,-0.96875,0.21875,0.109375
1631023486656,-0.96875,0.21875,0.125
1631023486687,-0.96875,0.21875,0.109375
1631023486718,-0.96875,0.21875,0.109375
1631023486750,-0.96875,0.21875,0.109375
1631023486781,-0.96875,0.21875,0.109375
1631023486812,-0.96875,0.21875,0.109375
1631023486843,-0.96875,0.21875,0.109375
1631023486875,-0.96875,0.21875,0.109375
1631023486906,-0.96875,0.21875,0.109375
1631023486937,-0.96875,0.21875,0.109375
1631023486968,-0.96875,0.21875,0.109375
1631023487000,-0.96875,0.21875,0.125
1631023487031,-0.96875,0.21875,0.109375
1631023487062,-0.96875,0.21875,0.109375
1631023487093,-0.96875,0.21875,0.109375
1631023487125,-0.96875,0.21875,0.109375
1631023487156,-0.96875,0.21875,0.109375
1631023487187,-0.96875,0.21875,0.125
1631023487218,-0.96875,0.21875,0.109375
1631023487250,-0.96875,0.21875,0.125
1631023487281,-0.96875,0.21875,0.125
1631023487312,-0.96875,0.21875,0.109375
1631023487343,-0.96875,0.21875,0.109375
1631023487375,-0.96875,0.21875,0.125
1631023487406,-0.96875,0.21875,0.109375
1631023487437,-0.96875,0.21875,0.109375
1631023487468,-0.96875,0.21875,0.125
1631023487500,-0.96875,0.21875,0.125
1631023487531,-0.96875,0.21875,0.109375
1631023487562,-0.96875,0.21875,0.109375
1631023487593,-0.96875,0.21875,0.109375
1631023487625,-0.96875,0.21875,0.109375
1631023487656,-0.96875,0.21875,0.109375
1631023487687,-0.96875,0.21875,0.109375
1631023487718,-0.96875,0.21875,0.109375
1631023487750,-0.96875,0.21875,0.109375
1631023487781,-0.96875,0.21875,0.109375
1631023487812,-0.96875,0.234375,0.109375
1631023487843,-0.96875,0.21875,0.109375
1631023487875,-0.96875,0.21875,0.109375
1631023487906,-0.96875,0.21875,0.125
1631023487937,-0.96875,0.234375,0.125
1631023487968,-0.96875,0.21875,0.109375
1631023488000,-0.96875,0.21875,0.109375
1631023488031,-0.96875,0.21875,0.109375
1631023488062,-0.96875,0.21875,0.109375
1631023488093,-0.96875,0.21875,0.109375
1631023488125,-0.96875,0.234375,0.109375
1631023488156,-0.96875,0.234375,0.109375
1631023488187,-0.96875,0.21875,0.109375
1631023488218,-0.96875,0.21875,0.109375
1631023488250,-0.96875,0.21875,0.109375
1631023488281,-0.96875,0.21875,0.109375
1631023488312,-0.96875,0.21875,0.109375
1631023488343,-0.96875,0.21875,0.109375
1631023488375,-0.96875,0.21875,0.109375
1631023488406,-0.96875,0.234375,0.125
1631023488437,-0.96875,0.21875,0.109375
1631023488468,-0.96875,0.234375,0.109375
1631023488500,-0.96875,0.234375,0.109375
1631023488531,-0.96875,0.234375,0.109375
1631023488562,-0.96875,0.234375,0.109375
1631023488593,-0.96875,0.21875,0.109375
1631023488625,-0.96875,0.234375,0.109375
1631023488656,-0.96875,0.21875,0.109375
1631023488687,-0.96875,0.21875,0.109375
1631023488718,-0.96875,0.21875,0.109375
1631023488750,-0.96875,0.234375,0.109375
1631023488781,-0.96875,0.21875,0.109375
1631023488812,-0.96875,0.21875,0.125
1631023488843,-0.96875,0.234375,0.109375
1631023488875,-0.96875,0.234375,0.109375
1631023488906,-0.96875,0.21875,0.109375
1631023488937,-0.96875,0.21875,0.109375
1631023488968,-0.96875,0.21875,0.109375
1631023489000,-0.96875,0.21875,0.109375
1631023489031,-0.96875,0.21875,0.109375
1631023489062,-0.96875,0.21875,0.109375
1631023489093,-0.96875,0.21875,0.125
1631023489125,-0.96875,0.21875,0.125
1631023489156,-0.96875,0.21875,0.109375
1631023489187,-0.96875,0.21875,0.109375
1631023489218,-0.96875,0.21875,0.109375
1631023489250,-0.96875,0.21875,0.109375
1631023489281,-0.96875,0.21875,0.109375
1631023489312,-0.96875,0.21875,0.125
1631023489343,-0.96875,0.21875,0.109375
1631023489375,-0.96875,0.21875,0.109375
1631023489406,-0.96875,0.21875,0.109375
1631023489437,-0.96875,0.21875,0.109375
1631023489468,-0.96875,0.21875,0.109375
1631023489500,-0.96875,0.234375,0.109375
1631023489531,-0.96875,0.21875,0.109375
1631023489562,-0.96875,0.21875,0.109375
1631023489593,-0.96875,0.21875,0.109375
1631023489625,-0.96875,0.234375,0.109375
1631023489656,-0.96875,0.21875,0.109375
1631023489687,-0.96875,0.21875,0.125
1631023489718,-0.96875,0.21875,0.109375
1631023489750,-0.96875,0.21875,0.109375
1631023489781,-0.96875,0.21875,0.109375
1631023489812,-0.96875,0.21875,0.125
1631023489843,-0.96875,0.21875,0.125
1631023489875,-0.96875,0.21875,0.109375
1631023489906,-0.96875,0.21875,0.109375
1631023489937,-0.96875,0.21875,0.109375
1631023489968,-0.96875,0.21875,0.109375
1631023490000,-0.96875,0.21875,0.109375
1631023490031,-0.96875,0.21875,0.109375
1631023490062,-0.96875,0.21875,0.109375
1631023490093,-0.96875,0.21875,0.109375
1631023490125,-0.96875,0.21875,0.109375
1631023490156,-0.96875,0.21875,0.109375
1631023490187,-0.96875,0.21875,0.125
1631023490218,-0.96875,0.21875,0.109375
1631023490250,-0.96875,0.21875,0.109375
1631023490281,-0.96875,0.21875,0.125
1631023490312,-0.96875,0.21875,0.109375
1631023490343,-0.96875,0.21875,0.109375
1631023490375,-0.96875,0.21875,0.109375
1631023490406,-0.96875,0.21875,0.109375
1631023490437,-0.96875,0.21875,0.125
1631023490468,-0.96875,0.21875,0.109375
1631023490500,-0.96875,0.21875,0.125
1631023490531,-0.96875,0.21875,0.109375
1631023490562,-0.96875,0.21875,0.109375
1631023490593,-0.96875,0.21875,0.125
1631023490625,-0.96875,0.21875,0.109375
1631023490656,-0.96875,0.21875,0.109375
1631023490687,-0.96875,0.21875,0.109375
1631023490718,-0.96875,0.21875,0.109375
1631023490750,-0.96875,0.21875,0.109375
1631023490781,-0.96875,0.21875,0.109375
1631023490812,-0.96875,0.21875,0.109375
1631023490843,-0.96875,0.21875,0.109375
1631023490875,-0.96875,0.21875,0.125
1631023490906,-0.96875,0.21875,0.109375
1631023490937,-0.96875,0.21875,0.109375
1631023490968,-0.96875,0.21875,0.109375
1631023491000,-0.96875,0.21875,0.109375
1631023491031,-0.96875,0.21875,0.109375
1631023491062,-0.96875,0.21875,0.109375
1631023491093,-0.96875,0.21875,0.109375
1631023491125,-0.96875,0.234375,0.109375
1631023491156,-0.96875,0.21875,0.109375
1631023491187,-0.96875,0.21875,0.109375
1631023491218,-0.96875,0.21875,0.109375
1631023491250,-0.96875,0.21875,0.109375
1631023491281,-0.96875,0.21875,0.109375
1631023491312,-0.96875,0.21875,0.109375
1631023491343,-0.96875,0.21875,0.109375
1631023491375,-0.96875,0.21875,0.109375
1631023491406,-0.96875,0.21875,0.109375
1631023491437,-0.96875,0.234375,0.109375
1631023491468,-0.96875,0.234375,0.109375
1631023491500,-0.96875,0.234375,0.109375
1631023491531,-0.96875,0.234375,0.109375
1631023491562,-0.96875,0.21875,0.109375
1631023491593,-0.96875,0.234375,0.109375
1631023491625,-0.96875,0.21875,0.109375
1631023491656,-0.96875,0.21875,0.109375
1631023491687,-0.96875,0.21875,0.109375
1631023491718,-0.96875,0.234375,0.109375
1631023491750,-0.96875,0.21875,0.109375
1631023491781,-0.96875,0.21875,0.109375
1631023491812,-0.96875,0.21875,0.109375
1631023491843,-0.96875,0.21875,0.109375
1631023491875,-0.96875,0.234375,0.109375
1631023491906,-0.96875,0.234375,0.109375
1631023491937,-0.96875,0.21875,0.109375
1631023491968,-0.96875,0.21875,0.109375
1631023492000,-0.96875,0.21875,0.109375
1631023492031,-0.96875,0.234375,0.109375
1631023492062,-0.96875,0.21875,0.109375
1631023492093,-0.96875,0.21875,0.109375
1631023492125,-0.96875,0.234375,0.109375
1631023492156,-0.96875,0.21875,0.109375
1631023492187,-0.96875,0.234375,0.109375
1631023492218,-0.96875,0.21875,0.109375
1631023492250,-0.96875,0.21875,0.109375
1631023492281,-0.96875,0.234375,0.109375
1631023492312,-0.96875,0.234375,0.109375
1631023492343,-0.96875,0.21875,0.125
1631023492375,-0.96875,0.21875,0.109375
1631023492406,-0.96875,0.21875,0.109375
1631023492437,-0.96875,0.21875,0.109375
1631023492468,-0.96875,0.21875,0.109375
1631023492500,-0.96875,0.21875,0.109375
1631023492531,-0.96875,0.21875,0.109375
1631023492562,-0.96875,0.21875,0.109375
1631023492593,-0.96875,0.21875,0.109375
1631023492625,-0.96875,0.21875,0.125
1631023492656,-0.96875,0.21875,0.109375
1631023492687,-0.96875,0.21875,0.109375
1631023492718,-0.96875,0.21875,0.109375
1631023492750,-0.96875,0.21875,0.109375
1631023492781,-0.96875,0.21875,0.109375
1631023492812,-0.96875,0.21875,0.125
1631023492843,-0.96875,0.21875,0.109375
1631023492875,-0.96875,0.21875,0.109375
1631023492906,-0.96875,0.21875,0.109375
1631023492937,-0.96875,0.21875,0.109375
1631023492968,-0.96875,0.21875,0.109375
1631023493000,-0.96875,0.21875,0.109375
1631023493031,-0.96875,0.21875,0.109375
1631023493062,-0.96875,0.21875,0.109375
1631023493093,-0.96875,0.21875,0.125
1631023493125,-0.96875,0.21875,0.109375
1631023493156,-0.96875,0.21875,0.109375
1631023493187,-0.96875,0.21875,0.109375
1631023493218,-0.96875,0.21875,0.109375
1631023493250,-0.96875,0.21875,0.109375
1631023493281,-0.96875,0.21875,0.125
1631023493312,-0.96875,0.21875,0.109375
1631023493343,-0.96875,0.21875,0.125
1631023493375,-0.96875,0.21875,0.125
1631023493406,-0.96875,0.21875,0.109375
1631023493437,-0.96875,0.21875,0.109375
1631023493468,-0.96875,0.21875,0.125
1631023493500,-0.96875,0.21875,0.125
1631023493531,-0.96875,0.21875,0.109375
1631023493562,-0.96875,0.21875,0.109375
1631023493593,-0.96875,0.21875,0.109375
1631023493625,-0.96875,0.21875,0.125
1631023493656,-0.96875,0.21875,0.109375
1631023493687,-0.96875,0.21875,0.125
1631023493718,-0.96875,0.21875,0.125
1631023493750,-0.96875,0.21875,0.109375
1631023493781,-0.96875,0.21875,0.109375
1631023493812,-0.96875,0.21875,0.109375
1631023493843,-0.96875,0.21875,0.109375
1631023493875,-0.96875,0.21875,0.109375
1631023493906,-0.96875,0.21875,0.109375
1631023493937,-0.96875,0.21875,0.109375
1631023493968,-0.96875,0.234375,0.109375
1631023494000,-0.96875,0.21875,0.109375
1631023494031,-0.96875,0.234375,0.109375
1631023494062,-0.96875,0.21875,0.109375
1631023494093,-0.96875,0.21875,0.109375
1631023494125,-0.96875,0.21875,0.109375
1631023494156,-0.96875,0.21875,0.109375
1631023494187,-0.96875,0.234375,0.109375
1631023494218,-0.96875,0.21875,0.109375
1631023494250,-0.96875,0.234375,0.109375
1631023494281,-0.96875,0.21875,0.125
1631023494312,-0.96875,0.21875,0.109375
1631023494343,-0.96875,0.21875,0.109375
1631023494375,-0.96875,0.21875,0.109375
1631023494406,-0.96875,0.21875,0.109375
1631023494437,-0.96875,0.21875,0.109375
1631023494468,-0.96875,0.21875,0.109375
1631023494500,-0.96875,0.21875,0.109375
1631023494531,-0.96875,0.234375,0.109375
1631023494562,-0.96875,0.234375,0.109375
1631023494593,-0.96875,0.234375,0.109375
1631023494625,-0.96875,0.234375,0.109375
1631023494656,-0.96875,0.21875,0.109375
1631023494687,-0.96875,0.21875,0.109375
1631023494718,-0.96875,0.234375,0.109375
1631023494750,-0.96875,0.21875,0.109375
1631023494781,-0.96875,0.234375,0.109375
1631023494812,-0.96875,0.21875,0.109375
1631023494843,-0.96875,0.21875,0.109375
1631023494875,-0.96875,0.234375,0.109375
1631023494906,-0.96875,0.234375,0.109375
1631023494937,-0.96875,0.21875,0.109375
1631023494968,-0.96875,0.234375,0.109375
1631023495000,-0.96875,0.234375,0.109375
1631023495031,-0.96875,0.21875,0.109375
1631023495062,-0.96875,0.21875,0.109375
1631023495093,-0.96875,0.21875,0.109375
1631023495125,-0.96875,0.21875,0.109375
1631023495156,-0.96875,0.21875,0.109375
1631023495187,-0.96875,0.21875,0.109375
1631023495218,-0.96875,0.21875,0.109375
1631023495250,-0.96875,0.21875,0.109375
1631023495281,-0.96875,0.21875,0.109375
1631023495312,-0.96875,0.21875,0.109375
1631023495343,-0.96875,0.21875,0.109375
1631023495375,-0.96875,0.21875,0.109375
1631023495406,-0.96875,0.21875,0.109375
1631023495437,-0.96875,0.21875,0.109375
1631023495468,-0.96875,0.21875,0.109375
1631023495500,-0.96875,0.21875,0.109375
1631023495531,-0.96875,0.21875,0.109375
1631023495562,-0.96875,0.21875,0.109375
1631023495593,-0.96875,0.21875,0.109375
1631023495625,-0.96875,0.21875,0.109375
1631023495656,-0.96875,0.21875,0.109375
1631023495687,-0.96875,0.21875,0.109375
1631023495718,-0.96875,0.234375,0.109375
1631023495750,-0.96875,0.21875,0.109375
1631023495781,-0.96875,0.21875,0.109375
1631023495812,-0.96875,0.21875,0.109375
1631023495843,-0.96875,0.21875,0.109375
1631023495875,-0.96875,0.21875,0.109375
1631023495906,-0.96875,0.21875,0.125
1631023495937,-0.96875,0.21875,0.109375
1631023495968,-0.96875,0.21875,0.109375
1631023496000,-0.96875,0.21875,0.125
1631023496031,-0.96875,0.21875,0.109375
1631023496062,-0.96875,0.21875,0.109375
1631023496093,-0.96875,0.21875,0.109375
1631023496125,-0.96875,0.21875,0.109375
1631023496156,-0.96875,0.21875,0.109375
1631023496187,-0.96875,0.21875,0.109375
1631023496218,-0.96875,0.21875,0.109375
1631023496250,-0.96875,0.21875,0.125
1631023496281,-0.96875,0.21875,0.125
1631023496312,-0.96875,0.21875,0.109375
1631023496343,-0.96875,0.21875,0.109375
1631023496375,-0.96875,0.21875,0.109375
1631023496406,-0.96875,0.21875,0.109375
1631023496437,-0.96875,0.21875,0.109375
1631023496468,-0.96875,0.21875,0.109375
1631023496500,-0.96875,0.21875,0.109375
1631023496531,-0.96875,0.21875,0.125
1631023496562,-0.96875,0.21875,0.109375
1631023496593,-0.96875,0.21875,0.109375
1631023496625,-0.96875,0.21875,0.125
1631023496656,-0.96875,0.21875,0.109375
1631023496687,-0.96875,0.21875,0.109375
1631023496718,-0.96875,0.21875,0.109375
1631023496750,-0.96875,0.21875,0.109375
1631023496781,-0.96875,0.21875,0.109375
1631023496812,-0.96875,0.21875,0.125
1631023496843,-0.96875,0.21875,0.109375
1631023496875,-0.96875,0.21875,0.109375
1631023496906,-0.96875,0.21875,0.109375
1631023496937,-0.96875,0.21875,0.109375
1631023496968,-0.96875,0.21875,0.109375
1631023497000,-0.96875,0.21875,0.109375
1631023497031,-0.96875,0.21875,0.109375
1631023497062,-0.96875,0.21875,0.109375
1631023497093,-0.96875,0.21875,0.109375
1631023497125,-0.96875,0.234375,0.109375
1631023497156,-0.96875,0.21875,0.109375
1631023497187,-0.96875,0.21875,0.109375
1631023497218,-0.96875,0.234375,0.109375
1631023497250,-0.96875,0.21875,0.109375
1631023497281,-0.96875,0.234375,0.109375
1631023497312,-0.96875,0.21875,0.109375
1631023497343,-0.96875,0.234375,0.109375
1631023497375,-0.96875,0.21875,0.109375
1631023497406,-0.96875,0.21875,0.109375
1631023497437,-0.96875,0.234375,0.109375
1631023497468,-0.96875,0.234375,0.109375
1631023497500,-0.96875,0.234375,0.109375
1631023497531,-0.96875,0.234375,0.109375
1631023497562,-0.96875,0.234375,0.109375
1631023497593,-0.96875,0.234375,0.109375
1631023497625,-0.96875,0.21875,0.109375
1631023497656,-0.96875,0.21875,0.109375
1631023497687,-0.96875,0.234375,0.109375
1631023497718,-0.96875,0.21875,0.109375
1631023497750,-0.96875,0.234375,0.109375
1631023497781,-0.96875,0.21875,0.109375
1631023497812,-0.96875,0.21875,0.109375
1631023497843,-0.96875,0.21875,0.109375
1631023497875,-0.96875,0.21875,0.109375
1631023497906,-0.96875,0.234375,0.109375
1631023497937,-0.96875,0.21875,0.109375
1631023497968,-0.96875,0.21875,0.109375
1631023498000,-0.96875,0.21875,0.109375
1631023498031,-0.96875,0.21875,0.109375
1631023498062,-0.96875,0.21875,0.109375
1631023498093,-0.96875,0.21875,0.109375
1631023498125,-0.96875,0.21875,0.109375
1631023498156,-0.96875,0.21875,0.109375
1631023498187,-0.96875,0.21875,0.109375
1631023498218,-0.96875,0.21875,0.109375
1631023498250,-0.96875,0.21875,0.109375
1631023498281,-0.96875,0.234375,0.109375
1631023498312,-0.96875,0.21875,0.109375
1631023498343,-0.96875,0.234375,0.109375
1631023498375,-0.96875,0.21875,0.109375
1631023498406,-0.96875,0.234375,0.109375
1631023498437,-0.96875,0.21875,0.109375
1631023498468,-0.96875,0.21875,0.109375
1631023498500,-0.96875,0.21875,0.109375
1631023498531,-0.96875,0.21875,0.109375
1631023498562,-0.96875,0.21875,0.109375
1631023498593,-0.96875,0.21875,0.109375
1631023498625,-0.96875,0.21875,0.109375
1631023498656,-0.96875,0.21875,0.109375
1631023498687,-0.96875,0.21875,0.109375
1631023498718,-0.96875,0.21875,0.109375
1631023498750,-0.96875,0.21875,0.109375
1631023498781,-0.96875,0.21875,0.109375
1631023498812,-0.96875,0.21875,0.109375
1631023498843,-0.96875,0.21875,0.109375
1631023498875,-0.96875,0.21875,0.109375
1631023498906,-0.96875,0.21875,0.125
1631023498937,-0.96875,0.21875,0.109375
1631023498968,-0.96875,0.21875,0.109375
1631023499000,-0.96875,0.21875,0.109375
1631023499031,-0.96875,0.21875,0.109375
1631023499062,-0.96875,0.21875,0.109375
1631023499093,-0.96875,0.21875,0.109375
1631023499125,-0.96875,0.21875,0.109375
1631023499156,-0.96875,0.21875,0.125
1631023499187,-0.96875,0.21875,0.109375
1631023499218,-0.96875,0.21875,0.109375
1631023499250,-0.96875,0.21875,0.109375
1631023499281,-0.96875,0.21875,0.109375
1631023499312,-0.96875,0.21875,0.109375
1631023499343,-0.96875,0.21875,0.109375
1631023499375,-0.96875,0.21875,0.125
1631023499406,-0.96875,0.21875,0.109375
1631023499437,-0.96875,0.21875,0.109375
1631023499468,-0.96875,0.21875,0.109375
1631023499500,-0.96875,0.21875,0.109375
1631023499531,-0.96875,0.21875,0.109375
1631023499562,-0.96875,0.21875,0.109375
1631023499593,-0.96875,0.21875,0.109375
1631023499625,-0.96875,0.21875,0.109375
1631023499656,-0.96875,0.21875,0.125
1631023499687,-0.96875,0.21875,0.109375
1631023499718,-0.96875,0.21875,0.109375
1631023499750,-0.96875,0.21875,0.125
1631023499781,-0.96875,0.21875,0.109375
1631023499812,-0.96875,0.21875,0.109375
1631023499843,-0.96875,0.21875,0.109375
1631023499875,-0.96875,0.21875,0.109375
1631023499906,-0.96875,0.21875,0.109375
1631023499937,-0.96875,0.21875,0.109375
1631023499968,-0.96875,0.234375,0.109375
1631023500000,-0.96875,0.21875,0.109375
1631023500031,-0.96875,0.21875,0.109375
1631023500062,-0.96875,0.21875,0.109375
1631023500093,-0.96875,0.234375,0.109375
1631023500125,-0.96875,0.21875,0.125
1631023500156,-0.96875,0.21875,0.109375
1631023500187,-0.96875,0.21875,0.109375
1631023500218,-0.96875,0.234375,0.109375
1631023500250,-0.96875,0.21875,0.109375
1631023500281,-0.96875,0.21875,0.109375
1631023500312,-0.96875,0.21875,0.109375
1631023500343,-0.96875,0.21875,0.109375
1631023500375,-0.96875,0.21875,0.109375
1631023500406,-0.96875,0.21875,0.109375
1631023500437,-0.96875,0.234375,0.109375
1631023500468,-0.96875,0.234375,0.109375
1631023500500,-0.96875,0.21875,0.109375
1631023500531,-0.96875,0.234375,0.109375
1631023500562,-0.96875,0.234375,0.109375
1631023500593,-0.96875,0.234375,0.109375
1631023500625,-0.96875,0.234375,0.109375
1631023500656,-0.96875,0.234375,0.109375
1631023500687,-0.96875,0.234375,0.109375
1631023500718,-0.96875,0.234375,0.109375
1631023500750,-0.96875,0.234375,0.109375
1631023500781,-0.96875,0.234375,0.109375
1631023500812,-0.96875,0.21875,0.109375
1631023500843,-0.96875,0.234375,0.109375
1631023500875,-0.96875,0.234375,0.109375
1631023500906,-0.96875,0.234375,0.109375
1631023500937,-0.96875,0.234375,0.109375
1631023500968,-0.96875,0.234375,0.109375
1631023501000,-0.96875,0.21875,0.109375
1631023501031,-0.96875,0.21875,0.109375
1631023501062,-0.96875,0.234375,0.109375
1631023501093,-0.96875,0.234375,0.109375
1631023501125,-0.96875,0.21875,0.109375
1631023501156,-0.96875,0.21875,0.109375
1631023501187,-0.96875,0.21875,0.109375
1631023501218,-0.96875,0.21875,0.109375
1631023501250,-0.96875,0.21875,0.109375
1631023501281,-0.96875,0.21875,0.109375
1631023501312,-0.96875,0.21875,0.109375
1631023501343,-0.96875,0.21875,0.109375
1631023501375,-0.96875,0.21875,0.109375
1631023501406,-0.96875,0.21875,0.109375
1631023501437,-0.96875,0.21875,0.109375
1631023501468,-0.96875,0.21875,0.109375
1631023501500,-0.96875,0.234375,0.109375
1631023501531,-0.96875,0.21875,0.109375
1631023501562,-0.96875,0.21875,0.109375
1631023501593,-0.96875,0.21875,0.109375
1631023501625,-0.96875,0.21875,0.109375
1631023501656,-0.96875,0.21875,0.109375
1631023501687,-0.96875,0.21875,0.109375
1631023501718,-0.96875,0.234375,0.109375
1631023501750,-0.96875,0.21875,0.109375
1631023501781,-0.96875,0.21875,0.109375
1631023501812,-0.96875,0.21875,0.109375
1631023501843,-0.96875,0.21875,0.109375
1631023501875,-0.96875,0.21875,0.109375
1631023501906,-0.96875,0.21875,0.109375
1631023501937,-0.96875,0.21875,0.109375
1631023501968,-0.96875,0.21875,0.109375
1631023502000,-0.96875,0.21875,0.109375
1631023502031,-0.96875,0.21875,0.109375
1631023502062,-0.96875,0.21875,0.109375
1631023502093,-0.96875,0.21875,0.109375
1631023502125,-0.96875,0.21875,0.109375
1631023502156,-0.96875,0.21875,0.109375
1631023502187,-0.96875,0.21875,0.109375
1631023502218,-0.96875,0.21875,0.109375
1631023502250,-0.96875,0.21875,0.109375
1631023502281,-0.96875,0.21875,0.109375
1631023502312,-0.96875,0.21875,0.109375
1631023502343,-0.96875,0.21875,0.109375
1631023502375,-0.96875,0.21875,0.109375
1631023502406,-0.96875,0.21875,0.109375
1631023502437,-0.96875,0.21875,0.109375
1631023502468,-0.96875,0.21875,0.109375
1631023502500,-0.96875,0.21875,0.109375
1631023502531,-0.96875,0.21875,0.109375
1631023502562,-0.96875,0.21875,0.109375
1631023502593,-0.96875,0.21875,0.109375
1631023502625,-0.96875,0.21875,0.109375
1631023502656,-0.96875,0.21875,0.109375
1631023502687,-0.96875,0.21875,0.109375
1631023502718,-0.96875,0.21875,0.109375
1631023502750,-0.96875,0.21875,0.109375
1631023502781,-0.96875,0.21875,0.125
1631023502812,-0.96875,0.21875,0.109375
1631023502843,-0.96875,0.21875,0.109375
1631023502875,-0.96875,0.21875,0.109375
1631023502906,-0.96875,0.21875,0.109375
1631023502937,-0.96875,0.21875,0.109375
1631023502968,-0.96875,0.21875,0.109375
1631023503000,-0.96875,0.21875,0.109375
1631023503031,-0.96875,0.21875,0.109375
1631023503062,-0.96875,0.21875,0.109375
1631023503093,-0.96875,0.21875,0.109375
1631023503125,-0.96875,0.21875,0.109375
1631023503156,-0.96875,0.21875,0.109375
1631023503187,-0.96875,0.21875,0.109375
1631023503218,-0.96875,0.234375,0.109375
1631023503250,-0.96875,0.234375,0.109375
1631023503281,-0.96875,0.21875,0.109375
1631023503312,-0.96875,0.21875,0.109375
1631023503343,-0.96875,0.234375,0.109375
1631023503375,-0.96875,0.21875,0.109375
1631023503406,-0.96875,0.21875,0.109375
1631023503437,-0.96875,0.21875,0.109375
1631023503468,-0.96875,0.21875,0.109375
1631023503500,-0.96875,0.234375,0.109375
1631023503531,-0.96875,0.21875,0.109375
1631023503562,-0.96875,0.234375,0.109375
1631023503593,-0.96875,0.234375,0.109375
1631023503625,-0.96875,0.234375,0.109375
1631023503656,-0.96875,0.234375,0.109375
1631023503687,-0.96875,0.234375,0.109375
1631023503718,-0.96875,0.234375,0.109375
1631023503750,-0.96875,0.21875,0.109375
1631023503781,-0.96875,0.21875,0.109375
1631023503812,-0.96875,0.21875,0.109375
1631023503843,-0.96875,0.234375,0.109375
1631023503875,-0.96875,0.234375,0.109375
1631023503906,-0.96875,0.21875,0.109375
1631023503937,-0.96875,0.21875,0.109375
1631023503968,-0.96875,0.234375,0.109375
1631023504000,-0.96875,0.234375,0.109375
1631023504031,-0.96875,0.234375,0.109375
1631023504062,-0.96875,0.21875,0.109375
1631023504093,-0.96875,0.21875,0.109375
1631023504125,-0.96875,0.234375,0.109375
1631023504156,-0.96875,0.21875,0.109375
1631023504187,-0.96875,0.234375,0.109375
1631023504218,-0.96875,0.21875,0.109375
1631023504250,-0.96875,0.21875,0.109375
1631023504281,-0.96875,0.21875,0.109375
1631023504312,-0.96875,0.21875,0.109375
1631023504343,-0.96875,0.21875,0.109375
1631023504375,-0.96875,0.21875,0.109375
1631023504406,-0.96875,0.234375,0.109375
1631023504437,-0.96875,0.234375,0.109375
1631023504468,-0.96875,0.234375,0.109375
1631023504500,-0.96875,0.21875,0.109375
1631023504531,-0.96875,0.21875,0.109375
1631023504562,-0.96875,0.21875,0.109375
1631023504593,-0.96875,0.21875,0.109375
1631023504625,-0.96875,0.21875,0.109375
1631023504656,-0.96875,0.21875,0.109375
1631023504687,-0.96875,0.21875,0.109375
1631023504718,-0.96875,0.21875,0.109375
1631023504750,-0.96875,0.21875,0.109375
1631023504781,-0.96875,0.21875,0.109375
1631023504812,-0.96875,0.21875,0.109375
1631023504843,-0.96875,0.21875,0.109375
1631023504875,-0.96875,0.21875,0.109375
1631023504906,-0.96875,0.21875,0.109375
1631023504937,-0.96875,0.21875,0.109375
1631023504968,-0.96875,0.21875,0.109375
1631023505000,-0.96875,0.21875,0.109375
1631023505031,-0.96875,0.21875,0.125
1631023505062,-0.96875,0.21875,0.109375
1631023505093,-0.96875,0.21875,0.109375
1631023505125,-0.96875,0.21875,0.109375
1631023505156,-0.96875,0.21875,0.109375
1631023505187,-0.96875,0.21875,0.109375
1631023505218,-0.96875,0.21875,0.109375
1631023505250,-0.96875,0.21875,0.109375
1631023505281,-0.96875,0.21875,0.109375
1631023505312,-0.96875,0.21875,0.109375
1631023505343,-0.96875,0.21875,0.109375
1631023505375,-0.96875,0.21875,0.109375
1631023505406,-0.96875,0.21875,0.109375
1631023505437,-0.96875,0.21875,0.109375
1631023505468,-0.96875,0.21875,0.109375
1631023505500,-0.96875,0.21875,0.109375
1631023505531,-0.96875,0.21875,0.109375
1631023505562,-0.96875,0.21875,0.109375
1631023505593,-0.96875,0.21875,0.109375
1631023505625,-0.96875,0.21875,0.109375
1631023505656,-0.96875,0.21875,0.109375
1631023505687,-0.96875,0.21875,0.109375
1631023505718,-0.96875,0.21875,0.109375
1631023505750,-0.96875,0.21875,0.109375
1631023505781,-0.96875,0.21875,0.109375
1631023505812,-0.96875,0.21875,0.109375
1631023505843,-0.96875,0.21875,0.109375
1631023505875,-0.96875,0.21875,0.109375
1631023505906,-0.96875,0.21875,0.109375
1631023505937,-0.96875,0.21875,0.109375
1631023505968,-0.96875,0.21875,0.109375
1631023506000,-0.96875,0.21875,0.109375
1631023506031,-0.96875,0.21875,0.109375
1631023506062,-0.96875,0.21875,0.109375
1631023506093,-0.96875,0.234375,0.109375
1631023506125,-0.96875,0.21875,0.109375
1631023506156,-0.96875,0.234375,0.109375
1631023506187,-0.96875,0.234375,0.109375
1631023506218,-0.96875,0.21875,0.109375
1631023506250,-0.96875,0.234375,0.109375
1631023506281,-0.96875,0.234375,0.109375
1631023506312,-0.96875,0.234375,0.109375
1631023506343,-0.96875,0.234375,0.109375
1631023506375,-0.96875,0.234375,0.109375
1631023506406,-0.96875,0.234375,0.109375
1631023506437,-0.96875,0.21875,0.109375
1631023506468,-0.96875,0.234375,0.109375
1631023506500,-0.96875,0.234375,0.109375
1631023506531,-0.96875,0.234375,0.109375
1631023506562,-0.96875,0.234375,0.109375
1631023506593,-0.96875,0.21875,0.109375
1631023506625,-0.96875,0.234375,0.109375
1631023506656,-0.96875,0.234375,0.109375
1631023506687,-0.96875,0.234375,0.109375
1631023506718,-0.96875,0.234375,0.109375
1631023506750,-0.96875,0.21875,0.109375
1631023506781,-0.96875,0.234375,0.109375
1631023506812,-0.96875,0.234375,0.109375
1631023506843,-0.96875,0.21875,0.109375
1631023506875,-0.96875,0.21875,0.109375
1631023506906,-0.96875,0.21875,0.109375
1631023506937,-0.96875,0.234375,0.109375
1631023506968,-0.96875,0.21875,0.109375
1631023507000,-0.96875,0.21875,0.109375
1631023507031,-0.96875,0.234375,0.109375
1631023507062,-0.96875,0.234375,0.109375
1631023507093,-0.96875,0.234375,0.109375
1631023507125,-0.96875,0.234375,0.109375
1631023507156,-0.96875,0.21875,0.109375
1631023507187,-0.96875,0.21875,0.109375
1631023507218,-0.96875,0.21875,0.109375
1631023507250,-0.96875,0.21875,0.109375
1631023507281,-0.96875,0.21875,0.109375
1631023507312,-0.96875,0.21875,0.109375
1631023507343,-0.96875,0.21875,0.109375
1631023507375,-0.96875,0.21875,0.109375
1631023507406,-0.96875,0.21875,0.109375
1631023507437,-0.96875,0.21875,0.109375
1631023507468,-0.96875,0.21875,0.109375
1631023507500,-0.96875,0.21875,0.109375
1631023507531,-0.96875,0.21875,0.109375
1631023507562,-0.96875,0.21875,0.109375
1631023507593,-0.96875,0.21875,0.109375
1631023507625,-0.96875,0.21875,0.109375
1631023507656,-0.96875,0.21875,0.109375
1631023507687,-0.96875,0.21875,0.109375
1631023507718,-0.96875,0.21875,0.109375
1631023507750,-0.96875,0.21875,0.109375
1631023507781,-0.96875,0.21875,0.109375
1631023507812,-0.96875,0.21875,0.109375
1631023507843,-0.96875,0.21875,0.109375
1631023507875,-0.96875,0.21875,0.109375
1631023507906,-0.96875,0.21875,0.109375
1631023507937,-0.96875,0.21875,0.109375
1631023507968,-0.96875,0.21875,0.109375
1631023508000,-0.96875,0.21875,0.109375
1631023508031,-0.96875,0.21875,0.109375
1631023508062,-0.96875,0.21875,0.109375
1631023508093,-0.96875,0.21875,0.109375
1631023508125,-0.96875,0.21875,0.109375
1631023508156,-0.96875,0.21875,0.109375
1631023508187,-0.96875,0.21875,0.109375
1631023508218,-0.96875,0.21875,0.109375
1631023508250,-0.96875,0.21875,0.109375
1631023508281,-0.96875,0.21875,0.109375
1631023508312,-0.96875,0.21875,0.109375
1631023508343,-0.96875,0.21875,0.109375
1631023508375,-0.96875,0.21875,0.109375
1631023508406,-0.96875,0.21875,0.109375
1631023508437,-0.96875,0.21875,0.109375
1631023508468,-0.96875,0.21875,0.109375
1631023508500,-0.96875,0.21875,0.109375
1631023508531,-0.96875,0.21875,0.109375
1631023508562,-0.96875,0.21875,0.109375
1631023508593,-0.96875,0.21875,0.109375
1631023508625,-0.96875,0.234375,0.109375
1631023508656,-0.96875,0.21875,0.109375
1631023508687,-0.96875,0.21875,0.109375
1631023508718,-0.96875,0.234375,0.109375
1631023508750,-0.96875,0.234375,0.109375
1631023508781,-0.96875,0.21875,0.109375
1631023508812,-0.96875,0.21875,0.109375
1631023508843,-0.96875,0.234375,0.109375
1631023508875,-0.96875,0.234375,0.109375
1631023508906,-0.96875,0.234375,0.109375
1631023508937,-0.96875,0.234375,0.109375
1631023508968,-0.96875,0.21875,0.109375
1631023509000,-0.96875,0.21875,0.109375
1631023509031,-0.96875,0.234375,0.109375
1631023509062,-0.96875,0.21875,0.109375
1631023509093,-0.96875,0.21875,0.109375
1631023509125,-0.96875,0.21875,0.109375
1631023509156,-0.96875,0.234375,0.109375
1631023509187,-0.96875,0.234375,0.109375
1631023509218,-0.96875,0.234375,0.109375
1631023509250,-0.96875,0.234375,0.109375
1631023509281,-0.96875,0.234375,0.109375
1631023509312,-0.96875,0.234375,0.109375
1631023509343,-0.96875,0.234375,0.109375
1631023509375,-0.96875,0.234375,0.109375
1631023509406,-0.96875,0.234375,0.109375
1631023509437,-0.96875,0.234375,0.109375
1631023509468,-0.96875,0.234375,0.109375
1631023509500,-0.96875,0.234375,0.109375
1631023509531,-0.96875,0.234375,0.109375
1631023509562,-0.96875,0.234375,0.109375
1631023509593,-0.96875,0.234375,0.109375
1631023509625,-0.96875,0.234375,0.109375
1631023509656,-0.96875,0.21875,0.109375
1631023509687,-0.96875,0.234375,0.109375
1631023509718,-0.96875,0.234375,0.109375
1631023509750,-0.96875,0.234375,0.109375
1631023509781,-0.96875,0.234375,0.109375
1631023509812,-0.96875,0.234375,0.109375
1631023509843,-0.96875,0.234375,0.109375
1631023509875,-0.96875,0.234375,0.109375
1631023509906,-0.96875,0.21875,0.109375
1631023509937,-0.96875,0.21875,0.109375
1631023509968,-0.96875,0.21875,0.109375
1631023510000,-0.96875,0.234375,0.109375
1631023510031,-0.96875,0.21875,0.109375
1631023510062,-0.96875,0.21875,0.109375
1631023510093,-0.96875,0.21875,0.109375
1631023510125,-0.96875,0.21875,0.109375
1631023510156,-0.96875,0.234375,0.109375
1631023510187,-0.96875,0.234375,0.109375
1631023510218,-0.96875,0.21875,0.109375
1631023510250,-0.96875,0.234375,0.109375
1631023510281,-0.96875,0.21875,0.109375
1631023510312,-0.96875,0.21875,0.109375
1631023510343,-0.96875,0.21875,0.109375
1631023510375,-0.96875,0.21875,0.109375
1631023510406,-0.96875,0.21875,0.109375
1631023510437,-0.96875,0.21875,0.109375
1631023510468,-0.96875,0.21875,0.109375
1631023510500,-0.96875,0.21875,0.109375
1631023510531,-0.96875,0.21875,0.109375
1631023510562,-0.96875,0.21875,0.109375
1631023510593,-0.96875,0.21875,0.109375
1631023510625,-0.96875,0.21875,0.109375
1631023510656,-0.96875,0.21875,0.109375
1631023510687,-0.96875,0.21875,0.109375
1631023510718,-0.96875,0.21875,0.109375
1631023510750,-0.96875,0.21875,0.109375
1631023510781,-0.96875,0.21875,0.109375
1631023510812,-0.96875,0.21875,0.109375
1631023510843,-0.96875,0.21875,0.109375
1631023510875,-0.96875,0.21875,0.109375
1631023510906,-0.96875,0.21875,0.109375
1631023510937,-0.96875,0.21875,0.109375
1631023510968,-0.96875,0.21875,0.109375
1631023511000,-0.96875,0.21875,0.109375
1631023511031,-0.96875,0.21875,0.109375
1631023511062,-0.96875,0.21875,0.109375
1631023511093,-0.96875,0.21875,0.109375
1631023511125,-0.96875,0.21875,0.109375
1631023511156,-0.96875,0.234375,0.109375
1631023511187,-0.96875,0.21875,0.109375
1631023511218,-0.96875,0.21875,0.109375
1631023511250,-0.96875,0.21875,0.109375
1631023511281,-0.96875,0.21875,0.109375
1631023511312,-0.96875,0.21875,0.109375
1631023511343,-0.96875,0.21875,0.109375
1631023511375,-0.96875,0.21875,0.109375
1631023511406,-0.96875,0.21875,0.109375
1631023511437,-0.96875,0.234375,0.109375
1631023511468,-0.96875,0.21875,0.109375
1631023511500,-0.96875,0.21875,0.109375
1631023511531,-0.96875,0.234375,0.109375
1631023511562,-0.96875,0.21875,0.109375
1631023511593,-0.96875,0.21875,0.109375
1631023511625,-0.96875,0.234375,0.109375
1631023511656,-0.96875,0.234375,0.109375
1631023511687,-0.96875,0.234375,0.109375
1631023511718,-0.96875,0.234375,0.109375
1631023511750,-0.96875,0.234375,0.109375
1631023511781,-0.96875,0.234375,0.109375
1631023511812,-0.96875,0.234375,0.109375
1631023511843,-0.96875,0.234375,0.109375
1631023511875,-0.96875,0.234375,0.109375
1631023511906,-0.96875,0.234375,0.109375
1631023511937,-0.96875,0.234375,0.109375
1631023511968,-0.96875,0.234375,0.109375
1631023512000,-0.96875,0.234375,0.109375
1631023512031,-0.96875,0.234375,0.109375
1631023512062,-0.96875,0.234375,0.109375
1631023512093,-0.96875,0.234375,0.109375
1631023512125,-0.96875,0.234375,0.109375
1631023512156,-0.96875,0.234375,0.109375
1631023512187,-0.96875,0.234375,0.109375
1631023512218,-0.96875,0.234375,0.109375
1631023512250,-0.96875,0.234375,0.109375
1631023512281,-0.96875,0.234375,0.109375
1631023512312,-0.96875,0.234375,0.109375
1631023512343,-0.96875,0.234375,0.109375
1631023512375,-0.96875,0.234375,0.109375
1631023512406,-0.96875,0.234375,0.109375
1631023512437,-0.96875,0.234375,0.109375
1631023512468,-0.96875,0.234375,0.109375
1631023512500,-0.96875,0.234375,0.109375
1631023512531,-0.96875,0.234375,0.109375
1631023512562,-0.96875,0.234375,0.109375
1631023512593,-0.96875,0.21875,0.109375
1631023512625,-0.96875,0.21875,0.109375
1631023512656,-0.96875,0.21875,0.109375
1631023512687,-0.96875,0.21875,0.109375
1631023512718,-0.96875,0.21875,0.109375
1631023512750,-0.96875,0.234375,0.109375
1631023512781,-0.96875,0.234375,0.109375
1631023512812,-0.96875,0.234375,0.109375
1631023512843,-0.96875,0.234375,0.109375
1631023512875,-0.96875,0.21875,0.109375
1631023512906,-0.96875,0.21875,0.109375
1631023512937,-0.96875,0.21875,0.109375
1631023512968,-0.96875,0.21875,0.109375
1631023513000,-0.96875,0.21875,0.109375
1631023513031,-0.96875,0.21875,0.109375
1631023513062,-0.96875,0.21875,0.109375
1631023513093,-0.96875,0.21875,0.109375
1631023513125,-0.96875,0.21875,0.109375
1631023513156,-0.96875,0.21875,0.109375
1631023513187,-0.96875,0.21875,0.109375
1631023513218,-0.96875,0.21875,0.109375
1631023513250,-0.96875,0.234375,0.109375
1631023513281,-0.96875,0.21875,0.109375
1631023513312,-0.96875,0.21875,0.109375
1631023513343,-0.96875,0.21875,0.109375
1631023513375,-0.96875,0.21875,0.109375
1631023513406,-0.96875,0.21875,0.109375
1631023513437,-0.96875,0.21875,0.109375
1631023513468,-0.96875,0.21875,0.109375
1631023513500,-0.96875,0.21875,0.109375
1631023513531,-0.96875,0.21875,0.109375
1631023513562,-0.96875,0.21875,0.109375
1631023513593,-0.96875,0.21875,0.109375
1631023513625,-0.96875,0.21875,0.109375
1631023513656,-0.96875,0.21875,0.109375
1631023513687,-0.96875,0.21875,0.109375
1631023513718,-0.96875,0.21875,0.109375
1631023513750,-0.96875,0.234375,0.109375
1631023513781,-0.96875,0.21875,0.109375
1631023513812,-0.96875,0.21875,0.109375
1631023513843,-0.96875,0.21875,0.109375
1631023513875,-0.96875,0.234375,0.109375
1631023513906,-0.96875,0.21875,0.109375
1631023513937,-0.96875,0.21875,0.109375
1631023513968,-0.96875,0.21875,0.109375
1631023514000,-0.96875,0.21875,0.109375
1631023514031,-0.96875,0.21875,0.109375
1631023514062,-0.96875,0.21875,0.109375
1631023514093,-0.96875,0.21875,0.109375
1631023514125,-0.96875,0.21875,0.109375
1631023514156,-0.96875,0.21875,0.109375
1631023514187,-0.96875,0.21875,0.109375
1631023514218,-0.96875,0.21875,0.109375
1631023514250,-0.96875,0.21875,0.109375
1631023514281,-0.96875,0.21875,0.109375
1631023514312,-0.96875,0.21875,0.109375
1631023514343,-0.96875,0.234375,0.109375
1631023514375,-0.96875,0.21875,0.109375
1631023514406,-0.96875,0.21875,0.109375
1631023514437,-0.96875,0.21875,0.109375
1631023514468,-0.96875,0.21875,0.109375
1631023514500,-0.96875,0.21875,0.109375
1631023514531,-0.96875,0.21875,0.109375
1631023514562,-0.96875,0.21875,0.109375
1631023514593,-0.96875,0.234375,0.109375
1631023514625,-0.96875,0.234375,0.109375
1631023514656,-0.96875,0.234375,0.109375
1631023514687,-0.96875,0.234375,0.109375
1631023514718,-0.96875,0.234375,0.109375
1631023514750,-0.96875,0.234375,0.109375
1631023514781,-0.96875,0.234375,0.109375
1631023514812,-0.96875,0.234375,0.109375
1631023514843,-0.96875,0.234375,0.109375
1631023514875,-0.96875,0.234375,0.109375
1631023514906,-0.96875,0.234375,0.109375
1631023514937,-0.96875,0.234375,0.109375
1631023514968,-0.96875,0.234375,0.109375
1631023515000,-0.96875,0.234375,0.109375
1631023515031,-0.96875,0.234375,0.109375
1631023515062,-0.96875,0.234375,0.109375
1631023515093,-0.96875,0.234375,0.109375
1631023515125,-0.96875,0.234375,0.09375
1631023515156,-0.96875,0.234375,0.109375
1631023515187,-0.96875,0.234375,0.109375
1631023515218,-0.96875,0.234375,0.109375
1631023515250,-0.96875,0.234375,0.109375
1631023515281,-0.96875,0.234375,0.109375
1631023515312,-0.96875,0.234375,0.109375
1631023515343,-0.96875,0.234375,0.109375
1631023515375,-0.96875,0.234375,0.109375
1631023515406,-0.96875,0.234375,0.109375
1631023515437,-0.96875,0.234375,0.109375
1631023515468,-0.96875,0.234375,0.109375
1631023515500,-0.96875,0.234375,0.109375
1631023515531,-0.96875,0.234375,0.109375
1631023515562,-0.96875,0.21875,0.109375
1631023515593,-0.96875,0.234375,0.109375
1631023515625,-0.96875,0.234375,0.109375
1631023515656,-0.96875,0.234375,0.109375
1631023515687,-0.96875,0.234375,0.109375
1631023515718,-0.96875,0.234375,0.109375
1631023515750,-0.96875,0.234375,0.109375
1631023515781,-0.96875,0.21875,0.109375
1631023515812,-0.96875,0.234375,0.109375
1631023515843,-0.96875,0.234375,0.109375
1631023515875,-0.96875,0.21875,0.109375
1631023515906,-0.96875,0.21875,0.109375
1631023515937,-0.96875,0.21875,0.09375
1631023515968,-0.96875,0.234375,0.109375
1631023516000,-0.96875,0.21875,0.109375
1631023516031,-0.96875,0.21875,0.109375
1631023516062,-0.96875,0.234375,0.109375
1631023516093,-0.96875,0.234375,0.109375
1631023516125,-0.96875,0.21875,0.109375
1631023516156,-0.96875,0.234375,0.109375
1631023516187,-0.96875,0.21875,0.109375
1631023516218,-0.96875,0.21875,0.109375
1631023516250,-0.96875,0.21875,0.109375
1631023516281,-0.96875,0.21875,0.109375
1631023516312,-0.96875,0.21875,0.109375
1631023516343,-0.96875,0.21875,0.109375
1631023516375,-0.96875,0.21875,0.109375
1631023516406,-0.96875,0.21875,0.109375
1631023516437,-0.96875,0.21875,0.109375
1631023516468,-0.96875,0.234375,0.109375
1631023516500,-0.96875,0.21875,0.109375
1631023516531,-0.96875,0.21875,0.109375
1631023516562,-0.96875,0.234375,0.109375
1631023516593,-0.96875,0.21875,0.109375
1631023516625,-0.96875,0.21875,0.109375
1631023516656,-0.96875,0.234375,0.109375
1631023516687,-0.96875,0.234375,0.109375
1631023516718,-0.96875,0.21875,0.109375
1631023516750,-0.96875,0.234375,0.109375
1631023516781,-0.96875,0.234375,0.109375
1631023516812,-0.96875,0.21875,0.109375
1631023516843,-0.96875,0.21875,0.109375
1631023516875,-0.96875,0.21875,0.109375
1631023516906,-0.96875,0.21875,0.109375
1631023516937,-0.96875,0.21875,0.109375
1631023516968,-0.96875,0.21875,0.109375
1631023517000,-0.96875,0.21875,0.109375
1631023517031,-0.96875,0.21875,0.109375
1631023517062,-0.96875,0.21875,0.109375
1631023517093,-0.96875,0.234375,0.109375
1631023517125,-0.96875,0.234375,0.109375
1631023517156,-0.96875,0.234375,0.109375
1631023517187,-0.96875,0.21875,0.109375
1631023517218,-0.96875,0.234375,0.109375
1631023517250,-0.96875,0.234375,0.109375
1631023517281,-0.96875,0.234375,0.109375
1631023517312,-0.96875,0.21875,0.109375
1631023517343,-0.96875,0.234375,0.109375
1631023517375,-0.96875,0.234375,0.109375
1631023517406,-0.96875,0.234375,0.109375
1631023517437,-0.96875,0.234375,0.109375
1631023517468,-0.96875,0.234375,0.109375
1631023517500,-0.96875,0.234375,0.109375
1631023517531,-0.96875,0.234375,0.109375
1631023517562,-0.96875,0.234375,0.109375
1631023517593,-0.96875,0.234375,0.109375
1631023517625,-0.96875,0.234375,0.109375
1631023517656,-0.96875,0.234375,0.09375
1631023517687,-0.96875,0.234375,0.109375
1631023517718,-0.96875,0.234375,0.109375
1631023517750,-0.96875,0.234375,0.109375
1631023517781,-0.96875,0.234375,0.109375
1631023517812,-0.96875,0.234375,0.109375
1631023517843,-0.96875,0.234375,0.109375
1631023517875,-0.96875,0.234375,0.109375
1631023517906,-0.96875,0.234375,0.109375
1631023517937,-0.96875,0.234375,0.109375
1631023517968,-0.96875,0.234375,0.109375
1631023518000,-0.96875,0.234375,0.109375
1631023518031,-0.96875,0.234375,0.109375
1631023518062,-0.96875,0.234375,0.109375
1631023518093,-0.96875,0.234375,0.109375
1631023518125,-0.96875,0.234375,0.109375
1631023518156,-0.96875,0.234375,0.109375
1631023518187,-0.96875,0.234375,0.09375
1631023518218,-0.96875,0.234375,0.109375
1631023518250,-0.96875,0.234375,0.109375
1631023518281,-0.96875,0.234375,0.109375
1631023518312,-0.96875,0.234375,0.109375
1631023518343,-0.96875,0.234375,0.109375
1631023518375,-0.96875,0.234375,0.09375
1631023518406,-0.96875,0.234375,0.109375
1631023518437,-0.96875,0.234375,0.109375
1631023518468,-0.96875,0.234375,0.109375
1631023518500,-0.96875,0.234375,0.109375
1631023518531,-0.96875,0.234375,0.09375
1631023518562,-0.96875,0.234375,0.109375
1631023518593,-0.96875,0.21875,0.109375
1631023518625,-0.96875,0.234375,0.109375
1631023518656,-0.96875,0.234375,0.109375
1631023518687,-0.96875,0.21875,0.109375
1631023518718,-0.96875,0.234375,0.109375
1631023518750,-0.96875,0.234375,0.109375
1631023518781,-0.96875,0.234375,0.109375
1631023518812,-0.96875,0.21875,0.109375
1631023518843,-0.96875,0.234375,0.109375
1631023518875,-0.96875,0.234375,0.109375
1631023518906,-0.96875,0.234375,0.109375
1631023518937,-0.96875,0.234375,0.109375
1631023518968,-0.96875,0.234375,0.109375
1631023519000,-0.96875,0.21875,0.109375
1631023519031,-0.96875,0.234375,0.109375
1631023519062,-0.96875,0.21875,0.109375
1631023519093,-0.96875,0.21875,0.109375
1631023519125,-0.96875,0.234375,0.109375
1631023519156,-0.96875,0.234375,0.109375
1631023519187,-0.96875,0.234375,0.109375
1631023519218,-0.96875,0.234375,0.109375
1631023519250,-0.96875,0.21875,0.109375
1631023519281,-0.96875,0.21875,0.109375
1631023519312,-0.96875,0.234375,0.109375
1631023519343,-0.96875,0.21875,0.109375
1631023519375,-0.96875,0.21875,0.109375
1631023519406,-0.96875,0.21875,0.109375
1631023519437,-0.96875,0.21875,0.109375
1631023519468,-0.96875,0.21875,0.109375
1631023519500,-0.96875,0.234375,0.109375
1631023519531,-0.96875,0.21875,0.109375
1631023519562,-0.96875,0.21875,0.109375
1631023519593,-0.96875,0.21875,0.109375
1631023519625,-0.96875,0.21875,0.109375
1631023519656,-0.96875,0.21875,0.109375
1631023519687,-0.96875,0.21875,0.109375
1631023519718,-0.96875,0.21875,0.109375
1631023519750,-0.96875,0.234375,0.109375
1631023519781,-0.96875,0.21875,0.109375
1631023519812,-0.96875,0.21875,0.109375
1631023519843,-0.96875,0.21875,0.109375
1631023519875,-0.96875,0.21875,0.109375
1631023519906,-0.96875,0.21875,0.109375
1631023519937,-0.96875,0.21875,0.109375
1631023519968,-0.96875,0.21875,0.109375
1631023520000,-0.96875,0.234375,0.109375
1631023520031,-0.96875,0.21875,0.109375
1631023520062,-0.96875,0.21875,0.109375
1631023520093,-0.96875,0.234375,0.109375
1631023520125,-0.96875,0.21875,0.109375
1631023520156,-0.96875,0.21875,0.109375
1631023520187,-0.96875,0.234375,0.109375
1631023520218,-0.96875,0.21875,0.109375
1631023520250,-0.96875,0.21875,0.109375
1631023520281,-0.96875,0.21875,0.109375
1631023520312,-0.96875,0.21875,0.109375
1631023520343,-0.96875,0.234375,0.109375
1631023520375,-0.96875,0.21875,0.109375
1631023520406,-0.96875,0.21875,0.109375
1631023520437,-0.96875,0.21875,0.109375
1631023520468,-0.96875,0.234375,0.109375
1631023520500,-0.96875,0.21875,0.109375
1631023520531,-0.96875,0.234375,0.109375
1631023520562,-0.96875,0.234375,0.109375
1631023520593,-0.96875,0.234375,0.109375
1631023520625,-0.96875,0.234375,0.109375
1631023520656,-0.96875,0.234375,0.109375
1631023520687,-0.96875,0.234375,0.109375
1631023520718,-0.96875,0.234375,0.109375
1631023520750,-0.96875,0.234375,0.109375
1631023520781,-0.96875,0.234375,0.109375
1631023520812,-0.96875,0.234375,0.109375
1631023520843,-0.96875,0.234375,0.09375
1631023520875,-0.96875,0.234375,0.109375
1631023520906,-0.96875,0.234375,0.109375
1631023520937,-0.96875,0.234375,0.109375
1631023520968,-0.96875,0.234375,0.109375
1631023521000,-0.96875,0.234375,0.109375
1631023521031,-0.96875,0.234375,0.109375
1631023521062,-0.96875,0.234375,0.109375
1631023521093,-0.96875,0.234375,0.09375
1631023521125,-0.96875,0.234375,0.09375
1631023521156,-0.96875,0.234375,0.109375
1631023521187,-0.96875,0.234375,0.109375
1631023521218,-0.96875,0.234375,0.109375
1631023521250,-0.96875,0.234375,0.109375
1631023521281,-0.96875,0.234375,0.109375
1631023521312,-0.96875,0.234375,0.109375
1631023521343,-0.96875,0.234375,0.109375
1631023521375,-0.96875,0.234375,0.109375
1631023521406,-0.96875,0.234375,0.109375
1631023521437,-0.96875,0.234375,0.109375
1631023521468,-0.96875,0.234375,0.109375
1631023521500,-0.96875,0.234375,0.109375
1631023521531,-0.96875,0.234375,0.109375
1631023521562,-0.96875,0.234375,0.109375
1631023521593,-0.96875,0.234375,0.109375
1631023521625,-0.96875,0.234375,0.109375
1631023521656,-0.96875,0.234375,0.09375
1631023521687,-0.96875,0.234375,0.109375
1631023521718,-0.96875,0.234375,0.109375
1631023521750,-0.96875,0.234375,0.109375
1631023521781,-0.96875,0.234375,0.109375
1631023521812,-0.96875,0.234375,0.109375
1631023521843,-0.96875,0.234375,0.109375
1631023521875,-0.96875,0.234375,0.09375
1631023521906,-0.96875,0.234375,0.09375
1631023521937,-0.96875,0.234375,0.109375
1631023521968,-0.96875,0.234375,0.109375
1631023522000,-0.96875,0.234375,0.09375
1631023522031,-0.96875,0.234375,0.109375
1631023522062,-0.96875,0.234375,0.109375
1631023522093,-0.96875,0.234375,0.109375
1631023522125,-0.96875,0.234375,0.109375
1631023522156,-0.96875,0.234375,0.109375
1631023522187,-0.96875,0.234375,0.109375
1631023522218,-0.96875,0.234375,0.109375
1631023522250,-0.96875,0.234375,0.109375
1631023522281,-0.96875,0.234375,0.109375
1631023522312,-0.96875,0.234375,0.109375
1631023522343,-0.96875,0.21875,0.109375
1631023522375,-0.96875,0.234375,0.109375
1631023522406,-0.96875,0.234375,0.109375
1631023522437,-0.96875,0.234375,0.109375
1631023522468,-0.96875,0.234375,0.109375
1631023522500,-0.96875,0.21875,0.109375
1631023522531,-0.96875,0.21875,0.109375
1631023522562,-0.96875,0.234375,0.109375
1631023522593,-0.96875,0.21875,0.109375
1631023522625,-0.96875,0.234375,0.109375
1631023522656,-0.96875,0.234375,0.109375
1631023522687,-0.96875,0.234375,0.109375
1631023522718,-0.96875,0.234375,0.109375
1631023522750,-0.96875,0.21875,0.109375
1631023522781,-0.96875,0.21875,0.109375
1631023522812,-0.96875,0.21875,0.109375
1631023522843,-0.96875,0.21875,0.109375
1631023522875,-0.96875,0.21875,0.109375
1631023522906,-0.96875,0.21875,0.109375
1631023522937,-0.96875,0.21875,0.109375
1631023522968,-0.96875,0.21875,0.109375
1631023523000,-0.96875,0.234375,0.109375
1631023523031,-0.96875,0.21875,0.109375
1631023523062,-0.96875,0.234375,0.109375
1631023523093,-0.96875,0.234375,0.109375
1631023523125,-0.96875,0.234375,0.109375
1631023523156,-0.96875,0.234375,0.109375
1631023523187,-0.96875,0.21875,0.109375
1631023523218,-0.96875,0.21875,0.109375
1631023523250,-0.96875,0.21875,0.109375
1631023523281,-0.96875,0.21875,0.109375
1631023523312,-0.96875,0.234375,0.109375
1631023523343,-0.96875,0.234375,0.109375
1631023523375,-0.96875,0.21875,0.109375
1631023523406,-0.96875,0.21875,0.109375
1631023523437,-0.96875,0.21875,0.109375
1631023523468,-0.96875,0.21875,0.109375
1631023523500,-0.96875,0.21875,0.109375
1631023523531,-0.96875,0.21875,0.109375
1631023523562,-0.96875,0.21875,0.109375
1631023523593,-0.96875,0.21875,0.109375
1631023523625,-0.96875,0.21875,0.109375
1631023523656,-0.96875,0.234375,0.109375
1631023523687,-0.96875,0.21875,0.109375
1631023523718,-0.96875,0.21875,0.109375
1631023523750,-0.96875,0.21875,0.109375
1631023523781,-0.96875,0.21875,0.109375
1631023523812,-0.96875,0.21875,0.109375
1631023523843,-0.96875,0.21875,0.109375
1631023523875,-0.96875,0.21875,0.109375
1631023523906,-0.96875,0.21875,0.109375
1631023523937,-0.96875,0.234375,0.109375
1631023523968,-0.96875,0.234375,0.109375
1631023524000,-0.96875,0.234375,0.109375
1631023524031,-0.96875,0.234375,0.109375
1631023524062,-0.96875,0.234375,0.109375
1631023524093,-0.96875,0.234375,0.109375
1631023524125,-0.96875,0.234375,0.109375
1631023524156,-0.96875,0.234375,0.109375
1631023524187,-0.96875,0.234375,0.109375
1631023524218,-0.96875,0.234375,0.109375
1631023524250,-0.96875,0.234375,0.109375
1631023524281,-0.96875,0.21875,0.109375
1631023524312,-0.96875,0.234375,0.09375
1631023524343,-0.96875,0.234375,0.109375
1631023524375,-0.96875,0.234375,0.109375
1631023524406,-0.96875,0.21875,0.109375
1631023524437,-0.96875,0.234375,0.109375
1631023524468,-0.96875,0.234375,0.109375
1631023524500,-0.96875,0.234375,0.109375
1631023524531,-0.96875,0.234375,0.109375
1631023524562,-0.96875,0.234375,0.109375
1631023524593,-0.96875,0.234375,0.109375
1631023524625,-0.96875,0.234375,0.109375
1631023524656,-0.96875,0.234375,0.109375
1631023524687,-0.96875,0.234375,0.109375
1631023524718,-0.96875,0.234375,0.109375
1631023524750,-0.96875,0.234375,0.109375
1631023524781,-0.96875,0.234375,0.109375
1631023524812,-0.96875,0.234375,0.109375
1631023524843,-0.96875,0.234375,0.109375
1631023524875,-0.96875,0.234375,0.109375
1631023524906,-0.96875,0.234375,0.09375
1631023524937,-0.96875,0.234375,0.109375
1631023524968,-0.96875,0.234375,0.109375
1631023525000,-0.96875,0.234375,0.109375
1631023525031,-0.96875,0.234375,0.109375
1631023525062,-0.96875,0.234375,0.109375
1631023525093,-0.96875,0.234375,0.109375
1631023525125,-0.96875,0.234375,0.109375
1631023525156,-0.96875,0.234375,0.109375
1631023525187,-0.96875,0.234375,0.09375
1631023525218,-0.96875,0.234375,0.09375
1631023525250,-0.96875,0.234375,0.109375
1631023525281,-0.96875,0.234375,0.109375
1631023525312,-0.96875,0.234375,0.09375
1631023525343,-0.96875,0.234375,0.109375
1631023525375,-0.96875,0.234375,0.09375
1631023525406,-0.96875,0.234375,0.09375
1631023525437,-0.96875,0.234375,0.109375
1631023525468,-0.96875,0.234375,0.109375
1631023525500,-0.96875,0.234375,0.09375
1631023525531,-0.96875,0.234375,0.109375
1631023525562,-0.96875,0.234375,0.109375
1631023525593,-0.96875,0.234375,0.109375
1631023525625,-0.96875,0.234375,0.109375
1631023525656,-0.96875,0.234375,0.109375
1631023525687,-0.96875,0.234375,0.109375
1631023525718,-0.96875,0.234375,0.109375
1631023525750,-0.96875,0.234375,0.109375
1631023525781,-0.96875,0.234375,0.109375
1631023525812,-0.96875,0.234375,0.109375
1631023525843,-0.96875,0.234375,0.109375
1631023525875,-0.96875,0.234375,0.109375
1631023525906,-0.96875,0.234375,0.109375
1631023525937,-0.96875,0.234375,0.109375
1631023525968,-0.96875,0.234375,0.109375
1631023526000,-0.96875,0.234375,0.109375
1631023526031,-0.96875,0.234375,0.109375
1631023526062,-0.96875,0.234375,0.109375
1631023526093,-0.96875,0.234375,0.109375
1631023526125,-0.96875,0.234375,0.109375
1631023526156,-0.96875,0.234375,0.109375
1631023526187,-0.96875,0.234375,0.09375
1631023526218,-0.96875,0.234375,0.09375
1631023526250,-0.96875,0.234375,0.109375
1631023526281,-0.96875,0.234375,0.109375
1631023526312,-0.96875,0.234375,0.109375
1631023526343,-0.96875,0.234375,0.109375
1631023526375,-0.96875,0.234375,0.109375
1631023526406,-0.96875,0.234375,0.109375
1631023526437,-0.96875,0.234375,0.109375
1631023526468,-0.96875,0.234375,0.109375
1631023526500,-0.96875,0.234375,0.109375
1631023526531,-0.96875,0.234375,0.109375
1631023526562,-0.96875,0.234375,0.109375
1631023526593,-0.96875,0.234375,0.109375
1631023526625,-0.96875,0.234375,0.109375
1631023526656,-0.96875,0.234375,0.109375
1631023526687,-0.96875,0.234375,0.109375
1631023526718,-0.96875,0.234375,0.109375
1631023526750,-0.96875,0.234375,0.109375
1631023526781,-0.96875,0.234375,0.109375
1631023526812,-0.96875,0.234375,0.109375
1631023526843,-0.96875,0.234375,0.109375
1631023526875,-0.96875,0.234375,0.109375
1631023526906,-0.96875,0.234375,0.109375
1631023526937,-0.96875,0.234375,0.109375
1631023526968,-0.96875,0.234375,0.109375
1631023527000,-0.96875,0.234375,0.109375
1631023527031,-0.96875,0.234375,0.09375
1631023527062,-0.96875,0.21875,0.109375
1631023527093,-0.96875,0.21875,0.109375
1631023527125,-0.96875,0.234375,0.109375
1631023527156,-0.96875,0.21875,0.109375
1631023527187,-0.96875,0.234375,0.109375
1631023527218,-0.96875,0.21875,0.109375
1631023527250,-0.96875,0.234375,0.109375
1631023527281,-0.96875,0.21875,0.109375
1631023527312,-0.96875,0.234375,0.109375
1631023527343,-0.96875,0.21875,0.109375
1631023527375,-0.96875,0.21875,0.109375
1631023527406,-0.96875,0.21875,0.109375
1631023527437,-0.96875,0.21875,0.109375
1631023527468,-0.96875,0.21875,0.109375
1631023527500,-0.96875,0.21875,0.109375
1631023527531,-0.96875,0.234375,0.109375
1631023527562,-0.96875,0.21875,0.109375
1631023527593,-0.96875,0.234375,0.109375
1631023527625,-0.96875,0.21875,0.109375
1631023527656,-0.96875,0.234375,0.109375
1631023527687,-0.96875,0.21875,0.109375
1631023527718,-0.96875,0.21875,0.109375
1631023527750,-0.96875,0.234375,0.109375
1631023527781,-0.96875,0.21875,0.109375
1631023527812,-0.96875,0.21875,0.109375
1631023527843,-0.96875,0.234375,0.109375
1631023527875,-0.96875,0.234375,0.109375
1631023527906,-0.96875,0.21875,0.109375
1631023527937,-0.96875,0.234375,0.109375
1631023527968,-0.96875,0.21875,0.109375
1631023528000,-0.96875,0.21875,0.109375
1631023528031,-0.96875,0.21875,0.109375
1631023528062,-0.96875,0.21875,0.109375
1631023528093,-0.96875,0.21875,0.109375
1631023528125,-0.96875,0.21875,0.109375
1631023528156,-0.96875,0.21875,0.109375
1631023528187,-0.96875,0.21875,0.109375
1631023528218,-0.96875,0.21875,0.109375
1631023528250,-0.96875,0.21875,0.109375
1631023528281,-0.96875,0.21875,0.109375
1631023528312,-0.96875,0.21875,0.109375
1631023528343,-0.96875,0.234375,0.109375
1631023528375,-0.96875,0.234375,0.109375
1631023528406,-0.96875,0.234375,0.109375
1631023528437,-0.96875,0.21875,0.109375
1631023528468,-0.96875,0.21875,0.109375
1631023528500,-0.96875,0.21875,0.109375
1631023528531,-0.96875,0.234375,0.109375
1631023528562,-0.96875,0.234375,0.109375
1631023528593,-0.96875,0.234375,0.109375
1631023528625,-0.96875,0.234375,0.109375
1631023528656,-0.96875,0.234375,0.109375
1631023528687,-0.96875,0.234375,0.109375
1631023528718,-0.96875,0.21875,0.109375
1631023528750,-0.96875,0.234375,0.109375
1631023528781,-0.96875,0.234375,0.109375
1631023528812,-0.96875,0.234375,0.109375
1631023528843,-0.96875,0.234375,0.109375
1631023528875,-0.96875,0.234375,0.09375
1631023528906,-0.96875,0.234375,0.109375
1631023528937,-0.96875,0.234375,0.09375
1631023528968,-0.96875,0.234375,0.109375
1631023529000,-0.96875,0.234375,0.109375
1631023529031,-0.96875,0.234375,0.109375
1631023529062,-0.96875,0.234375,0.109375
1631023529093,-0.96875,0.234375,0.109375
1631023529125,-0.96875,0.234375,0.109375
1631023529156,-0.96875,0.234375,0.109375
1631023529187,-0.96875,0.234375,0.109375
1631023529218,-0.96875,0.234375,0.109375
1631023529250,-0.96875,0.234375,0.109375
1631023529281,-0.96875,0.234375,0.109375
1631023529312,-0.96875,0.234375,0.109375
1631023529343,-0.96875,0.234375,0.109375
1631023529375,-0.96875,0.234375,0.109375
1631023529406,-0.96875,0.234375,0.109375
1631023529437,-0.96875,0.234375,0.09375
1631023529468,-0.96875,0.234375,0.109375
1631023529500,-0.96875,0.234375,0.109375
1631023529531,-0.96875,0.234375,0.109375
1631023529562,-0.96875,0.234375,0.09375
1631023529593,-0.96875,0.234375,0.109375
1631023529625,-0.96875,0.234375,0.109375
1631023529656,-0.96875,0.234375,0.109375
1631023529687,-0.96875,0.234375,0.109375
1631023529718,-0.96875,0.234375,0.109375
1631023529750,-0.96875,0.234375,0.109375
1631023529781,-0.96875,0.234375,0.09375
1631023529812,-0.96875,0.234375,0.09375
1631023529843,-0.96875,0.21875,0.109375
1631023529875,-0.96875,0.234375,0.109375
1631023529906,-0.96875,0.234375,0.109375
1631023529937,-0.96875,0.234375,0.09375
1631023529968,-0.96875,0.234375,0.109375
1631023530000,-0.96875,0.234375,0.109375
1631023530031,-0.96875,0.234375,0.109375
1631023530062,-0.96875,0.234375,0.109375
1631023530093,-0.96875,0.234375,0.109375
1631023530125,-0.96875,0.234375,0.109375
1631023530156,-0.96875,0.234375,0.109375
1631023530187,-0.96875,0.21875,0.109375
1631023530218,-0.96875,0.234375,0.109375
1631023530250,-0.96875,0.234375,0.109375
1631023530281,-0.96875,0.234375,0.109375
1631023530312,-0.96875,0.234375,0.109375
1631023530343,-0.96875,0.234375,0.109375
1631023530375,-0.96875,0.234375,0.109375
1631023530406,-0.96875,0.234375,0.109375
1631023530437,-0.96875,0.234375,0.109375
1631023530468,-0.96875,0.234375,0.109375
1631023530500,-0.96875,0.234375,0.109375
1631023530531,-0.96875,0.234375,0.09375
1631023530562,-0.96875,0.234375,0.109375
1631023530593,-0.96875,0.234375,0.109375
1631023530625,-0.96875,0.234375,0.109375
1631023530656,-0.96875,0.234375,0.109375
1631023530687,-0.96875,0.234375,0.09375
1631023530718,-0.96875,0.21875,0.109375
1631023530750,-0.96875,0.234375,0.109375
1631023530781,-0.96875,0.234375,0.109375
1631023530812,-0.96875,0.21875,0.109375
1631023530843,-0.96875,0.21875,0.109375
1631023530875,-0.96875,0.234375,0.109375
1631023530906,-0.96875,0.234375,0.109375
1631023530937,-0.96875,0.234375,0.109375
1631023530968,-0.96875,0.21875,0.109375
1631023531000,-0.96875,0.234375,0.109375
1631023531031,-0.96875,0.21875,0.109375
1631023531062,-0.96875,0.234375,0.109375
1631023531093,-0.96875,0.234375,0.109375
1631023531125,-0.96875,0.21875,0.109375
1631023531156,-0.96875,0.21875,0.109375
1631023531187,-0.96875,0.21875,0.109375
1631023531218,-0.96875,0.21875,0.109375
1631023531250,-0.96875,0.234375,0.109375
1631023531281,-0.96875,0.234375,0.109375
1631023531312,-0.96875,0.21875,0.109375
1631023531343,-0.96875,0.21875,0.109375
1631023531375,-0.96875,0.234375,0.109375
1631023531406,-0.96875,0.21875,0.109375
1631023531437,-0.96875,0.21875,0.109375
1631023531468,-0.96875,0.21875,0.109375
1631023531500,-0.96875,0.21875,0.109375
1631023531531,-0.96875,0.21875,0.09375
1631023531562,-0.96875,0.234375,0.109375
1631023531593,-0.96875,0.21875,0.109375
1631023531625,-0.96875,0.21875,0.109375
1631023531656,-0.96875,0.21875,0.109375
1631023531687,-0.96875,0.21875,0.109375
1631023531718,-0.96875,0.21875,0.109375
1631023531750,-0.96875,0.21875,0.109375
1631023531781,-0.96875,0.21875,0.109375
1631023531812,-0.96875,0.21875,0.109375
1631023531843,-0.96875,0.234375,0.109375
1631023531875,-0.96875,0.21875,0.109375
1631023531906,-0.96875,0.21875,0.109375
1631023531937,-0.96875,0.21875,0.109375
1631023531968,-0.96875,0.21875,0.109375
1631023532000,-0.96875,0.21875,0.109375
1631023532031,-0.96875,0.21875,0.109375
1631023532062,-0.96875,0.21875,0.109375
1631023532093,-0.96875,0.234375,0.109375
1631023532125,-0.96875,0.234375,0.109375
1631023532156,-0.96875,0.21875,0.109375
1631023532187,-0.96875,0.234375,0.109375
1631023532218,-0.96875,0.21875,0.109375
1631023532250,-0.96875,0.234375,0.109375
1631023532281,-0.96875,0.234375,0.109375
1631023532312,-0.96875,0.234375,0.109375
1631023532343,-0.96875,0.234375,0.109375
1631023532375,-0.96875,0.21875,0.109375
1631023532406,-0.96875,0.234375,0.109375
1631023532437,-0.96875,0.234375,0.109375
1631023532468,-0.96875,0.234375,0.109375
1631023532500,-0.96875,0.234375,0.109375
1631023532531,-0.96875,0.234375,0.109375
1631023532562,-0.96875,0.234375,0.109375
1631023532593,-0.96875,0.234375,0.109375
1631023532625,-0.96875,0.234375,0.109375
1631023532656,-0.96875,0.234375,0.109375
1631023532687,-0.96875,0.234375,0.109375
1631023532718,-0.96875,0.234375,0.109375
1631023532750,-0.96875,0.234375,0.109375
1631023532781,-0.96875,0.234375,0.09375
1631023532812,-0.96875,0.234375,0.109375
1631023532843,-0.96875,0.234375,0.109375
1631023532875,-0.96875,0.234375,0.109375
1631023532906,-0.96875,0.234375,0.109375
1631023532937,-0.96875,0.234375,0.109375
1631023532968,-0.96875,0.234375,0.109375
1631023533000,-0.96875,0.234375,0.109375
1631023533031,-0.96875,0.234375,0.109375
1631023533062,-0.96875,0.234375,0.109375
1631023533093,-0.96875,0.234375,0.109375
1631023533125,-0.96875,0.234375,0.109375
1631023533156,-0.96875,0.234375,0.109375
1631023533187,-0.96875,0.234375,0.109375
1631023533218,-0.96875,0.234375,0.109375
1631023533250,-0.96875,0.234375,0.09375
1631023533281,-0.96875,0.234375,0.109375
1631023533312,-0.96875,0.234375,0.109375
1631023533343,-0.96875,0.234375,0.109375
1631023533375,-0.96875,0.234375,0.109375
1631023533406,-0.96875,0.234375,0.109375
1631023533437,-0.96875,0.234375,0.109375
1631023533468,-0.96875,0.234375,0.109375
1631023533500,-0.96875,0.234375,0.109375
1631023533531,-0.96875,0.234375,0.109375
1631023533562,-0.96875,0.234375,0.109375
1631023533593,-0.96875,0.234375,0.109375
1631023533625,-0.96875,0.234375,0.109375
1631023533656,-0.96875,0.234375,0.109375
1631023533687,-0.96875,0.234375,0.109375
1631023533718,-0.96875,0.234375,0.109375
1631023533750,-0.96875,0.234375,0.109375
1631023533781,-0.96875,0.234375,0.109375
1631023533812,-0.96875,0.234375,0.109375
1631023533843,-0.96875,0.234375,0.109375
1631023533875,-0.96875,0.234375,0.109375
1631023533906,-0.96875,0.234375,0.109375
1631023533937,-0.96875,0.234375,0.109375
1631023533968,-0.96875,0.234375,0.109375
1631023534000,-0.96875,0.234375,0.09375
1631023534031,-0.96875,0.234375,0.109375
1631023534062,-0.96875,0.21875,0.109375
1631023534093,-0.96875,0.234375,0.109375
1631023534125,-0.96875,0.21875,0.109375
1631023534156,-0.96875,0.234375,0.109375
1631023534187,-0.96875,0.234375,0.109375
1631023534218,-0.96875,0.234375,0.109375
1631023534250,-0.96875,0.234375,0.109375
1631023534281,-0.96875,0.234375,0.109375
1631023534312,-0.96875,0.234375,0.109375
1631023534343,-0.96875,0.234375,0.109375
1631023534375,-0.96875,0.234375,0.109375
1631023534406,-0.96875,0.21875,0.109375
1631023534437,-0.96875,0.234375,0.109375
1631023534468,-0.96875,0.234375,0.109375
1631023534500,-0.96875,0.234375,0.109375
1631023534531,-0.96875,0.21875,0.109375
1631023534562,-0.96875,0.234375,0.109375
1631023534593,-0.96875,0.234375,0.109375
1631023534625,-0.96875,0.234375,0.109375
1631023534656,-0.96875,0.234375,0.109375
1631023534687,-0.96875,0.234375,0.109375
1631023534718,-0.96875,0.234375,0.109375
1631023534750,-0.96875,0.234375,0.109375
1631023534781,-0.96875,0.21875,0.109375
1631023534812,-0.96875,0.21875,0.109375
1631023534843,-0.96875,0.21875,0.109375
1631023534875,-0.96875,0.234375,0.109375
1631023534906,-0.96875,0.21875,0.109375
1631023534937,-0.96875,0.21875,0.109375
1631023534968,-0.96875,0.21875,0.109375
1631023535000,-0.96875,0.234375,0.109375
1631023535031,-0.96875,0.234375,0.109375
1631023535062,-0.96875,0.21875,0.109375
1631023535093,-0.96875,0.21875,0.109375
1631023535125,-0.96875,0.234375,0.109375
1631023535156,-0.96875,0.21875,0.109375
1631023535187,-0.96875,0.234375,0.109375
1631023535218,-0.96875,0.234375,0.109375
1631023535250,-0.96875,0.234375,0.109375
1631023535281,-0.96875,0.234375,0.109375
1631023535312,-0.96875,0.21875,0.109375
1631023535343,-0.96875,0.21875,0.109375
1631023535375,-0.96875,0.234375,0.109375
1631023535406,-0.96875,0.21875,0.109375
1631023535437,-0.96875,0.234375,0.109375
1631023535468,-0.96875,0.234375,0.109375
1631023535500,-0.96875,0.234375,0.109375
1631023535531,-0.96875,0.234375,0.109375
1631023535562,-0.96875,0.21875,0.109375
1631023535593,-0.96875,0.234375,0.109375
1631023535625,-0.96875,0.234375,0.109375
1631023535656,-0.96875,0.234375,0.109375
1631023535687,-0.96875,0.234375,0.109375
1631023535718,-0.96875,0.234375,0.109375
1631023535750,-0.96875,0.234375,0.09375
1631023535781,-0.96875,0.234375,0.109375
1631023535812,-0.96875,0.234375,0.109375
1631023535843,-0.96875,0.234375,0.109375
1631023535875,-0.96875,0.234375,0.109375
1631023535906,-0.96875,0.234375,0.109375
1631023535937,-0.96875,0.234375,0.109375
1631023535968,-0.96875,0.234375,0.109375
1631023536000,-0.96875,0.234375,0.109375
1631023536031,-0.96875,0.234375,0.109375
1631023536062,-0.96875,0.234375,0.109375
1631023536093,-0.96875,0.234375,0.109375
1631023536125,-0.96875,0.234375,0.109375
1631023536156,-0.96875,0.234375,0.109375
1631023536187,-0.96875,0.234375,0.109375
1631023536218,-0.96875,0.234375,0.109375
1631023536250,-0.96875,0.234375,0.109375
1631023536281,-0.96875,0.234375,0.109375
1631023536312,-0.96875,0.234375,0.09375
1631023536343,-0.96875,0.234375,0.109375
1631023536375,-0.96875,0.234375,0.09375
1631023536406,-0.96875,0.234375,0.109375
1631023536437,-0.96875,0.234375,0.09375
1631023536468,-0.96875,0.234375,0.109375
1631023536500,-0.96875,0.234375,0.109375
1631023536531,-0.96875,0.234375,0.109375
1631023536562,-0.96875,0.234375,0.09375
1631023536593,-0.96875,0.234375,0.09375
1631023536625,-0.96875,0.234375,0.109375
1631023536656,-0.96875,0.234375,0.109375
1631023536687,-0.96875,0.234375,0.109375
1631023536718,-0.96875,0.234375,0.109375
1631023536750,-0.96875,0.234375,0.109375
1631023536781,-0.96875,0.234375,0.109375
1631023536812,-0.96875,0.234375,0.109375
1631023536843,-0.96875,0.234375,0.109375
1631023536875,-0.96875,0.234375,0.109375
1631023536906,-0.96875,0.234375,0.109375
1631023536937,-0.96875,0.234375,0.109375
1631023536968,-0.96875,0.234375,0.109375
1631023537000,-0.96875,0.234375,0.109375
1631023537031,-0.96875,0.234375,0.109375
1631023537062,-0.96875,0.234375,0.109375
1631023537093,-0.96875,0.234375,0.109375
1631023537125,-0.96875,0.234375,0.109375
1631023537156,-0.96875,0.234375,0.109375
1631023537187,-0.96875,0.234375,0.109375
1631023537218,-0.96875,0.234375,0.09375
1631023537250,-0.96875,0.234375,0.109375
1631023537281,-0.96875,0.234375,0.109375
1631023537312,-0.96875,0.234375,0.109375
1631023537343,-0.96875,0.234375,0.109375
1631023537375,-0.96875,0.234375,0.09375
1631023537406,-0.96875,0.234375,0.09375
1631023537437,-0.96875,0.234375,0.109375
1631023537468,-0.96875,0.234375,0.109375
1631023537500,-0.96875,0.234375,0.109375
1631023537531,-0.96875,0.234375,0.109375
1631023537562,-0.96875,0.21875,0.109375
1631023537593,-0.96875,0.234375,0.109375
1631023537625,-0.96875,0.234375,0.109375
1631023537656,-0.96875,0.234375,0.109375
1631023537687,-0.96875,0.234375,0.109375
1631023537718,-0.96875,0.234375,0.109375
1631023537750,-0.96875,0.234375,0.109375
1631023537781,-0.96875,0.234375,0.109375
1631023537812,-0.96875,0.234375,0.109375
1631023537843,-0.96875,0.21875,0.109375
1631023537875,-0.96875,0.234375,0.109375
1631023537906,-0.96875,0.21875,0.109375
1631023537937,-0.96875,0.234375,0.109375
1631023537968,-0.96875,0.21875,0.109375
1631023538000,-0.96875,0.234375,0.109375
1631023538031,-0.96875,0.234375,0.109375
1631023538062,-0.96875,0.21875,0.109375
1631023538093,-0.96875,0.234375,0.109375
1631023538125,-0.96875,0.234375,0.09375
1631023538156,-0.96875,0.234375,0.109375
1631023538187,-0.96875,0.234375,0.109375
1631023538218,-0.96875,0.234375,0.109375
1631023538250,-0.96875,0.234375,0.09375
1631023538281,-0.96875,0.21875,0.109375
1631023538312,-0.96875,0.234375,0.109375
1631023538343,-0.96875,0.21875,0.109375
1631023538375,-0.96875,0.234375,0.109375
1631023538406,-0.96875,0.21875,0.109375
1631023538437,-0.96875,0.21875,0.109375
1631023538468,-0.96875,0.234375,0.109375
1631023538500,-0.96875,0.234375,0.109375
1631023538531,-0.96875,0.21875,0.109375
1631023538562,-0.96875,0.234375,0.109375
1631023538593,-0.96875,0.234375,0.109375
1631023538625,-0.96875,0.234375,0.109375
1631023538656,-0.96875,0.234375,0.109375
1631023538687,-0.96875,0.234375,0.109375
1631023538718,-0.96875,0.234375,0.109375
1631023538750,-0.96875,0.234375,0.109375
1631023538781,-0.96875,0.234375,0.109375
1631023538812,-0.96875,0.234375,0.109375
1631023538843,-0.96875,0.234375,0.109375
1631023538875,-0.96875,0.234375,0.109375
1631023538906,-0.96875,0.234375,0.09375
1631023538937,-0.96875,0.234375,0.109375
1631023538968,-0.96875,0.234375,0.109375
1631023539000,-0.96875,0.234375,0.109375
1631023539031,-0.96875,0.234375,0.109375
1631023539062,-0.96875,0.234375,0.109375
1631023539093,-0.96875,0.234375,0.109375
1631023539125,-0.96875,0.234375,0.09375
1631023539156,-0.96875,0.234375,0.109375
1631023539187,-0.96875,0.234375,0.109375
1631023539218,-0.96875,0.234375,0.109375
1631023539250,-0.96875,0.234375,0.09375
1631023539281,-0.96875,0.234375,0.109375
1631023539312,-0.96875,0.234375,0.109375
1631023539343,-0.96875,0.234375,0.109375
1631023539375,-0.96875,0.234375,0.109375
1631023539406,-0.96875,0.234375,0.109375
1631023539437,-0.96875,0.234375,0.109375
1631023539468,-0.96875,0.234375,0.109375
1631023539500,-0.96875,0.234375,0.09375
1631023539531,-0.96875,0.234375,0.109375
1631023539562,-0.96875,0.234375,0.109375
1631023539593,-0.96875,0.234375,0.109375
1631023539625,-0.96875,0.234375,0.109375
1631023539656,-0.96875,0.234375,0.109375
1631023539687,-0.96875,0.234375,0.109375
1631023539718,-0.96875,0.234375,0.109375
1631023539750,-0.96875,0.234375,0.09375
1631023539781,-0.96875,0.234375,0.109375
1631023539812,-0.96875,0.234375,0.109375
1631023539843,-0.96875,0.234375,0.109375
1631023539875,-0.96875,0.234375,0.109375
1631023539906,-0.96875,0.234375,0.109375
1631023539937,-0.96875,0.234375,0.09375
1631023539968,-0.96875,0.234375,0.109375
1631023540000,-0.96875,0.234375,0.09375
1631023540031,-0.96875,0.234375,0.109375
1631023540062,-0.96875,0.234375,0.109375
1631023540093,-0.96875,0.234375,0.109375
1631023540125,-0.96875,0.234375,0.109375
1631023540156,-0.96875,0.234375,0.109375
1631023540187,-0.96875,0.234375,0.109375
1631023540218,-0.96875,0.234375,0.109375
1631023540250,-0.96875,0.234375,0.109375
1631023540281,-0.96875,0.234375,0.109375
1631023540312,-0.96875,0.234375,0.109375
1631023540343,-0.96875,0.234375,0.109375
1631023540375,-0.96875,0.234375,0.109375
1631023540406,-0.96875,0.234375,0.109375
1631023540437,-0.96875,0.234375,0.109375
1631023540468,-0.96875,0.234375,0.109375
1631023540500,-0.96875,0.234375,0.109375
1631023540531,-0.96875,0.234375,0.09375
1631023540562,-0.96875,0.234375,0.109375
1631023540593,-0.96875,0.234375,0.109375
1631023540625,-0.96875,0.234375,0.109375
1631023540656,-0.96875,0.234375,0.109375
1631023540687,-0.96875,0.234375,0.109375
1631023540718,-0.96875,0.234375,0.109375
1631023540750,-0.96875,0.234375,0.109375
1631023540781,-0.96875,0.234375,0.09375
1631023540812,-0.96875,0.234375,0.09375
1631023540843,-0.96875,0.234375,0.109375
1631023540875,-0.96875,0.234375,0.109375
1631023540906,-0.96875,0.234375,0.109375
1631023540937,-0.96875,0.234375,0.109375
1631023540968,-0.96875,0.234375,0.109375
1631023541000,-0.96875,0.234375,0.109375
1631023541031,-0.96875,0.234375,0.109375
1631023541062,-0.96875,0.234375,0.109375
1631023541093,-0.96875,0.234375,0.09375
1631023541125,-0.96875,0.234375,0.109375
1631023541156,-0.96875,0.234375,0.109375
1631023541187,-0.96875,0.234375,0.109375
1631023541218,-0.96875,0.234375,0.109375
1631023541250,-0.96875,0.234375,0.109375
1631023541281,-0.96875,0.234375,0.109375
1631023541312,-0.96875,0.234375,0.109375
1631023541343,-0.96875,0.234375,0.109375
1631023541375,-0.96875,0.234375,0.109375
1631023541406,-0.96875,0.234375,0.109375
1631023541437,-0.96875,0.234375,0.109375
1631023541468,-0.96875,0.234375,0.109375
1631023541500,-0.96875,0.234375,0.109375
1631023541531,-0.96875,0.234375,0.109375
1631023541562,-0.96875,0.234375,0.109375
1631023541593,-0.96875,0.234375,0.109375
1631023541625,-0.96875,0.234375,0.109375
1631023541656,-0.96875,0.234375,0.109375
1631023541687,-0.96875,0.21875,0.109375
1631023541718,-0.96875,0.234375,0.109375
1631023541750,-0.96875,0.234375,0.109375
1631023541781,-0.96875,0.234375,0.109375
1631023541812,-0.96875,0.234375,0.109375
1631023541843,-0.96875,0.234375,0.109375
1631023541875,-0.96875,0.234375,0.109375
1631023541906,-0.96875,0.234375,0.109375
1631023541937,-0.96875,0.21875,0.109375
1631023541968,-0.96875,0.234375,0.109375
1631023542000,-0.96875,0.234375,0.109375
1631023542031,-0.96875,0.234375,0.109375
1631023542062,-0.96875,0.234375,0.109375
1631023542093,-0.96875,0.234375,0.109375
1631023542125,-0.96875,0.21875,0.109375
1631023542156,-0.96875,0.234375,0.109375
1631023542187,-0.96875,0.234375,0.109375
1631023542218,-0.96875,0.21875,0.109375
1631023542250,-0.96875,0.21875,0.109375
1631023542281,-0.96875,0.21875,0.109375
1631023542312,-0.96875,0.234375,0.109375
1631023542343,-0.96875,0.234375,0.109375
1631023542375,-0.96875,0.234375,0.109375
1631023542406,-0.96875,0.21875,0.109375
1631023542437,-0.96875,0.234375,0.109375
1631023542468,-0.96875,0.234375,0.109375
1631023542500,-0.96875,0.234375,0.109375
1631023542531,-0.96875,0.21875,0.109375
1631023542562,-0.96875,0.21875,0.109375
1631023542593,-0.96875,0.234375,0.109375
1631023542625,-0.96875,0.21875,0.109375
1631023542656,-0.96875,0.21875,0.109375
1631023542687,-0.96875,0.21875,0.109375
1631023542718,-0.96875,0.234375,0.109375
1631023542750,-0.96875,0.234375,0.109375
1631023542781,-0.96875,0.21875,0.109375
1631023542812,-0.96875,0.21875,0.109375
1631023542843,-0.96875,0.234375,0.109375
1631023542875,-0.96875,0.234375,0.109375
1631023542906,-0.96875,0.234375,0.109375
1631023542937,-0.96875,0.234375,0.109375
1631023542968,-0.96875,0.234375,0.109375
1631023543000,-0.96875,0.234375,0.109375
1631023543031,-0.96875,0.234375,0.109375
1631023543062,-0.96875,0.234375,0.109375
1631023543093,-0.96875,0.234375,0.109375
1631023543125,-0.96875,0.234375,0.109375
1631023543156,-0.96875,0.234375,0.109375
1631023543187,-0.96875,0.234375,0.109375
1631023543218,-0.96875,0.234375,0.09375
1631023543250,-0.96875,0.234375,0.109375
1631023543281,-0.96875,0.234375,0.109375
1631023543312,-0.96875,0.234375,0.109375
1631023543343,-0.96875,0.234375,0.109375
1631023543375,-0.96875,0.234375,0.109375
1631023543406,-0.96875,0.234375,0.109375
1631023543437,-0.96875,0.234375,0.109375
1631023543468,-0.96875,0.234375,0.109375
1631023543500,-0.96875,0.234375,0.09375
1631023543531,-0.96875,0.234375,0.109375
1631023543562,-0.96875,0.234375,0.109375
1631023543593,-0.96875,0.234375,0.109375
1631023543625,-0.96875,0.234375,0.109375
1631023543656,-0.96875,0.234375,0.109375
1631023543687,-0.96875,0.234375,0.109375
1631023543718,-0.96875,0.234375,0.109375
1631023543750,-0.96875,0.234375,0.109375
1631023543781,-0.96875,0.234375,0.109375
1631023543812,-0.96875,0.234375,0.109375
1631023543843,-0.96875,0.234375,0.109375
1631023543875,-0.96875,0.234375,0.109375
1631023543906,-0.96875,0.234375,0.109375
1631023543937,-0.96875,0.234375,0.109375
1631023543968,-0.96875,0.234375,0.109375
1631023544000,-0.96875,0.234375,0.09375
1631023544031,-0.96875,0.234375,0.109375
1631023544062,-0.96875,0.234375,0.109375
1631023544093,-0.96875,0.234375,0.109375
1631023544125,-0.96875,0.234375,0.109375
1631023544156,-0.96875,0.234375,0.109375
1631023544187,-0.96875,0.234375,0.109375
1631023544218,-0.96875,0.234375,0.109375
1631023544250,-0.96875,0.234375,0.109375
1631023544281,-0.96875,0.234375,0.09375
1631023544312,-0.96875,0.234375,0.109375
1631023544343,-0.96875,0.234375,0.09375
1631023544375,-0.96875,0.234375,0.109375
1631023544406,-0.96875,0.234375,0.109375
1631023544437,-0.96875,0.234375,0.09375
1631023544468,-0.96875,0.234375,0.09375
1631023544500,-0.96875,0.234375,0.109375
1631023544531,-0.96875,0.234375,0.109375
1631023544562,-0.96875,0.234375,0.109375
1631023544593,-0.96875,0.234375,0.109375
1631023544625,-0.96875,0.234375,0.109375
1631023544656,-0.96875,0.234375,0.109375
1631023544687,-0.96875,0.234375,0.109375
1631023544718,-0.96875,0.234375,0.09375
1631023544750,-0.96875,0.234375,0.09375
1631023544781,-0.96875,0.234375,0.109375
1631023544812,-0.96875,0.234375,0.09375
1631023544843,-0.96875,0.234375,0.109375
1631023544875,-0.96875,0.234375,0.109375
1631023544906,-0.96875,0.234375,0.109375
1631023544937,-0.96875,0.234375,0.109375
