timestamp,ax,ay,az
1631204135250,-0.609375,-0.234375,0.75
1631204135281,-0.609375,-0.234375,0.734375
1631204135312,-0.609375,-0.234375,0.734375
1631204135343,-0.609375,-0.234375,0.75
1631204135375,-0.609375,-0.234375,0.75
1631204135406,-0.609375,-0.234375,0.75
1631204135437,-0.609375,-0.234375,0.75
1631204135468,-0.609375,-0.234375,0.734375
1631204135500,-0.609375,-0.234375,0.75
1631204135531,-0.609375,-0.234375,0.75
1631204135562,-0.609375,-0.234375,0.75
1631204135593,-0.609375,-0.234375,0.75
1631204135625,-0.609375,-0.234375,0.75
1631204135656,-0.609375,-0.234375,0.75
1631204135687,-0.609375,-0.234375,0.75
1631204135718,-0.609375,-0.234375,0.75
1631204135750,-0.609375,-0.234375,0.75
1631204135781,-0.609375,-0.234375,0.75
1631204135812,-0.609375,-0.234375,0.75
1631204135843,-0.609375,-0.234375,0.734375
1631204135875,-0.609375,-0.234375,0.75
1631204135906,-0.609375,-0.234375,0.75
1631204135937,-0.609375,-0.234375,0.75
1631204135968,-0.609375,-0.234375,0.75
1631204136000,-0.609375,-0.234375,0.75
1631204136031,-0.609375,-0.234375,0.734375
1631204136062,-0.609375,-0.234375,0.75
1631204136093,-0.609375,-0.234375,0.75
1631204136125,-0.625,-0.234375,0.75
1631204136156,-0.609375,-0.234375,0.75
1631204136187,-0.609375,-0.234375,0.75
1631204136218,-0.609375,-0.234375,0.75
1631204136250,-0.625,-0.234375,0.734375
1631204136281,-0.609375,-0.234375,0.75
1631204136312,-0.609375,-0.234375,0.75
1631204136343,-0.609375,-0.234375,0.734375
1631204136375,-0.609375,-0.234375,0.75
1631204136406,-0.609375,-0.234375,0.75
1631204136437,-0.609375,-0.234375,0.75
1631204136468,-0.609375,-0.234375,0.75
1631204136500,-0.609375,-0.234375,0.75
1631204136531,-0.625,-0.234375,0.734375
1631204136562,-0.609375,-0.234375,0.75
1631204136593,-0.609375,-0.234375,0.75
1631204136625,-0.609375,-0.234375,0.734375
1631204136656,-0.609375,-0.234375,0.75
1631204136687,-0.609375,-0.234375,0.75
1631204136718,-0.609375,-0.234375,0.75
1631204136750,-0.609375,-0.234375,0.75
1631204136781,-0.609375,-0.234375,0.75
1631204136812,-0.609375,-0.234375,0.75
1631204136843,-0.609375,-0.234375,0.75
1631204136875,-0.609375,-0.234375,0.75
1631204136906,-0.609375,-0.234375,0.75
1631204136937,-0.609375,-0.234375,0.75
1631204136968,-0.609375,-0.234375,0.75
1631204137000,-0.609375,-0.234375,0.75
1631204137031,-0.609375,-0.234375,0.75
1631204137062,-0.609375,-0.234375,0.75
1631204137093,-0.609375,-0.234375,0.75
1631204137125,-0.609375,-0.234375,0.75
1631204137156,-0.609375,-0.234375,0.75
1631204137187,-0.609375,-0.234375,0.75
1631204137218,-0.609375,-0.234375,0.75
1631204137250,-0.609375,-0.234375,0.75
1631204137281,-0.609375,-0.234375,0.75
1631204137312,-0.609375,-0.234375,0.75
1631204137343,-0.625,-0.234375,0.71875
1631204137375,-0.609375,-0.234375,0.75
1631204137406,-0.609375,-0.234375,0.75
1631204137437,-0.609375,-0.234375,0.734375
1631204137468,-0.609375,-0.234375,0.75
1631204137500,-0.609375,-0.234375,0.75
1631204137531,-0.609375,-0.234375,0.75
1631204137562,-0.609375,-0.234375,0.75
1631204137593,-0.609375,-0.234375,0.75
1631204137625,-0.609375,-0.234375,0.734375
1631204137656,-0.625,-0.234375,0.75
1631204137687,-0.609375,-0.234375,0.75
1631204137718,-0.609375,-0.234375,0.75
1631204137750,-0.609375,-0.234375,0.734375
1631204137781,-0.609375,-0.234375,0.75
1631204137812,-0.609375,-0.234375,0.734375
1631204137843,-0.609375,-0.234375,0.734375
1631204137875,-0.609375,-0.234375,0.75
1631204137906,-0.609375,-0.234375,0.75
1631204137937,-0.609375,-0.234375,0.734375
1631204137968,-0.609375,-0.234375,0.75
1631204138000,-0.609375,-0.234375,0.75
1631204138031,-0.609375,-0.234375,0.75
1631204138062,-0.609375,-0.234375,0.734375
1631204138093,-0.609375,-0.234375,0.75
1631204138125,-0.609375,-0.234375,0.75
1631204138156,-0.609375,-0.234375,0.75
1631204138187,-0.609375,-0.234375,0.75
1631204138218,-0.609375,-0.234375,0.75
1631204138250,-0.609375,-0.234375,0.75
1631204138281,-0.609375,-0.234375,0.75
1631204138312,-0.609375,-0.234375,0.75
1631204138343,-0.609375,-0.234375,0.75
1631204138375,-0.625,-0.234375,0.734375
1631204138406,-0.625,-0.234375,0.734375
1631204138437,-0.609375,-0.234375,0.75
1631204138468,-0.609375,-0.234375,0.75
1631204138500,-0.609375,-0.234375,0.734375
1631204138531,-0.609375,-0.234375,0.75
1631204138562,-0.609375,-0.234375,0.75
1631204138593,-0.609375,-0.234375,0.734375
1631204138625,-0.625,-0.234375,0.734375
1631204138656,-0.609375,-0.234375,0.75
1631204138687,-0.609375,-0.234375,0.75
1631204138718,-0.609375,-0.234375,0.734375
1631204138750,-0.609375,-0.234375,0.734375
1631204138781,-0.609375,-0.234375,0.75
1631204138812,-0.609375,-0.234375,0.75
1631204138843,-0.625,-0.234375,0.734375
1631204138875,-0.609375,-0.234375,0.734375
1631204138906,-0.609375,-0.21875,0.75
1631204138937,-0.609375,-0.234375,0.75
1631204138968,-0.609375,-0.234375,0.734375
1631204139000,-0.609375,-0.234375,0.75
1631204139031,-0.609375,-0.234375,0.75
1631204139062,-0.609375,-0.234375,0.75
1631204139093,-0.609375,-0.234375,0.75
1631204139125,-0.609375,-0.234375,0.75
1631204139156,-0.609375,-0.234375,0.75
1631204139187,-0.609375,-0.234375,0.75
1631204139218,-0.59375,-0.234375,0.75
1631204139250,-0.625,-0.234375,0.734375
1631204139281,-0.609375,-0.234375,0.75
1631204139312,-0.609375,-0.234375,0.734375
1631204139343,-0.609375,-0.234375,0.75
1631204139375,-0.609375,-0.234375,0.75
1631204139406,-0.609375,-0.234375,0.75
1631204139437,-0.609375,-0.234375,0.75
1631204139468,-0.609375,-0.234375,0.75
1631204139500,-0.609375,-0.21875,0.734375
1631204139531,-0.625,-0.234375,0.734375
1631204139562,-0.609375,-0.234375,0.75
1631204139593,-0.609375,-0.234375,0.75
1631204139625,-0.609375,-0.234375,0.75
1631204139656,-0.609375,-0.234375,0.75
1631204139687,-0.609375,-0.234375,0.75
1631204139718,-0.609375,-0.234375,0.75
1631204139750,-0.609375,-0.234375,0.75
1631204139781,-0.609375,-0.234375,0.75
1631204139812,-0.59375,-0.234375,0.75
1631204139843,-0.59375,-0.234375,0.75
1631204139875,-0.609375,-0.234375,0.734375
1631204139906,-0.609375,-0.234375,0.75
1631204139937,-0.609375,-0.234375,0.75
1631204139968,-0.609375,-0.234375,0.75
1631204140000,-0.609375,-0.234375,0.75
1631204140031,-0.609375,-0.234375,0.75
1631204140062,-0.609375,-0.234375,0.75
1631204140093,-0.609375,-0.234375,0.75
1631204140125,-0.625,-0.234375,0.734375
1631204140156,-0.609375,-0.234375,0.734375
1631204140187,-0.609375,-0.234375,0.75
1631204140218,-0.609375,-0.234375,0.734375
1631204140250,-0.609375,-0.234375,0.75
1631204140281,-0.59375,-0.234375,0.75
1631204140312,-0.59375,-0.234375,0.75
1631204140343,-0.625,-0.234375,0.734375
1631204140375,-0.625,-0.234375,0.734375
1631204140406,-0.609375,-0.234375,0.75
1631204140437,-0.609375,-0.234375,0.734375
1631204140468,-0.609375,-0.234375,0.75
1631204140500,-0.609375,-0.234375,0.75
1631204140531,-0.609375,-0.234375,0.734375
1631204140562,-0.609375,-0.234375,0.734375
1631204140593,-0.609375,-0.234375,0.75
1631204140625,-0.609375,-0.234375,0.75
1631204140656,-0.609375,-0.234375,0.75
1631204140687,-0.609375,-0.234375,0.75
1631204140718,-0.609375,-0.234375,0.75
1631204140750,-0.609375,-0.234375,0.734375
1631204140781,-0.609375,-0.234375,0.734375
1631204140812,-0.609375,-0.234375,0.75
1631204140843,-0.609375,-0.234375,0.75
1631204140875,-0.609375,-0.234375,0.75
1631204140906,-0.625,-0.234375,0.734375
1631204140937,-0.625,-0.234375,0.734375
1631204140968,-0.609375,-0.234375,0.75
1631204141000,-0.609375,-0.234375,0.75
1631204141031,-0.625,-0.234375,0.734375
1631204141062,-0.609375,-0.234375,0.75
1631204141093,-0.59375,-0.234375,0.765625
1631204141125,-0.625,-0.234375,0.734375
1631204141156,-0.609375,-0.234375,0.734375
1631204141187,-0.609375,-0.234375,0.734375
1631204141218,-0.609375,-0.234375,0.75
1631204141250,-0.625,-0.234375,0.734375
1631204141281,-0.609375,-0.234375,0.734375
1631204141312,-0.59375,-0.234375,0.765625
1631204141343,-0.609375,-0.234375,0.75
1631204141375,-0.59375,-0.234375,0.75
1631204141406,-0.609375,-0.234375,0.75
1631204141437,-0.609375,-0.234375,0.75
1631204141468,-0.609375,-0.234375,0.734375
1631204141500,-0.609375,-0.234375,0.75
1631204141531,-0.609375,-0.234375,0.75
1631204141562,-0.625,-0.234375,0.75
1631204141593,-0.609375,-0.234375,0.734375
1631204141625,-0.59375,-0.234375,0.75
1631204141656,-0.609375,-0.234375,0.75
1631204141687,-0.625,-0.234375,0.734375
1631204141718,-0.609375,-0.234375,0.75
1631204141750,-0.609375,-0.234375,0.75
1631204141781,-0.625,-0.234375,0.734375
1631204141812,-0.59375,-0.21875,0.75
1631204141843,-0.609375,-0.234375,0.75
1631204141875,-0.625,-0.234375,0.734375
1631204141906,-0.625,-0.21875,0.734375
1631204141937,-0.609375,-0.234375,0.75
1631204141968,-0.609375,-0.234375,0.75
1631204142000,-0.625,-0.234375,0.734375
1631204142031,-0.59375,-0.234375,0.75
1631204142062,-0.59375,-0.234375,0.765625
1631204142093,-0.609375,-0.234375,0.75
1631204142125,-0.609375,-0.21875,0.734375
1631204142156,-0.609375,-0.234375,0.75
1631204142187,-0.609375,-0.234375,0.75
1631204142218,-0.609375,-0.234375,0.734375
1631204142250,-0.609375,-0.234375,0.75
1631204142281,-0.609375,-0.234375,0.75
1631204142312,-0.609375,-0.234375,0.75
1631204142343,-0.59375,-0.234375,0.75
1631204142375,-0.609375,-0.234375,0.75
1631204142406,-0.59375,-0.234375,0.765625
1631204142437,-0.609375,-0.234375,0.75
1631204142468,-0.609375,-0.234375,0.75
1631204142500,-0.609375,-0.234375,0.75
1631204142531,-0.609375,-0.234375,0.75
1631204142562,-0.625,-0.234375,0.734375
1631204142593,-0.59375,-0.234375,0.765625
1631204142625,-0.59375,-0.234375,0.75
1631204142656,-0.609375,-0.234375,0.75
1631204142687,-0.609375,-0.234375,0.734375
1631204142718,-0.609375,-0.234375,0.734375
1631204142750,-0.609375,-0.234375,0.75
1631204142781,-0.609375,-0.234375,0.75
1631204142812,-0.609375,-0.234375,0.75
1631204142843,-0.609375,-0.234375,0.75
1631204142875,-0.609375,-0.234375,0.734375
1631204142906,-0.609375,-0.234375,0.75
1631204142937,-0.59375,-0.234375,0.765625
1631204142968,-0.609375,-0.234375,0.75
1631204143000,-0.609375,-0.234375,0.75
1631204143031,-0.609375,-0.234375,0.75
1631204143062,-0.609375,-0.234375,0.75
1631204143093,-0.609375,-0.234375,0.75
1631204143125,-0.609375,-0.234375,0.75
1631204143156,-0.609375,-0.234375,0.75
1631204143187,-0.609375,-0.234375,0.75
1631204143218,-0.625,-0.234375,0.734375
1631204143250,-0.609375,-0.234375,0.734375
1631204143281,-0.609375,-0.234375,0.75
1631204143312,-0.625,-0.234375,0.75
1631204143343,-0.609375,-0.234375,0.75
1631204143375,-0.59375,-0.234375,0.75
1631204143406,-0.59375,-0.234375,0.75
1631204143437,-0.625,-0.234375,0.734375
1631204143468,-0.609375,-0.234375,0.75
1631204143500,-0.609375,-0.234375,0.75
1631204143531,-0.625,-0.234375,0.734375
1631204143562,-0.609375,-0.234375,0.75
1631204143593,-0.59375,-0.234375,0.75
1631204143625,-0.609375,-0.234375,0.734375
1631204143656,-0.609375,-0.234375,0.75
1631204143687,-0.609375,-0.234375,0.75
1631204143718,-0.609375,-0.234375,0.75
1631204143750,-0.609375,-0.234375,0.75
1631204143781,-0.609375,-0.234375,0.75
1631204143812,-0.609375,-0.234375,0.75
1631204143843,-0.609375,-0.234375,0.75
1631204143875,-0.609375,-0.234375,0.75
1631204143906,-0.609375,-0.234375,0.75
1631204143937,-0.609375,-0.234375,0.734375
1631204143968,-0.609375,-0.234375,0.734375
1631204144000,-0.609375,-0.234375,0.75
1631204144031,-0.625,-0.234375,0.75
1631204144062,-0.625,-0.234375,0.734375
1631204144093,-0.59375,-0.234375,0.75
1631204144125,-0.609375,-0.234375,0.75
1631204144156,-0.609375,-0.234375,0.75
1631204144187,-0.625,-0.234375,0.75
1631204144218,-0.625,-0.234375,0.734375
1631204144250,-0.609375,-0.234375,0.75
1631204144281,-0.625,-0.234375,0.734375
1631204144312,-0.609375,-0.234375,0.734375
1631204144343,-0.59375,-0.234375,0.75
1631204144375,-0.609375,-0.234375,0.75
1631204144406,-0.609375,-0.234375,0.734375
1631204144437,-0.609375,-0.21875,0.75
1631204144468,-0.609375,-0.21875,0.75
1631204144500,-0.609375,-0.234375,0.75
1631204144531,-0.609375,-0.234375,0.75
1631204144562,-0.609375,-0.234375,0.75
1631204144593,-0.609375,-0.234375,0.75
1631204144625,-0.609375,-0.234375,0.75
1631204144656,-0.609375,-0.234375,0.75
1631204144687,-0.609375,-0.234375,0.75
1631204144718,-0.609375,-0.234375,0.75
1631204144750,-0.59375,-0.234375,0.75
1631204144781,-0.625,-0.234375,0.75
1631204144812,-0.609375,-0.234375,0.75
1631204144843,-0.609375,-0.234375,0.75
1631204144875,-0.609375,-0.21875,0.75
1631204144906,-0.625,-0.234375,0.75
1631204144937,-0.609375,-0.234375,0.75
1631204144968,-0.59375,-0.234375,0.75
1631204145000,-0.609375,-0.234375,0.75
1631204145031,-0.625,-0.234375,0.734375
1631204145062,-0.609375,-0.234375,0.734375
1631204145093,-0.625,-0.234375,0.75
1631204145125,-0.609375,-0.234375,0.75
1631204145156,-0.609375,-0.234375,0.75
1631204145187,-0.609375,-0.234375,0.75
1631204145218,-0.609375,-0.234375,0.75
1631204145250,-0.609375,-0.234375,0.75
1631204145281,-0.609375,-0.234375,0.75
1631204145312,-0.609375,-0.234375,0.75
1631204145343,-0.59375,-0.234375,0.75
1631204145375,-0.609375,-0.234375,0.75
1631204145406,-0.609375,-0.234375,0.75
1631204145437,-0.609375,-0.234375,0.75
1631204145468,-0.609375,-0.234375,0.75
1631204145500,-0.609375,-0.234375,0.75
1631204145531,-0.609375,-0.234375,0.734375
1631204145562,-0.609375,-0.234375,0.75
1631204145593,-0.609375,-0.234375,0.75
1631204145625,-0.609375,-0.234375,0.734375
1631204145656,-0.609375,-0.234375,0.75
1631204145687,-0.609375,-0.234375,0.75
1631204145718,-0.59375,-0.234375,0.75
1631204145750,-0.609375,-0.234375,0.734375
1631204145781,-0.609375,-0.234375,0.75
1631204145812,-0.609375,-0.234375,0.75
1631204145843,-0.609375,-0.234375,0.734375
1631204145875,-0.609375,-0.234375,0.75
1631204145906,-0.609375,-0.234375,0.75
1631204145937,-0.59375,-0.234375,0.75
1631204145968,-0.609375,-0.234375,0.75
1631204146000,-0.609375,-0.234375,0.75
1631204146031,-0.59375,-0.234375,0.75
1631204146062,-0.59375,-0.234375,0.75
1631204146093,-0.609375,-0.234375,0.734375
1631204146125,-0.625,-0.234375,0.734375
1631204146156,-0.609375,-0.234375,0.75
1631204146187,-0.578125,-0.234375,0.75
1631204146218,-0.609375,-0.234375,0.75
1631204146250,-0.609375,-0.234375,0.796875
1631204146281,-0.640625,-0.234375,0.703125
1631204146312,-0.578125,-0.25,0.765625
1631204146343,-0.65625,-0.21875,0.75
1631204146375,-0.625,-0.25,0.765625
1631204146406,-0.40625,-0.234375,0.921875
1631204146437,-0.546875,-0.21875,0.859375
1631204146468,-0.640625,-0.25,0.75
1631204146500,-0.734375,-0.203125,0.53125
1631204146531,-0.546875,-0.21875,0.53125
1631204146562,-0.765625,-0.28125,0.390625
1631204146593,-1.125,-0.15625,-0.296875
1631204146625,-1.296875,-0.109375,-0.484375
1631204146656,-1.390625,-0.15625,-0.1875
1631204146687,-1.109375,-0.109375,-0.125
1631204146718,-0.953125,-0.078125,-0.203125
1631204146750,-0.96875,-0.0625,0.125
1631204146781,-0.671875,-0.109375,0.140625
1631204146812,-0.796875,-0.078125,-0.046875
1631204146843,-0.875,-0.0625,-0.140625
1631204146875,-0.875,-0.078125,-0.234375
1631204146906,-0.625,-0.140625,-0.046875
1631204146937,-0.484375,-0.171875,0.078125
1631204146968,-1.046875,-0.1875,0.078125
1631204147000,-1.8125,-0.53125,0.640625
1631204147031,-1.40625,-0.3125,0.5625
1631204147062,-0.75,-0.25,0.21875
1631204147093,-0.609375,-0.265625,0.125
1631204147125,-0.921875,-0.265625,0.203125
1631204147156,-1.078125,-0.265625,0.234375
1631204147187,-1.015625,-0.21875,0.171875
1631204147218,-0.90625,-0.21875,0.15625
1631204147250,-0.9375,-0.234375,0.171875
1631204147281,-0.984375,-0.25,0.1875
1631204147312,-0.953125,-0.21875,0.140625
1631204147343,-0.953125,-0.21875,0.15625
1631204147375,-0.96875,-0.21875,0.171875
1631204147406,-0.953125,-0.21875,0.171875
1631204147437,-0.9375,-0.234375,0.171875
1631204147468,-0.96875,-0.25,0.140625
1631204147500,-0.984375,-0.234375,0.125
1631204147531,-0.984375,-0.234375,0.109375
1631204147562,-0.96875,-0.234375,0.125
1631204147593,-0.953125,-0.234375,0.140625
1631204147625,-0.953125,-0.234375,0.109375
1631204147656,-0.96875,-0.234375,0.109375
1631204147687,-0.953125,-0.21875,0.140625
1631204147718,-1.03125,-0.234375,0.125
1631204147750,-0.984375,-0.234375,0.109375
1631204147781,-0.9375,-0.21875,0.15625
1631204147812,-0.96875,-0.21875,0.15625
1631204147843,-1.015625,-0.234375,0.15625
1631204147875,-0.921875,-0.234375,0.125
1631204147906,-0.9375,-0.21875,0.09375
1631204147937,-1.0,-0.25,0.09375
1631204147968,-0.984375,-0.25,0.109375
1631204148000,-0.9375,-0.25,0.140625
1631204148031,-0.96875,-0.234375,0.140625
1631204148062,-0.984375,-0.234375,0.140625
1631204148093,-0.953125,-0.234375,0.140625
1631204148125,-0.96875,-0.234375,0.140625
1631204148156,-0.96875,-0.234375,0.125
1631204148187,-0.96875,-0.234375,0.125
1631204148218,-0.96875,-0.234375,0.125
1631204148250,-0.96875,-0.234375,0.140625
1631204148281,-0.96875,-0.234375,0.125
1631204148312,-0.96875,-0.234375,0.140625
1631204148343,-0.953125,-0.234375,0.15625
1631204148375,-0.96875,-0.234375,0.140625
1631204148406,-0.96875,-0.234375,0.125
1631204148437,-0.96875,-0.234375,0.125
1631204148468,-0.96875,-0.234375,0.140625
1631204148500,-0.96875,-0.234375,0.140625
1631204148531,-0.96875,-0.234375,0.140625
1631204148562,-0.96875,-0.234375,0.140625
1631204148593,-0.96875,-0.234375,0.125
1631204148625,-0.96875,-0.234375,0.140625
1631204148656,-0.96875,-0.234375,0.140625
1631204148687,-0.96875,-0.234375,0.140625
1631204148718,-0.96875,-0.234375,0.140625
1631204148750,-0.96875,-0.234375,0.140625
1631204148781,-0.96875,-0.234375,0.140625
1631204148812,-0.96875,-0.234375,0.140625
1631204148843,-0.96875,-0.234375,0.140625
1631204148875,-0.96875,-0.234375,0.140625
1631204148906,-0.96875,-0.234375,0.140625
1631204148937,-0.96875,-0.234375,0.140625
1631204148968,-0.96875,-0.234375,0.140625
1631204149000,-0.96875,-0.234375,0.140625
1631204149031,-0.96875,-0.234375,0.140625
1631204149062,-0.96875,-0.21875,0.140625
1631204149093,-0.96875,-0.234375,0.140625
1631204149125,-0.96875,-0.234375,0.140625
1631204149156,-0.96875,-0.234375,0.140625
1631204149187,-0.96875,-0.234375,0.140625
1631204149218,-0.96875,-0.234375,0.140625
1631204149250,-0.96875,-0.234375,0.140625
1631204149281,-0.96875,-0.234375,0.140625
1631204149312,-0.96875,-0.234375,0.140625
1631204149343,-0.96875,-0.21875,0.140625
1631204149375,-0.96875,-0.21875,0.140625
1631204149406,-0.96875,-0.21875,0.140625
1631204149437,-0.96875,-0.234375,0.140625
1631204149468,-0.96875,-0.234375,0.140625
1631204149500,-0.96875,-0.21875,0.140625
1631204149531,-0.96875,-0.234375,0.140625
1631204149562,-0.96875,-0.234375,0.140625
1631204149593,-0.96875,-0.234375,0.140625
1631204149625,-0.96875,-0.234375,0.140625
1631204149656,-0.96875,-0.234375,0.140625
1631204149687,-0.96875,-0.21875,0.140625
1631204149718,-0.96875,-0.21875,0.140625
1631204149750,-0.96875,-0.21875,0.140625
1631204149781,-0.96875,-0.21875,0.140625
1631204149812,-0.96875,-0.21875,0.125
1631204149843,-0.96875,-0.21875,0.140625
1631204149875,-0.96875,-0.21875,0.140625
1631204149906,-0.96875,-0.21875,0.140625
1631204149937,-0.96875,-0.21875,0.140625
1631204149968,-0.953125,-0.234375,0.140625
1631204150000,-0.96875,-0.21875,0.140625
1631204150031,-0.96875,-0.234375,0.140625
1631204150062,-0.96875,-0.234375,0.140625
1631204150093,-0.96875,-0.234375,0.140625
1631204150125,-0.96875,-0.234375,0.140625
1631204150156,-0.96875,-0.234375,0.140625
1631204150187,-0.96875,-0.234375,0.140625
1631204150218,-0.96875,-0.234375,0.140625
1631204150250,-0.96875,-0.234375,0.140625
1631204150281,-0.96875,-0.234375,0.140625
1631204150312,-0.96875,-0.21875,0.140625
1631204150343,-0.96875,-0.21875,0.125
1631204150375,-0.96875,-0.234375,0.140625
1631204150406,-0.96875,-0.21875,0.140625
1631204150437,-0.96875,-0.234375,0.140625
1631204150468,-0.96875,-0.234375,0.140625
1631204150500,-0.96875,-0.234375,0.140625
1631204150531,-0.96875,-0.234375,0.140625
1631204150562,-0.96875,-0.21875,0.140625
1631204150593,-0.96875,-0.21875,0.140625
1631204150625,-0.96875,-0.21875,0.125
1631204150656,-0.96875,-0.234375,0.125
1631204150687,-0.96875,-0.234375,0.140625
1631204150718,-0.96875,-0.234375,0.140625
1631204150750,-0.96875,-0.21875,0.140625
1631204150781,-0.96875,-0.21875,0.140625
1631204150812,-0.96875,-0.21875,0.140625
1631204150843,-0.96875,-0.21875,0.125
1631204150875,-0.96875,-0.234375,0.140625
1631204150906,-0.96875,-0.234375,0.140625
1631204150937,-0.96875,-0.234375,0.140625
1631204150968,-0.96875,-0.234375,0.140625
1631204151000,-0.96875,-0.234375,0.140625
1631204151031,-0.96875,-0.234375,0.140625
1631204151062,-0.96875,-0.234375,0.140625
1631204151093,-0.96875,-0.234375,0.140625
1631204151125,-0.96875,-0.234375,0.140625
1631204151156,-0.96875,-0.234375,0.140625
1631204151187,-0.96875,-0.234375,0.140625
1631204151218,-0.96875,-0.234375,0.140625
1631204151250,-0.96875,-0.234375,0.140625
1631204151281,-0.96875,-0.234375,0.140625
1631204151312,-0.96875,-0.234375,0.140625
1631204151343,-0.96875,-0.234375,0.140625
1631204151375,-0.96875,-0.234375,0.140625
1631204151406,-0.96875,-0.234375,0.140625
1631204151437,-0.96875,-0.234375,0.140625
1631204151468,-0.96875,-0.21875,0.140625
1631204151500,-0.96875,-0.21875,0.140625
1631204151531,-0.96875,-0.234375,0.140625
1631204151562,-0.96875,-0.234375,0.140625
1631204151593,-0.96875,-0.234375,0.140625
1631204151625,-0.96875,-0.234375,0.140625
1631204151656,-0.96875,-0.234375,0.140625
1631204151687,-0.96875,-0.234375,0.140625
1631204151718,-0.96875,-0.234375,0.140625
1631204151750,-0.96875,-0.234375,0.140625
1631204151781,-0.96875,-0.234375,0.140625
1631204151812,-0.96875,-0.234375,0.140625
1631204151843,-0.96875,-0.234375,0.140625
1631204151875,-0.96875,-0.234375,0.140625
1631204151906,-0.96875,-0.21875,0.125
1631204151937,-0.96875,-0.21875,0.140625
1631204151968,-0.96875,-0.234375,0.140625
1631204152000,-0.96875,-0.234375,0.140625
1631204152031,-0.96875,-0.21875,0.140625
1631204152062,-0.96875,-0.234375,0.140625
1631204152093,-0.96875,-0.21875,0.140625
1631204152125,-0.984375,-0.21875,0.125
1631204152156,-0.953125,-0.21875,0.140625
1631204152187,-0.96875,-0.21875,0.125
1631204152218,-0.96875,-0.234375,0.125
1631204152250,-0.96875,-0.234375,0.125
1631204152281,-0.96875,-0.234375,0.140625
1631204152312,-0.984375,-0.21875,0.125
1631204152343,-0.96875,-0.21875,0.140625
1631204152375,-0.953125,-0.21875,0.15625
1631204152406,-0.96875,-0.234375,0.15625
1631204152437,-0.96875,-0.234375,0.15625
1631204152468,-0.96875,-0.234375,0.140625
1631204152500,-0.96875,-0.21875,0.125
1631204152531,-0.96875,-0.21875,0.125
1631204152562,-0.96875,-0.21875,0.125
1631204152593,-0.96875,-0.234375,0.140625
1631204152625,-0.953125,-0.234375,0.171875
1631204152656,-0.96875,-0.234375,0.125
1631204152687,-0.96875,-0.21875,0.140625
1631204152718,-0.96875,-0.21875,0.125
1631204152750,-0.96875,-0.21875,0.125
1631204152781,-0.96875,-0.21875,0.125
1631204152812,-0.953125,-0.234375,0.15625
1631204152843,-0.96875,-0.234375,0.140625
1631204152875,-0.96875,-0.234375,0.125
1631204152906,-0.96875,-0.234375,0.140625
1631204152937,-0.96875,-0.21875,0.140625
1631204152968,-0.96875,-0.234375,0.140625
1631204153000,-0.96875,-0.21875,0.140625
1631204153031,-0.96875,-0.21875,0.140625
1631204153062,-0.96875,-0.234375,0.140625
1631204153093,-0.96875,-0.234375,0.125
1631204153125,-0.96875,-0.234375,0.140625
1631204153156,-0.96875,-0.234375,0.140625
1631204153187,-0.96875,-0.234375,0.140625
1631204153218,-0.96875,-0.21875,0.140625
1631204153250,-0.96875,-0.234375,0.140625
1631204153281,-0.96875,-0.21875,0.140625
1631204153312,-0.96875,-0.21875,0.125
1631204153343,-0.96875,-0.234375,0.125
1631204153375,-0.96875,-0.21875,0.140625
1631204153406,-0.96875,-0.21875,0.140625
1631204153437,-0.96875,-0.21875,0.140625
1631204153468,-0.96875,-0.234375,0.140625
1631204153500,-0.96875,-0.234375,0.140625
1631204153531,-0.96875,-0.21875,0.125
1631204153562,-0.96875,-0.21875,0.125
1631204153593,-0.984375,-0.21875,0.125
1631204153625,-0.96875,-0.21875,0.140625
1631204153656,-0.96875,-0.21875,0.140625
1631204153687,-0.96875,-0.21875,0.140625
1631204153718,-0.984375,-0.21875,0.109375
1631204153750,-0.953125,-0.234375,0.140625
1631204153781,-0.9375,-0.21875,0.171875
1631204153812,-0.96875,-0.21875,0.15625
1631204153843,-0.96875,-0.21875,0.140625
1631204153875,-0.96875,-0.21875,0.140625
1631204153906,-0.984375,-0.21875,0.125
1631204153937,-0.953125,-0.21875,0.140625
1631204153968,-0.96875,-0.234375,0.140625
1631204154000,-0.9375,-0.234375,0.15625
1631204154031,-0.953125,-0.234375,0.15625
1631204154062,-0.984375,-0.234375,0.09375
1631204154093,-0.96875,-0.21875,0.15625
1631204154125,-0.96875,-0.21875,0.15625
1631204154156,-0.96875,-0.21875,0.15625
1631204154187,-0.96875,-0.21875,0.140625
1631204154218,-0.984375,-0.21875,0.125
1631204154250,-0.96875,-0.21875,0.140625
1631204154281,-0.953125,-0.234375,0.15625
1631204154312,-0.96875,-0.21875,0.140625
1631204154343,-0.96875,-0.21875,0.140625
1631204154375,-0.96875,-0.21875,0.125
1631204154406,-0.96875,-0.21875,0.140625
1631204154437,-0.96875,-0.21875,0.140625
1631204154468,-0.96875,-0.21875,0.140625
1631204154500,-0.96875,-0.234375,0.140625
1631204154531,-0.96875,-0.234375,0.140625
1631204154562,-0.96875,-0.21875,0.140625
1631204154593,-0.96875,-0.234375,0.140625
1631204154625,-0.953125,-0.234375,0.15625
1631204154656,-0.96875,-0.234375,0.140625
1631204154687,-0.984375,-0.234375,0.125
1631204154718,-0.96875,-0.21875,0.140625
1631204154750,-0.96875,-0.234375,0.15625
1631204154781,-0.984375,-0.21875,0.140625
1631204154812,-0.953125,-0.234375,0.15625
1631204154843,-0.9375,-0.234375,0.1875
1631204154875,-0.984375,-0.21875,0.125
1631204154906,-0.96875,-0.21875,0.109375
1631204154937,-0.96875,-0.21875,0.125
1631204154968,-0.96875,-0.234375,0.140625
1631204155000,-0.96875,-0.234375,0.140625
1631204155031,-0.96875,-0.234375,0.140625
1631204155062,-0.96875,-0.234375,0.140625
1631204155093,-0.96875,-0.234375,0.15625
1631204155125,-0.96875,-0.21875,0.15625
1631204155156,-0.96875,-0.234375,0.140625
1631204155187,-0.96875,-0.234375,0.140625
1631204155218,-0.96875,-0.234375,0.140625
1631204155250,-0.96875,-0.21875,0.140625
1631204155281,-0.96875,-0.234375,0.140625
1631204155312,-0.96875,-0.234375,0.140625
1631204155343,-0.953125,-0.234375,0.15625
1631204155375,-0.96875,-0.234375,0.125
1631204155406,-0.96875,-0.234375,0.140625
1631204155437,-0.96875,-0.234375,0.140625
1631204155468,-0.96875,-0.234375,0.140625
1631204155500,-0.96875,-0.234375,0.140625
1631204155531,-0.953125,-0.234375,0.15625
1631204155562,-0.96875,-0.234375,0.140625
1631204155593,-0.96875,-0.234375,0.140625
1631204155625,-0.96875,-0.234375,0.140625
1631204155656,-0.984375,-0.234375,0.125
1631204155687,-0.96875,-0.21875,0.15625
1631204155718,-0.96875,-0.21875,0.140625
1631204155750,-0.953125,-0.234375,0.140625
1631204155781,-0.96875,-0.234375,0.140625
1631204155812,-0.96875,-0.234375,0.140625
1631204155843,-0.96875,-0.234375,0.140625
1631204155875,-0.96875,-0.234375,0.15625
1631204155906,-0.96875,-0.21875,0.15625
1631204155937,-0.96875,-0.21875,0.140625
1631204155968,-0.96875,-0.21875,0.125
1631204156000,-0.96875,-0.21875,0.125
1631204156031,-0.96875,-0.21875,0.140625
1631204156062,-0.96875,-0.234375,0.140625
1631204156093,-0.96875,-0.234375,0.125
1631204156125,-0.96875,-0.21875,0.140625
1631204156156,-0.96875,-0.234375,0.140625
1631204156187,-0.96875,-0.21875,0.140625
1631204156218,-0.96875,-0.234375,0.125
1631204156250,-0.96875,-0.234375,0.125
1631204156281,-0.96875,-0.21875,0.125
1631204156312,-0.984375,-0.234375,0.109375
1631204156343,-0.96875,-0.21875,0.15625
1631204156375,-0.953125,-0.21875,0.171875
1631204156406,-0.953125,-0.21875,0.15625
1631204156437,-0.953125,-0.234375,0.15625
1631204156468,-0.953125,-0.234375,0.140625
1631204156500,-0.96875,-0.21875,0.109375
1631204156531,-0.984375,-0.21875,0.109375
1631204156562,-0.984375,-0.21875,0.109375
1631204156593,-0.984375,-0.234375,0.109375
1631204156625,-0.953125,-0.21875,0.15625
1631204156656,-0.9375,-0.21875,0.171875
1631204156687,-0.953125,-0.21875,0.15625
1631204156718,-0.984375,-0.21875,0.109375
1631204156750,-0.96875,-0.21875,0.109375
1631204156781,-1.0,-0.21875,0.09375
1631204156812,-0.96875,-0.21875,0.125
1631204156843,-0.96875,-0.21875,0.125
1631204156875,-0.96875,-0.21875,0.140625
1631204156906,-0.96875,-0.21875,0.125
1631204156937,-0.96875,-0.21875,0.15625
1631204156968,-0.953125,-0.21875,0.15625
1631204157000,-0.96875,-0.21875,0.140625
1631204157031,-0.984375,-0.21875,0.125
1631204157062,-0.96875,-0.21875,0.140625
1631204157093,-0.984375,-0.21875,0.125
1631204157125,-0.984375,-0.21875,0.125
1631204157156,-0.984375,-0.21875,0.109375
1631204157187,-0.96875,-0.21875,0.140625
1631204157218,-0.9375,-0.21875,0.203125
1631204157250,-0.96875,-0.21875,0.15625
1631204157281,-0.984375,-0.203125,0.125
1631204157312,-0.984375,-0.21875,0.125
1631204157343,-0.984375,-0.21875,0.125
1631204157375,-0.96875,-0.203125,0.140625
1631204157406,-0.96875,-0.203125,0.140625
1631204157437,-0.96875,-0.21875,0.140625
1631204157468,-0.984375,-0.21875,0.140625
1631204157500,-0.96875,-0.234375,0.140625
1631204157531,-0.96875,-0.21875,0.125
1631204157562,-0.984375,-0.21875,0.140625
1631204157593,-0.953125,-0.25,0.15625
1631204157625,-0.953125,-0.234375,0.15625
1631204157656,-0.96875,-0.21875,0.15625
1631204157687,-0.96875,-0.203125,0.171875
1631204157718,-0.953125,-0.1875,0.1875
1631204157750,-0.9375,-0.171875,0.203125
1631204157781,-0.921875,-0.171875,0.1875
1631204157812,-0.90625,-0.21875,0.15625
1631204157843,-1.015625,-0.265625,0.140625
1631204157875,-1.046875,-0.234375,0.140625
1631204157906,-0.953125,-0.21875,0.171875
1631204157937,-0.9375,-0.21875,0.171875
1631204157968,-0.984375,-0.21875,0.1875
1631204158000,-1.0,-0.21875,0.15625
1631204158031,-0.96875,-0.21875,0.15625
1631204158062,-0.9375,-0.203125,0.140625
1631204158093,-0.96875,-0.203125,0.15625
1631204158125,-0.984375,-0.203125,0.15625
1631204158156,-0.96875,-0.21875,0.171875
1631204158187,-0.953125,-0.21875,0.171875
1631204158218,-0.953125,-0.234375,0.171875
1631204158250,-0.96875,-0.234375,0.171875
1631204158281,-0.96875,-0.234375,0.171875
1631204158312,-0.953125,-0.21875,0.171875
1631204158343,-0.9375,-0.21875,0.1875
1631204158375,-0.953125,-0.21875,0.1875
1631204158406,-0.96875,-0.21875,0.171875
1631204158437,-0.984375,-0.21875,0.15625
1631204158468,-0.96875,-0.21875,0.15625
1631204158500,-0.953125,-0.21875,0.1875
1631204158531,-0.953125,-0.21875,0.1875
1631204158562,-0.96875,-0.203125,0.171875
1631204158593,-0.96875,-0.203125,0.171875
1631204158625,-0.953125,-0.21875,0.1875
1631204158656,-0.984375,-0.234375,0.140625
1631204158687,-0.984375,-0.21875,0.140625
1631204158718,-0.96875,-0.234375,0.171875
1631204158750,-0.953125,-0.234375,0.171875
1631204158781,-0.9375,-0.234375,0.1875
1631204158812,-0.953125,-0.234375,0.171875
1631204158843,-0.96875,-0.234375,0.15625
1631204158875,-0.96875,-0.234375,0.15625
1631204158906,-0.96875,-0.21875,0.171875
1631204158937,-0.953125,-0.21875,0.171875
1631204158968,-0.96875,-0.21875,0.171875
1631204159000,-0.96875,-0.21875,0.171875
1631204159031,-0.96875,-0.21875,0.171875
1631204159062,-0.96875,-0.234375,0.171875
1631204159093,-0.953125,-0.21875,0.171875
1631204159125,-0.953125,-0.21875,0.171875
1631204159156,-0.96875,-0.21875,0.171875
1631204159187,-0.96875,-0.21875,0.171875
1631204159218,-0.96875,-0.21875,0.171875
1631204159250,-0.96875,-0.21875,0.171875
1631204159281,-0.96875,-0.21875,0.171875
1631204159312,-0.953125,-0.21875,0.171875
1631204159343,-0.96875,-0.21875,0.171875
1631204159375,-0.96875,-0.21875,0.171875
1631204159406,-0.96875,-0.21875,0.171875
1631204159437,-0.96875,-0.21875,0.171875
1631204159468,-0.96875,-0.21875,0.171875
1631204159500,-0.96875,-0.21875,0.1875
1631204159531,-0.96875,-0.21875,0.171875
1631204159562,-0.96875,-0.21875,0.171875
1631204159593,-0.96875,-0.21875,0.171875
1631204159625,-0.953125,-0.21875,0.171875
1631204159656,-0.953125,-0.21875,0.171875
1631204159687,-0.96875,-0.21875,0.171875
1631204159718,-0.96875,-0.21875,0.1875
1631204159750,-0.953125,-0.21875,0.1875
1631204159781,-0.953125,-0.21875,0.171875
1631204159812,-0.96875,-0.21875,0.171875
1631204159843,-0.96875,-0.21875,0.1875
1631204159875,-0.96875,-0.21875,0.1875
1631204159906,-0.96875,-0.21875,0.1875
1631204159937,-0.96875,-0.21875,0.171875
1631204159968,-0.96875,-0.21875,0.1875
1631204160000,-0.96875,-0.21875,0.171875
1631204160031,-0.96875,-0.21875,0.171875
1631204160062,-0.953125,-0.21875,0.1875
1631204160093,-0.96875,-0.21875,0.171875
1631204160125,-0.96875,-0.21875,0.171875
1631204160156,-0.953125,-0.21875,0.1875
1631204160187,-0.953125,-0.21875,0.171875
1631204160218,-0.96875,-0.21875,0.171875
1631204160250,-0.953125,-0.21875,0.1875
1631204160281,-0.96875,-0.21875,0.171875
1631204160312,-0.96875,-0.21875,0.171875
1631204160343,-0.96875,-0.21875,0.1875
1631204160375,-0.96875,-0.21875,0.171875
1631204160406,-0.96875,-0.21875,0.171875
1631204160437,-0.96875,-0.21875,0.1875
1631204160468,-0.96875,-0.21875,0.1875
1631204160500,-0.96875,-0.21875,0.171875
1631204160531,-0.96875,-0.21875,0.1875
1631204160562,-0.953125,-0.21875,0.1875
1631204160593,-0.96875,-0.21875,0.1875
1631204160625,-0.96875,-0.21875,0.1875
1631204160656,-0.96875,-0.21875,0.1875
1631204160687,-0.96875,-0.21875,0.1875
1631204160718,-0.96875,-0.21875,0.1875
1631204160750,-0.96875,-0.21875,0.1875
1631204160781,-0.96875,-0.21875,0.171875
1631204160812,-0.96875,-0.21875,0.1875
1631204160843,-0.96875,-0.21875,0.1875
1631204160875,-0.96875,-0.21875,0.1875
1631204160906,-0.96875,-0.21875,0.1875
1631204160937,-0.96875,-0.21875,0.1875
1631204160968,-0.96875,-0.21875,0.1875
1631204161000,-0.953125,-0.21875,0.1875
1631204161031,-0.953125,-0.21875,0.1875
1631204161062,-0.953125,-0.21875,0.1875
1631204161093,-0.953125,-0.21875,0.1875
1631204161125,-0.953125,-0.21875,0.1875
1631204161156,-0.96875,-0.21875,0.1875
1631204161187,-0.953125,-0.21875,0.1875
1631204161218,-0.96875,-0.21875,0.1875
1631204161250,-0.96875,-0.21875,0.1875
1631204161281,-0.96875,-0.21875,0.1875
1631204161312,-0.953125,-0.21875,0.1875
1631204161343,-0.96875,-0.21875,0.1875
1631204161375,-0.96875,-0.21875,0.1875
1631204161406,-0.96875,-0.21875,0.1875
1631204161437,-0.953125,-0.21875,0.1875
1631204161468,-0.953125,-0.21875,0.1875
1631204161500,-0.96875,-0.21875,0.1875
1631204161531,-0.96875,-0.21875,0.1875
1631204161562,-0.96875,-0.21875,0.1875
1631204161593,-0.953125,-0.21875,0.1875
1631204161625,-0.953125,-0.21875,0.1875
1631204161656,-0.953125,-0.21875,0.1875
1631204161687,-0.953125,-0.21875,0.1875
1631204161718,-0.96875,-0.21875,0.1875
1631204161750,-0.953125,-0.21875,0.1875
1631204161781,-0.953125,-0.21875,0.1875
1631204161812,-0.953125,-0.21875,0.1875
1631204161843,-0.953125,-0.21875,0.1875
1631204161875,-0.953125,-0.21875,0.1875
1631204161906,-0.96875,-0.21875,0.1875
1631204161937,-0.96875,-0.21875,0.1875
1631204161968,-0.96875,-0.21875,0.1875
1631204162000,-0.96875,-0.21875,0.1875
1631204162031,-0.96875,-0.21875,0.1875
1631204162062,-0.953125,-0.21875,0.1875
1631204162093,-0.953125,-0.21875,0.1875
1631204162125,-0.96875,-0.21875,0.1875
1631204162156,-0.96875,-0.21875,0.1875
1631204162187,-0.96875,-0.21875,0.1875
1631204162218,-0.953125,-0.21875,0.1875
1631204162250,-0.953125,-0.21875,0.1875
1631204162281,-0.953125,-0.21875,0.1875
1631204162312,-0.96875,-0.21875,0.1875
1631204162343,-0.96875,-0.21875,0.1875
1631204162375,-0.96875,-0.21875,0.1875
1631204162406,-0.96875,-0.21875,0.1875
1631204162437,-0.953125,-0.21875,0.1875
1631204162468,-0.953125,-0.21875,0.1875
1631204162500,-0.96875,-0.21875,0.1875
1631204162531,-0.96875,-0.21875,0.1875
1631204162562,-0.96875,-0.21875,0.1875
1631204162593,-0.96875,-0.21875,0.1875
1631204162625,-0.953125,-0.21875,0.1875
1631204162656,-0.96875,-0.21875,0.1875
1631204162687,-0.953125,-0.21875,0.1875
1631204162718,-0.953125,-0.21875,0.1875
1631204162750,-0.953125,-0.21875,0.1875
1631204162781,-0.953125,-0.21875,0.1875
1631204162812,-0.953125,-0.21875,0.1875
1631204162843,-0.96875,-0.21875,0.1875
1631204162875,-0.96875,-0.21875,0.1875
1631204162906,-0.96875,-0.21875,0.1875
1631204162937,-0.96875,-0.21875,0.1875
1631204162968,-0.953125,-0.21875,0.1875
1631204163000,-0.953125,-0.21875,0.1875
1631204163031,-0.953125,-0.21875,0.1875
1631204163062,-0.96875,-0.21875,0.1875
1631204163093,-0.96875,-0.21875,0.1875
1631204163125,-0.96875,-0.21875,0.1875
1631204163156,-0.96875,-0.21875,0.1875
1631204163187,-0.96875,-0.21875,0.1875
1631204163218,-0.96875,-0.21875,0.1875
1631204163250,-0.96875,-0.21875,0.1875
1631204163281,-0.96875,-0.21875,0.1875
1631204163312,-0.96875,-0.21875,0.1875
1631204163343,-0.953125,-0.21875,0.1875
1631204163375,-0.96875,-0.21875,0.1875
1631204163406,-0.96875,-0.21875,0.1875
1631204163437,-0.96875,-0.21875,0.1875
1631204163468,-0.96875,-0.21875,0.1875
1631204163500,-0.953125,-0.21875,0.1875
1631204163531,-0.96875,-0.21875,0.1875
1631204163562,-0.953125,-0.21875,0.1875
1631204163593,-0.953125,-0.21875,0.1875
1631204163625,-0.953125,-0.21875,0.1875
1631204163656,-0.96875,-0.21875,0.1875
1631204163687,-0.953125,-0.21875,0.1875
1631204163718,-0.96875,-0.21875,0.1875
1631204163750,-0.953125,-0.21875,0.1875
1631204163781,-0.953125,-0.21875,0.1875
1631204163812,-0.953125,-0.21875,0.1875
1631204163843,-0.96875,-0.21875,0.1875
1631204163875,-0.953125,-0.21875,0.1875
1631204163906,-0.96875,-0.21875,0.1875
1631204163937,-0.953125,-0.21875,0.1875
1631204163968,-0.953125,-0.21875,0.1875
1631204164000,-0.96875,-0.21875,0.1875
1631204164031,-0.96875,-0.21875,0.1875
1631204164062,-0.953125,-0.21875,0.1875
1631204164093,-0.953125,-0.21875,0.1875
1631204164125,-0.96875,-0.21875,0.1875
1631204164156,-0.96875,-0.21875,0.1875
1631204164187,-0.953125,-0.21875,0.1875
1631204164218,-0.953125,-0.21875,0.1875
1631204164250,-0.953125,-0.21875,0.1875
1631204164281,-0.96875,-0.21875,0.1875
1631204164312,-0.96875,-0.21875,0.1875
1631204164343,-0.953125,-0.21875,0.1875
1631204164375,-0.953125,-0.21875,0.1875
1631204164406,-0.96875,-0.21875,0.1875
1631204164437,-0.953125,-0.21875,0.1875
1631204164468,-0.953125,-0.21875,0.1875
1631204164500,-0.953125,-0.21875,0.1875
1631204164531,-0.96875,-0.21875,0.1875
1631204164562,-0.953125,-0.21875,0.1875
1631204164593,-0.96875,-0.21875,0.1875
1631204164625,-0.953125,-0.21875,0.1875
1631204164656,-0.953125,-0.21875,0.1875
1631204164687,-0.953125,-0.21875,0.1875
1631204164718,-0.953125,-0.21875,0.1875
1631204164750,-0.953125,-0.21875,0.1875
1631204164781,-0.96875,-0.21875,0.1875
1631204164812,-0.953125,-0.21875,0.1875
1631204164843,-0.953125,-0.21875,0.203125
1631204164875,-0.96875,-0.21875,0.1875
1631204164906,-0.96875,-0.21875,0.1875
1631204164937,-0.953125,-0.21875,0.1875
1631204164968,-0.953125,-0.21875,0.1875
1631204165000,-0.953125,-0.21875,0.1875
1631204165031,-0.953125,-0.21875,0.1875
1631204165062,-0.953125,-0.21875,0.1875
1631204165093,-0.953125,-0.21875,0.1875
1631204165125,-0.96875,-0.21875,0.1875
1631204165156,-0.96875,-0.21875,0.1875
1631204165187,-0.953125,-0.21875,0.1875
1631204165218,-0.953125,-0.21875,0.1875
1631204165250,-0.953125,-0.21875,0.1875
1631204165281,-0.953125,-0.21875,0.1875
1631204165312,-0.96875,-0.21875,0.1875
1631204165343,-0.953125,-0.21875,0.1875
1631204165375,-0.96875,-0.21875,0.1875
1631204165406,-0.953125,-0.21875,0.1875
1631204165437,-0.96875,-0.21875,0.1875
1631204165468,-0.96875,-0.21875,0.1875
1631204165500,-0.953125,-0.21875,0.1875
1631204165531,-0.96875,-0.21875,0.1875
1631204165562,-0.96875,-0.21875,0.1875
1631204165593,-0.96875,-0.21875,0.1875
1631204165625,-0.96875,-0.21875,0.1875
1631204165656,-0.953125,-0.21875,0.1875
1631204165687,-0.96875,-0.21875,0.1875
1631204165718,-0.96875,-0.21875,0.1875
1631204165750,-0.96875,-0.21875,0.1875
1631204165781,-0.953125,-0.21875,0.1875
1631204165812,-0.96875,-0.21875,0.1875
1631204165843,-0.96875,-0.21875,0.1875
1631204165875,-0.96875,-0.21875,0.1875
1631204165906,-0.953125,-0.21875,0.1875
1631204165937,-0.953125,-0.21875,0.1875
1631204165968,-0.96875,-0.21875,0.1875
1631204166000,-0.96875,-0.21875,0.1875
1631204166031,-0.96875,-0.21875,0.1875
1631204166062,-0.96875,-0.21875,0.1875
1631204166093,-0.953125,-0.21875,0.1875
1631204166125,-0.96875,-0.21875,0.1875
1631204166156,-0.953125,-0.21875,0.203125
1631204166187,-0.953125,-0.21875,0.1875
1631204166218,-0.96875,-0.21875,0.1875
1631204166250,-0.953125,-0.21875,0.1875
1631204166281,-0.953125,-0.21875,0.1875
1631204166312,-0.96875,-0.21875,0.1875
1631204166343,-0.953125,-0.21875,0.1875
1631204166375,-0.96875,-0.21875,0.1875
1631204166406,-0.96875,-0.21875,0.1875
1631204166437,-0.96875,-0.21875,0.1875
1631204166468,-0.96875,-0.21875,0.1875
1631204166500,-0.953125,-0.21875,0.1875
1631204166531,-0.953125,-0.21875,0.1875
1631204166562,-0.96875,-0.21875,0.1875
1631204166593,-0.953125,-0.21875,0.1875
1631204166625,-0.96875,-0.21875,0.1875
1631204166656,-0.96875,-0.21875,0.1875
1631204166687,-0.96875,-0.21875,0.1875
1631204166718,-0.96875,-0.21875,0.1875
1631204166750,-0.96875,-0.21875,0.1875
1631204166781,-0.953125,-0.21875,0.1875
1631204166812,-0.953125,-0.21875,0.1875
1631204166843,-0.953125,-0.21875,0.1875
1631204166875,-0.96875,-0.21875,0.1875
1631204166906,-0.96875,-0.21875,0.1875
1631204166937,-0.96875,-0.21875,0.1875
1631204166968,-0.953125,-0.21875,0.1875
1631204167000,-0.953125,-0.21875,0.1875
1631204167031,-0.953125,-0.21875,0.1875
1631204167062,-0.953125,-0.21875,0.1875
1631204167093,-0.96875,-0.21875,0.1875
1631204167125,-0.953125,-0.21875,0.1875
1631204167156,-0.96875,-0.21875,0.1875
1631204167187,-0.96875,-0.21875,0.1875
1631204167218,-0.96875,-0.21875,0.1875
1631204167250,-0.96875,-0.21875,0.1875
1631204167281,-0.96875,-0.21875,0.1875
1631204167312,-0.96875,-0.21875,0.1875
1631204167343,-0.953125,-0.21875,0.1875
1631204167375,-0.953125,-0.21875,0.1875
1631204167406,-0.953125,-0.21875,0.1875
1631204167437,-0.953125,-0.21875,0.1875
1631204167468,-0.96875,-0.21875,0.1875
1631204167500,-0.96875,-0.21875,0.1875
1631204167531,-0.96875,-0.21875,0.1875
1631204167562,-0.96875,-0.21875,0.1875
1631204167593,-0.953125,-0.21875,0.1875
1631204167625,-0.96875,-0.21875,0.1875
1631204167656,-0.96875,-0.21875,0.1875
1631204167687,-0.953125,-0.21875,0.1875
1631204167718,-0.953125,-0.21875,0.1875
1631204167750,-0.96875,-0.21875,0.1875
1631204167781,-0.953125,-0.21875,0.1875
1631204167812,-0.953125,-0.21875,0.1875
1631204167843,-0.953125,-0.21875,0.1875
1631204167875,-0.953125,-0.21875,0.1875
1631204167906,-0.953125,-0.21875,0.1875
1631204167937,-0.96875,-0.21875,0.1875
1631204167968,-0.96875,-0.21875,0.1875
1631204168000,-0.96875,-0.21875,0.1875
1631204168031,-0.96875,-0.21875,0.1875
1631204168062,-0.953125,-0.21875,0.1875
1631204168093,-0.96875,-0.21875,0.1875
1631204168125,-0.96875,-0.21875,0.1875
1631204168156,-0.953125,-0.21875,0.1875
1631204168187,-0.96875,-0.21875,0.1875
1631204168218,-0.953125,-0.21875,0.1875
1631204168250,-0.953125,-0.21875,0.1875
1631204168281,-0.96875,-0.21875,0.1875
1631204168312,-0.96875,-0.21875,0.1875
1631204168343,-0.953125,-0.21875,0.1875
1631204168375,-0.96875,-0.21875,0.1875
1631204168406,-0.96875,-0.21875,0.1875
1631204168437,-0.953125,-0.21875,0.1875
1631204168468,-0.953125,-0.21875,0.1875
1631204168500,-0.953125,-0.21875,0.1875
1631204168531,-0.96875,-0.21875,0.1875
1631204168562,-0.96875,-0.21875,0.1875
1631204168593,-0.953125,-0.21875,0.1875
1631204168625,-0.96875,-0.21875,0.1875
1631204168656,-0.953125,-0.21875,0.1875
1631204168687,-0.953125,-0.21875,0.1875
1631204168718,-0.96875,-0.21875,0.1875
1631204168750,-0.96875,-0.21875,0.1875
1631204168781,-0.953125,-0.21875,0.1875
1631204168812,-0.96875,-0.21875,0.1875
1631204168843,-0.953125,-0.21875,0.1875
1631204168875,-0.96875,-0.21875,0.1875
1631204168906,-0.96875,-0.21875,0.1875
1631204168937,-0.96875,-0.21875,0.1875
1631204168968,-0.96875,-0.21875,0.1875
1631204169000,-0.96875,-0.21875,0.1875
1631204169031,-0.953125,-0.21875,0.1875
1631204169062,-0.953125,-0.21875,0.1875
1631204169093,-0.953125,-0.21875,0.1875
1631204169125,-0.96875,-0.21875,0.1875
1631204169156,-0.953125,-0.21875,0.1875
1631204169187,-0.953125,-0.21875,0.1875
1631204169218,-0.96875,-0.21875,0.1875
1631204169250,-0.96875,-0.21875,0.1875
1631204169281,-0.96875,-0.21875,0.1875
1631204169312,-0.96875,-0.21875,0.1875
1631204169343,-0.96875,-0.21875,0.1875
1631204169375,-0.953125,-0.21875,0.1875
1631204169406,-0.953125,-0.21875,0.1875
1631204169437,-0.96875,-0.21875,0.1875
1631204169468,-0.953125,-0.21875,0.1875
1631204169500,-0.953125,-0.21875,0.1875
1631204169531,-0.953125,-0.21875,0.1875
1631204169562,-0.96875,-0.21875,0.1875
1631204169593,-0.953125,-0.21875,0.1875
1631204169625,-0.953125,-0.21875,0.1875
1631204169656,-0.96875,-0.21875,0.1875
1631204169687,-0.96875,-0.21875,0.1875
1631204169718,-0.953125,-0.21875,0.1875
1631204169750,-0.96875,-0.21875,0.1875
1631204169781,-0.953125,-0.21875,0.1875
1631204169812,-0.953125,-0.21875,0.1875
1631204169843,-0.96875,-0.21875,0.1875
1631204169875,-0.953125,-0.21875,0.1875
1631204169906,-0.96875,-0.21875,0.1875
1631204169937,-0.953125,-0.21875,0.1875
1631204169968,-0.953125,-0.21875,0.1875
1631204170000,-0.953125,-0.21875,0.1875
1631204170031,-0.96875,-0.21875,0.1875
1631204170062,-0.953125,-0.21875,0.1875
1631204170093,-0.953125,-0.21875,0.1875
1631204170125,-0.96875,-0.21875,0.1875
1631204170156,-0.953125,-0.21875,0.203125
1631204170187,-0.953125,-0.21875,0.203125
1631204170218,-0.96875,-0.21875,0.1875
1631204170250,-0.953125,-0.21875,0.1875
1631204170281,-0.953125,-0.21875,0.203125
1631204170312,-0.953125,-0.21875,0.1875
1631204170343,-0.953125,-0.21875,0.1875
1631204170375,-0.953125,-0.21875,0.1875
1631204170406,-0.953125,-0.21875,0.203125
1631204170437,-0.96875,-0.21875,0.1875
1631204170468,-0.953125,-0.21875,0.1875
1631204170500,-0.96875,-0.21875,0.1875
1631204170531,-0.953125,-0.21875,0.1875
1631204170562,-0.96875,-0.21875,0.1875
1631204170593,-0.953125,-0.21875,0.1875
1631204170625,-0.953125,-0.21875,0.1875
1631204170656,-0.953125,-0.21875,0.1875
1631204170687,-0.953125,-0.21875,0.1875
1631204170718,-0.953125,-0.21875,0.1875
1631204170750,-0.953125,-0.21875,0.1875
1631204170781,-0.953125,-0.21875,0.1875
1631204170812,-0.96875,-0.21875,0.1875
1631204170843,-0.953125,-0.21875,0.1875
1631204170875,-0.96875,-0.21875,0.1875
1631204170906,-0.96875,-0.21875,0.1875
1631204170937,-0.953125,-0.21875,0.203125
1631204170968,-0.953125,-0.21875,0.1875
1631204171000,-0.96875,-0.21875,0.1875
1631204171031,-0.953125,-0.21875,0.203125
1631204171062,-0.953125,-0.21875,0.1875
1631204171093,-0.96875,-0.21875,0.1875
1631204171125,-0.96875,-0.21875,0.1875
1631204171156,-0.96875,-0.21875,0.1875
1631204171187,-0.96875,-0.21875,0.1875
1631204171218,-0.96875,-0.21875,0.1875
1631204171250,-0.96875,-0.21875,0.1875
1631204171281,-0.96875,-0.21875,0.1875
1631204171312,-0.953125,-0.21875,0.1875
1631204171343,-0.96875,-0.21875,0.1875
1631204171375,-0.96875,-0.21875,0.1875
1631204171406,-0.953125,-0.21875,0.1875
1631204171437,-0.96875,-0.21875,0.1875
1631204171468,-0.96875,-0.21875,0.1875
1631204171500,-0.96875,-0.21875,0.1875
1631204171531,-0.96875,-0.21875,0.1875
1631204171562,-0.953125,-0.21875,0.1875
1631204171593,-0.953125,-0.21875,0.1875
1631204171625,-0.953125,-0.21875,0.1875
1631204171656,-0.953125,-0.21875,0.1875
1631204171687,-0.96875,-0.21875,0.1875
1631204171718,-0.96875,-0.21875,0.1875
1631204171750,-0.953125,-0.21875,0.1875
1631204171781,-0.953125,-0.21875,0.1875
1631204171812,-0.953125,-0.21875,0.1875
1631204171843,-0.953125,-0.21875,0.1875
1631204171875,-0.953125,-0.21875,0.1875
1631204171906,-0.953125,-0.21875,0.1875
1631204171937,-0.96875,-0.21875,0.1875
1631204171968,-0.953125,-0.21875,0.1875
1631204172000,-0.96875,-0.21875,0.1875
1631204172031,-0.953125,-0.21875,0.1875
1631204172062,-0.96875,-0.21875,0.1875
1631204172093,-0.953125,-0.21875,0.1875
1631204172125,-0.96875,-0.21875,0.1875
1631204172156,-0.953125,-0.21875,0.1875
1631204172187,-0.96875,-0.21875,0.1875
1631204172218,-0.953125,-0.21875,0.1875
1631204172250,-0.953125,-0.21875,0.1875
1631204172281,-0.96875,-0.21875,0.1875
1631204172312,-0.953125,-0.21875,0.1875
1631204172343,-0.96875,-0.21875,0.1875
1631204172375,-0.96875,-0.21875,0.1875
1631204172406,-0.96875,-0.21875,0.1875
1631204172437,-0.953125,-0.21875,0.1875
1631204172468,-0.96875,-0.21875,0.1875
1631204172500,-0.96875,-0.21875,0.1875
1631204172531,-0.96875,-0.21875,0.1875
1631204172562,-0.953125,-0.21875,0.1875
1631204172593,-0.953125,-0.21875,0.1875
1631204172625,-0.96875,-0.21875,0.1875
1631204172656,-0.953125,-0.21875,0.1875
1631204172687,-0.953125,-0.21875,0.1875
1631204172718,-0.953125,-0.21875,0.1875
1631204172750,-0.953125,-0.21875,0.1875
1631204172781,-0.953125,-0.21875,0.1875
1631204172812,-0.953125,-0.21875,0.1875
1631204172843,-0.96875,-0.21875,0.1875
1631204172875,-0.96875,-0.21875,0.1875
1631204172906,-0.953125,-0.21875,0.1875
1631204172937,-0.953125,-0.21875,0.1875
1631204172968,-0.953125,-0.21875,0.1875
1631204173000,-0.96875,-0.21875,0.1875
1631204173031,-0.953125,-0.21875,0.1875
1631204173062,-0.96875,-0.21875,0.1875
1631204173093,-0.953125,-0.21875,0.1875
1631204173125,-0.96875,-0.21875,0.1875
1631204173156,-0.96875,-0.21875,0.1875
1631204173187,-0.96875,-0.21875,0.1875
1631204173218,-0.953125,-0.21875,0.1875
1631204173250,-0.953125,-0.21875,0.1875
1631204173281,-0.96875,-0.21875,0.1875
1631204173312,-0.96875,-0.21875,0.1875
1631204173343,-0.96875,-0.21875,0.1875
1631204173375,-0.96875,-0.21875,0.1875
1631204173406,-0.953125,-0.21875,0.1875
1631204173437,-0.953125,-0.21875,0.1875
1631204173468,-0.96875,-0.21875,0.1875
1631204173500,-0.953125,-0.21875,0.1875
1631204173531,-0.953125,-0.21875,0.1875
1631204173562,-0.96875,-0.21875,0.1875
1631204173593,-0.953125,-0.21875,0.1875
1631204173625,-0.96875,-0.21875,0.1875
1631204173656,-0.96875,-0.21875,0.1875
1631204173687,-0.953125,-0.21875,0.1875
1631204173718,-0.953125,-0.21875,0.1875
1631204173750,-0.953125,-0.21875,0.1875
1631204173781,-0.953125,-0.21875,0.1875
1631204173812,-0.953125,-0.21875,0.1875
1631204173843,-0.96875,-0.21875,0.1875
1631204173875,-0.953125,-0.21875,0.1875
1631204173906,-0.953125,-0.21875,0.1875
1631204173937,-0.953125,-0.21875,0.1875
1631204173968,-0.96875,-0.21875,0.1875
1631204174000,-0.96875,-0.21875,0.203125
1631204174031,-0.953125,-0.21875,0.1875
1631204174062,-0.953125,-0.21875,0.1875
1631204174093,-0.953125,-0.21875,0.1875
1631204174125,-0.953125,-0.21875,0.1875
1631204174156,-0.96875,-0.21875,0.1875
1631204174187,-0.96875,-0.21875,0.1875
1631204174218,-0.953125,-0.21875,0.1875
1631204174250,-0.953125,-0.21875,0.1875
1631204174281,-0.953125,-0.21875,0.1875
1631204174312,-0.953125,-0.21875,0.1875
1631204174343,-0.953125,-0.21875,0.1875
1631204174375,-0.953125,-0.21875,0.1875
1631204174406,-0.953125,-0.21875,0.1875
1631204174437,-0.953125,-0.21875,0.1875
1631204174468,-0.953125,-0.21875,0.1875
1631204174500,-0.953125,-0.21875,0.1875
1631204174531,-0.953125,-0.21875,0.1875
1631204174562,-0.953125,-0.21875,0.1875
1631204174593,-0.953125,-0.21875,0.1875
1631204174625,-0.953125,-0.21875,0.1875
1631204174656,-0.953125,-0.21875,0.1875
1631204174687,-0.96875,-0.21875,0.1875
1631204174718,-0.96875,-0.21875,0.1875
1631204174750,-0.953125,-0.21875,0.1875
1631204174781,-0.953125,-0.21875,0.1875
1631204174812,-0.96875,-0.21875,0.1875
1631204174843,-0.96875,-0.21875,0.1875
1631204174875,-0.96875,-0.21875,0.1875
1631204174906,-0.953125,-0.21875,0.1875
1631204174937,-0.953125,-0.21875,0.1875
1631204174968,-0.953125,-0.21875,0.1875
1631204175000,-0.953125,-0.21875,0.1875
1631204175031,-0.96875,-0.21875,0.1875
1631204175062,-0.953125,-0.21875,0.1875
1631204175093,-0.953125,-0.21875,0.1875
1631204175125,-0.953125,-0.21875,0.1875
1631204175156,-0.953125,-0.21875,0.1875
1631204175187,-0.96875,-0.21875,0.1875
1631204175218,-0.96875,-0.21875,0.1875
1631204175250,-0.96875,-0.21875,0.1875
1631204175281,-0.953125,-0.21875,0.1875
1631204175312,-0.96875,-0.21875,0.1875
1631204175343,-0.953125,-0.21875,0.1875
1631204175375,-0.96875,-0.21875,0.1875
1631204175406,-0.96875,-0.21875,0.1875
1631204175437,-0.96875,-0.21875,0.1875
1631204175468,-0.96875,-0.21875,0.1875
1631204175500,-0.953125,-0.21875,0.1875
1631204175531,-0.96875,-0.21875,0.1875
1631204175562,-0.953125,-0.21875,0.1875
1631204175593,-0.953125,-0.21875,0.1875
1631204175625,-0.96875,-0.21875,0.1875
1631204175656,-0.953125,-0.21875,0.1875
1631204175687,-0.96875,-0.21875,0.1875
1631204175718,-0.953125,-0.21875,0.1875
1631204175750,-0.953125,-0.21875,0.1875
1631204175781,-0.953125,-0.21875,0.1875
1631204175812,-0.96875,-0.21875,0.1875
1631204175843,-0.953125,-0.21875,0.1875
1631204175875,-0.96875,-0.21875,0.1875
1631204175906,-0.96875,-0.21875,0.1875
1631204175937,-0.953125,-0.21875,0.1875
1631204175968,-0.96875,-0.21875,0.1875
1631204176000,-0.953125,-0.21875,0.1875
1631204176031,-0.953125,-0.21875,0.1875
1631204176062,-0.96875,-0.21875,0.1875
1631204176093,-0.96875,-0.21875,0.1875
1631204176125,-0.953125,-0.21875,0.1875
1631204176156,-0.953125,-0.21875,0.1875
1631204176187,-0.953125,-0.21875,0.1875
1631204176218,-0.953125,-0.21875,0.1875
1631204176250,-0.953125,-0.21875,0.1875
1631204176281,-0.96875,-0.21875,0.1875
1631204176312,-0.953125,-0.21875,0.1875
1631204176343,-0.96875,-0.21875,0.1875
1631204176375,-0.96875,-0.21875,0.171875
1631204176406,-0.953125,-0.21875,0.1875
1631204176437,-0.953125,-0.21875,0.1875
1631204176468,-0.96875,-0.21875,0.1875
1631204176500,-0.96875,-0.21875,0.1875
1631204176531,-0.96875,-0.21875,0.1875
1631204176562,-0.96875,-0.21875,0.1875
1631204176593,-0.96875,-0.21875,0.1875
1631204176625,-0.96875,-0.21875,0.1875
1631204176656,-0.953125,-0.21875,0.1875
1631204176687,-0.953125,-0.21875,0.1875
1631204176718,-0.953125,-0.21875,0.1875
1631204176750,-0.96875,-0.21875,0.1875
1631204176781,-0.953125,-0.21875,0.1875
1631204176812,-0.953125,-0.21875,0.1875
1631204176843,-0.953125,-0.21875,0.1875
1631204176875,-0.96875,-0.21875,0.1875
1631204176906,-0.953125,-0.21875,0.1875
1631204176937,-0.96875,-0.21875,0.1875
1631204176968,-0.96875,-0.21875,0.1875
1631204177000,-0.96875,-0.21875,0.1875
1631204177031,-0.953125,-0.21875,0.171875
1631204177062,-0.96875,-0.21875,0.171875
1631204177093,-0.953125,-0.21875,0.203125
1631204177125,-0.953125,-0.21875,0.1875
1631204177156,-0.953125,-0.21875,0.1875
1631204177187,-0.953125,-0.21875,0.1875
1631204177218,-0.96875,-0.21875,0.1875
1631204177250,-0.96875,-0.21875,0.1875
1631204177281,-0.953125,-0.21875,0.1875
1631204177312,-0.96875,-0.21875,0.1875
1631204177343,-0.953125,-0.21875,0.1875
1631204177375,-0.96875,-0.21875,0.1875
1631204177406,-0.96875,-0.21875,0.1875
1631204177437,-0.96875,-0.21875,0.1875
1631204177468,-0.953125,-0.21875,0.203125
1631204177500,-0.953125,-0.21875,0.1875
1631204177531,-0.953125,-0.21875,0.1875
1631204177562,-0.953125,-0.21875,0.1875
1631204177593,-0.96875,-0.21875,0.1875
1631204177625,-0.96875,-0.21875,0.1875
1631204177656,-0.953125,-0.21875,0.1875
1631204177687,-0.953125,-0.21875,0.1875
1631204177718,-0.96875,-0.21875,0.1875
1631204177750,-0.953125,-0.21875,0.1875
1631204177781,-0.953125,-0.21875,0.1875
1631204177812,-0.96875,-0.21875,0.1875
1631204177843,-0.953125,-0.21875,0.1875
1631204177875,-0.953125,-0.21875,0.1875
1631204177906,-0.953125,-0.21875,0.1875
1631204177937,-0.953125,-0.21875,0.1875
1631204177968,-0.96875,-0.21875,0.1875
1631204178000,-0.96875,-0.21875,0.1875
1631204178031,-0.96875,-0.21875,0.1875
1631204178062,-0.953125,-0.21875,0.1875
1631204178093,-0.953125,-0.21875,0.1875
1631204178125,-0.953125,-0.21875,0.1875
1631204178156,-0.953125,-0.21875,0.1875
1631204178187,-0.953125,-0.21875,0.1875
1631204178218,-0.953125,-0.21875,0.1875
1631204178250,-0.96875,-0.21875,0.1875
1631204178281,-0.96875,-0.21875,0.1875
1631204178312,-0.953125,-0.21875,0.1875
1631204178343,-0.96875,-0.21875,0.1875
1631204178375,-0.953125,-0.21875,0.1875
1631204178406,-0.953125,-0.21875,0.1875
1631204178437,-0.953125,-0.21875,0.1875
1631204178468,-0.96875,-0.21875,0.1875
1631204178500,-0.96875,-0.21875,0.1875
1631204178531,-0.953125,-0.21875,0.203125
1631204178562,-0.953125,-0.21875,0.203125
1631204178593,-0.96875,-0.21875,0.1875
1631204178625,-0.953125,-0.21875,0.1875
1631204178656,-0.953125,-0.21875,0.1875
1631204178687,-0.96875,-0.21875,0.1875
1631204178718,-0.96875,-0.21875,0.1875
1631204178750,-0.953125,-0.21875,0.1875
1631204178781,-0.953125,-0.21875,0.1875
1631204178812,-0.953125,-0.21875,0.1875
1631204178843,-0.96875,-0.21875,0.1875
1631204178875,-0.953125,-0.21875,0.1875
1631204178906,-0.96875,-0.21875,0.1875
1631204178937,-0.953125,-0.21875,0.1875
1631204178968,-0.953125,-0.21875,0.1875
1631204179000,-0.953125,-0.21875,0.1875
1631204179031,-0.953125,-0.21875,0.1875
1631204179062,-0.96875,-0.21875,0.1875
1631204179093,-0.96875,-0.21875,0.1875
1631204179125,-0.96875,-0.21875,0.1875
1631204179156,-0.953125,-0.21875,0.1875
1631204179187,-0.953125,-0.21875,0.1875
1631204179218,-0.96875,-0.21875,0.1875
1631204179250,-0.96875,-0.21875,0.1875
1631204179281,-0.953125,-0.21875,0.1875
1631204179312,-0.96875,-0.21875,0.1875
1631204179343,-0.96875,-0.21875,0.171875
1631204179375,-0.96875,-0.21875,0.171875
1631204179406,-0.953125,-0.21875,0.1875
1631204179437,-0.953125,-0.21875,0.1875
1631204179468,-0.953125,-0.21875,0.1875
1631204179500,-0.953125,-0.21875,0.1875
1631204179531,-0.96875,-0.21875,0.1875
1631204179562,-0.96875,-0.21875,0.171875
1631204179593,-0.96875,-0.21875,0.171875
1631204179625,-0.953125,-0.21875,0.1875
1631204179656,-0.96875,-0.21875,0.1875
1631204179687,-0.96875,-0.21875,0.1875
1631204179718,-0.96875,-0.21875,0.1875
1631204179750,-0.96875,-0.21875,0.1875
1631204179781,-0.953125,-0.21875,0.1875
1631204179812,-0.96875,-0.21875,0.1875
1631204179843,-0.96875,-0.21875,0.1875
1631204179875,-0.953125,-0.21875,0.1875
1631204179906,-0.96875,-0.21875,0.1875
1631204179937,-0.953125,-0.21875,0.1875
1631204179968,-0.953125,-0.21875,0.1875
1631204180000,-0.96875,-0.21875,0.1875
1631204180031,-0.96875,-0.21875,0.1875
1631204180062,-0.953125,-0.21875,0.1875
1631204180093,-0.953125,-0.21875,0.1875
1631204180125,-0.96875,-0.21875,0.1875
1631204180156,-0.953125,-0.21875,0.1875
1631204180187,-0.96875,-0.21875,0.1875
1631204180218,-0.96875,-0.21875,0.1875
1631204180250,-0.96875,-0.21875,0.171875
1631204180281,-0.953125,-0.21875,0.1875
1631204180312,-0.953125,-0.21875,0.203125
1631204180343,-0.96875,-0.21875,0.1875
1631204180375,-0.953125,-0.21875,0.1875
1631204180406,-0.96875,-0.21875,0.171875
1631204180437,-0.96875,-0.21875,0.1875
1631204180468,-0.96875,-0.21875,0.1875
1631204180500,-0.96875,-0.21875,0.171875
1631204180531,-0.96875,-0.21875,0.171875
1631204180562,-0.96875,-0.21875,0.1875
1631204180593,-0.953125,-0.21875,0.203125
1631204180625,-0.96875,-0.21875,0.15625
1631204180656,-0.96875,-0.21875,0.171875
1631204180687,-0.96875,-0.21875,0.171875
1631204180718,-0.96875,-0.21875,0.171875
1631204180750,-0.953125,-0.21875,0.203125
1631204180781,-0.96875,-0.21875,0.1875
1631204180812,-0.953125,-0.21875,0.1875
1631204180843,-0.96875,-0.21875,0.1875
1631204180875,-0.96875,-0.21875,0.1875
1631204180906,-0.96875,-0.21875,0.1875
1631204180937,-0.96875,-0.21875,0.1875
1631204180968,-0.96875,-0.21875,0.171875
1631204181000,-0.953125,-0.21875,0.203125
1631204181031,-0.953125,-0.21875,0.203125
1631204181062,-0.96875,-0.21875,0.1875
1631204181093,-0.96875,-0.21875,0.1875
1631204181125,-0.96875,-0.21875,0.1875
1631204181156,-0.953125,-0.21875,0.1875
1631204181187,-0.96875,-0.21875,0.171875
1631204181218,-0.96875,-0.21875,0.1875
1631204181250,-0.953125,-0.21875,0.203125
1631204181281,-0.953125,-0.21875,0.1875
1631204181312,-0.96875,-0.21875,0.1875
1631204181343,-0.96875,-0.21875,0.171875
1631204181375,-0.96875,-0.21875,0.171875
1631204181406,-0.953125,-0.21875,0.1875
1631204181437,-0.953125,-0.203125,0.203125
1631204181468,-0.953125,-0.21875,0.1875
1631204181500,-0.96875,-0.21875,0.171875
1631204181531,-0.96875,-0.21875,0.171875
1631204181562,-0.953125,-0.21875,0.203125
1631204181593,-0.953125,-0.21875,0.21875
1631204181625,-0.96875,-0.21875,0.171875
1631204181656,-0.953125,-0.234375,0.1875
1631204181687,-0.953125,-0.234375,0.1875
1631204181718,-0.96875,-0.21875,0.171875
1631204181750,-0.96875,-0.21875,0.15625
1631204181781,-0.953125,-0.21875,0.1875
1631204181812,-0.953125,-0.21875,0.1875
1631204181843,-0.96875,-0.21875,0.171875
1631204181875,-0.96875,-0.21875,0.1875
1631204181906,-0.96875,-0.21875,0.171875
1631204181937,-0.9375,-0.21875,0.1875
1631204181968,-0.953125,-0.21875,0.203125
1631204182000,-0.96875,-0.21875,0.1875
1631204182031,-0.953125,-0.21875,0.1875
1631204182062,-0.953125,-0.21875,0.1875
1631204182093,-0.96875,-0.21875,0.1875
1631204182125,-0.96875,-0.21875,0.1875
1631204182156,-0.96875,-0.21875,0.1875
1631204182187,-0.953125,-0.21875,0.203125
1631204182218,-0.953125,-0.21875,0.1875
1631204182250,-0.96875,-0.21875,0.1875
1631204182281,-0.953125,-0.21875,0.1875
1631204182312,-0.953125,-0.21875,0.1875
1631204182343,-0.96875,-0.21875,0.1875
1631204182375,-0.953125,-0.21875,0.203125
1631204182406,-0.953125,-0.21875,0.1875
1631204182437,-0.953125,-0.21875,0.21875
1631204182468,-0.953125,-0.21875,0.1875
1631204182500,-0.953125,-0.21875,0.1875
1631204182531,-0.96875,-0.21875,0.171875
1631204182562,-0.96875,-0.21875,0.171875
1631204182593,-0.953125,-0.21875,0.171875
1631204182625,-0.96875,-0.21875,0.171875
1631204182656,-0.96875,-0.21875,0.171875
1631204182687,-0.96875,-0.21875,0.171875
1631204182718,-0.953125,-0.21875,0.1875
1631204182750,-0.953125,-0.21875,0.203125
1631204182781,-0.96875,-0.21875,0.1875
1631204182812,-0.96875,-0.21875,0.1875
1631204182843,-0.96875,-0.21875,0.1875
1631204182875,-0.96875,-0.21875,0.1875
1631204182906,-0.96875,-0.21875,0.171875
1631204182937,-0.953125,-0.21875,0.203125
1631204182968,-0.9375,-0.21875,0.21875
1631204183000,-0.953125,-0.21875,0.203125
1631204183031,-0.953125,-0.21875,0.1875
1631204183062,-0.96875,-0.21875,0.1875
1631204183093,-0.96875,-0.21875,0.171875
1631204183125,-0.96875,-0.21875,0.171875
1631204183156,-0.953125,-0.21875,0.1875
1631204183187,-0.96875,-0.21875,0.1875
1631204183218,-0.953125,-0.21875,0.1875
1631204183250,-0.96875,-0.21875,0.1875
1631204183281,-0.96875,-0.21875,0.1875
1631204183312,-0.953125,-0.21875,0.21875
1631204183343,-0.96875,-0.21875,0.171875
1631204183375,-0.953125,-0.234375,0.171875
1631204183406,-0.953125,-0.21875,0.203125
1631204183437,-0.96875,-0.21875,0.171875
1631204183468,-0.96875,-0.21875,0.15625
1631204183500,-0.96875,-0.21875,0.1875
1631204183531,-0.96875,-0.21875,0.171875
1631204183562,-0.96875,-0.21875,0.1875
1631204183593,-0.953125,-0.21875,0.171875
1631204183625,-0.96875,-0.21875,0.171875
1631204183656,-0.96875,-0.21875,0.171875
1631204183687,-0.9375,-0.21875,0.203125
1631204183718,-0.953125,-0.21875,0.21875
1631204183750,-0.96875,-0.21875,0.1875
1631204183781,-0.953125,-0.21875,0.1875
1631204183812,-0.953125,-0.21875,0.1875
1631204183843,-0.96875,-0.21875,0.1875
1631204183875,-0.96875,-0.21875,0.1875
1631204183906,-0.953125,-0.21875,0.1875
1631204183937,-0.953125,-0.21875,0.203125
1631204183968,-0.96875,-0.21875,0.1875
1631204184000,-0.96875,-0.21875,0.1875
1631204184031,-0.953125,-0.21875,0.171875
1631204184062,-0.953125,-0.203125,0.1875
1631204184093,-0.96875,-0.21875,0.1875
1631204184125,-0.953125,-0.21875,0.1875
1631204184156,-0.953125,-0.21875,0.1875
1631204184187,-0.953125,-0.21875,0.1875
1631204184218,-0.96875,-0.21875,0.1875
1631204184250,-0.953125,-0.21875,0.21875
1631204184281,-0.96875,-0.203125,0.1875
1631204184312,-0.96875,-0.21875,0.171875
1631204184343,-0.953125,-0.21875,0.171875
1631204184375,-0.96875,-0.21875,0.15625
1631204184406,-0.96875,-0.21875,0.171875
1631204184437,-0.96875,-0.21875,0.171875
1631204184468,-0.953125,-0.21875,0.1875
1631204184500,-0.953125,-0.21875,0.1875
1631204184531,-0.96875,-0.21875,0.1875
1631204184562,-0.96875,-0.21875,0.1875
1631204184593,-0.96875,-0.21875,0.1875
1631204184625,-0.96875,-0.21875,0.1875
1631204184656,-0.96875,-0.21875,0.1875
1631204184687,-0.96875,-0.21875,0.171875
1631204184718,-0.9375,-0.21875,0.203125
1631204184750,-0.953125,-0.21875,0.21875
1631204184781,-0.953125,-0.21875,0.1875
1631204184812,-0.953125,-0.21875,0.203125
1631204184843,-0.96875,-0.21875,0.1875
1631204184875,-0.96875,-0.21875,0.1875
1631204184906,-0.96875,-0.21875,0.1875
1631204184937,-0.953125,-0.21875,0.203125
1631204184968,-0.953125,-0.21875,0.203125
1631204185000,-0.953125,-0.21875,0.1875
1631204185031,-0.96875,-0.21875,0.1875
1631204185062,-0.96875,-0.21875,0.1875
1631204185093,-0.953125,-0.21875,0.1875
1631204185125,-0.96875,-0.21875,0.1875
1631204185156,-0.96875,-0.21875,0.203125
1631204185187,-0.953125,-0.21875,0.1875
1631204185218,-0.953125,-0.21875,0.1875
1631204185250,-0.96875,-0.21875,0.1875
1631204185281,-0.96875,-0.21875,0.1875
1631204185312,-0.953125,-0.21875,0.21875
1631204185343,-0.953125,-0.21875,0.21875
1631204185375,-0.953125,-0.21875,0.171875
1631204185406,-0.96875,-0.234375,0.1875
1631204185437,-0.984375,-0.21875,0.15625
1631204185468,-0.96875,-0.21875,0.171875
1631204185500,-0.953125,-0.21875,0.1875
1631204185531,-0.953125,-0.21875,0.1875
1631204185562,-0.96875,-0.21875,0.1875
1631204185593,-0.96875,-0.21875,0.1875
1631204185625,-0.953125,-0.21875,0.203125
1631204185656,-0.953125,-0.21875,0.21875
1631204185687,-0.953125,-0.21875,0.203125
1631204185718,-0.96875,-0.21875,0.1875
1631204185750,-0.953125,-0.21875,0.1875
1631204185781,-0.96875,-0.21875,0.1875
1631204185812,-0.96875,-0.21875,0.1875
1631204185843,-0.96875,-0.21875,0.1875
1631204185875,-0.953125,-0.21875,0.203125
1631204185906,-0.953125,-0.21875,0.203125
1631204185937,-0.96875,-0.21875,0.1875
1631204185968,-0.96875,-0.21875,0.171875
1631204186000,-0.96875,-0.21875,0.171875
1631204186031,-0.96875,-0.21875,0.1875
1631204186062,-0.953125,-0.21875,0.203125
1631204186093,-0.953125,-0.21875,0.1875
1631204186125,-0.96875,-0.21875,0.1875
1631204186156,-0.953125,-0.21875,0.1875
1631204186187,-0.96875,-0.21875,0.1875
1631204186218,-0.9375,-0.21875,0.234375
1631204186250,-0.953125,-0.21875,0.203125
1631204186281,-0.953125,-0.21875,0.171875
1631204186312,-0.96875,-0.21875,0.171875
1631204186343,-0.984375,-0.21875,0.15625
1631204186375,-0.953125,-0.21875,0.171875
1631204186406,-0.953125,-0.21875,0.1875
1631204186437,-0.96875,-0.21875,0.171875
1631204186468,-0.96875,-0.21875,0.171875
1631204186500,-0.96875,-0.21875,0.1875
1631204186531,-0.96875,-0.21875,0.171875
1631204186562,-0.953125,-0.21875,0.1875
1631204186593,-0.953125,-0.21875,0.203125
1631204186625,-0.96875,-0.21875,0.1875
1631204186656,-0.96875,-0.21875,0.1875
1631204186687,-0.953125,-0.21875,0.1875
1631204186718,-0.96875,-0.21875,0.1875
1631204186750,-0.96875,-0.21875,0.1875
1631204186781,-0.953125,-0.21875,0.1875
1631204186812,-0.953125,-0.21875,0.203125
1631204186843,-0.96875,-0.21875,0.1875
1631204186875,-0.96875,-0.21875,0.1875
1631204186906,-0.96875,-0.21875,0.171875
1631204186937,-0.96875,-0.21875,0.1875
1631204186968,-0.953125,-0.203125,0.203125
1631204187000,-0.953125,-0.21875,0.1875
1631204187031,-0.953125,-0.21875,0.1875
1631204187062,-0.96875,-0.21875,0.171875
1631204187093,-0.96875,-0.21875,0.1875
1631204187125,-0.953125,-0.21875,0.203125
1631204187156,-0.953125,-0.203125,0.203125
1631204187187,-0.96875,-0.203125,0.171875
1631204187218,-0.953125,-0.21875,0.171875
1631204187250,-0.96875,-0.21875,0.15625
1631204187281,-0.96875,-0.21875,0.15625
1631204187312,-0.96875,-0.21875,0.171875
1631204187343,-0.96875,-0.21875,0.1875
1631204187375,-0.96875,-0.21875,0.1875
1631204187406,-0.96875,-0.21875,0.171875
1631204187437,-0.96875,-0.21875,0.1875
1631204187468,-0.953125,-0.21875,0.203125
1631204187500,-0.953125,-0.21875,0.203125
1631204187531,-0.96875,-0.21875,0.171875
1631204187562,-0.953125,-0.21875,0.1875
1631204187593,-0.953125,-0.21875,0.1875
1631204187625,-0.96875,-0.21875,0.1875
1631204187656,-0.953125,-0.21875,0.203125
1631204187687,-0.953125,-0.21875,0.203125
1631204187718,-0.953125,-0.21875,0.203125
1631204187750,-0.96875,-0.21875,0.203125
1631204187781,-0.953125,-0.21875,0.1875
1631204187812,-0.953125,-0.21875,0.1875
1631204187843,-0.96875,-0.21875,0.1875
1631204187875,-0.96875,-0.21875,0.1875
1631204187906,-0.953125,-0.21875,0.1875
1631204187937,-0.953125,-0.21875,0.1875
1631204187968,-0.96875,-0.21875,0.1875
1631204188000,-0.953125,-0.21875,0.203125
1631204188031,-0.953125,-0.21875,0.21875
1631204188062,-0.96875,-0.21875,0.1875
1631204188093,-0.96875,-0.21875,0.171875
1631204188125,-0.984375,-0.21875,0.15625
1631204188156,-0.953125,-0.21875,0.171875
1631204188187,-0.96875,-0.21875,0.171875
1631204188218,-0.96875,-0.21875,0.171875
1631204188250,-0.953125,-0.21875,0.1875
1631204188281,-0.953125,-0.21875,0.203125
1631204188312,-0.953125,-0.21875,0.203125
1631204188343,-0.953125,-0.21875,0.1875
1631204188375,-0.953125,-0.21875,0.1875
1631204188406,-0.953125,-0.21875,0.1875
1631204188437,-0.953125,-0.21875,0.1875
1631204188468,-0.96875,-0.21875,0.1875
1631204188500,-0.953125,-0.21875,0.1875
1631204188531,-0.953125,-0.21875,0.1875
1631204188562,-0.953125,-0.21875,0.203125
1631204188593,-0.953125,-0.21875,0.1875
1631204188625,-0.96875,-0.21875,0.1875
1631204188656,-0.953125,-0.21875,0.203125
1631204188687,-0.953125,-0.21875,0.1875
1631204188718,-0.96875,-0.21875,0.1875
1631204188750,-0.96875,-0.21875,0.1875
1631204188781,-0.96875,-0.21875,0.171875
1631204188812,-0.953125,-0.21875,0.1875
1631204188843,-0.953125,-0.21875,0.203125
1631204188875,-0.953125,-0.21875,0.203125
1631204188906,-0.96875,-0.21875,0.171875
1631204188937,-0.96875,-0.21875,0.1875
1631204188968,-0.96875,-0.21875,0.203125
1631204189000,-0.953125,-0.21875,0.203125
1631204189031,-0.96875,-0.21875,0.171875
1631204189062,-0.953125,-0.234375,0.1875
1631204189093,-0.953125,-0.21875,0.1875
1631204189125,-0.96875,-0.21875,0.171875
1631204189156,-0.96875,-0.21875,0.1875
1631204189187,-0.96875,-0.21875,0.1875
1631204189218,-0.953125,-0.21875,0.1875
1631204189250,-0.96875,-0.21875,0.171875
1631204189281,-0.96875,-0.21875,0.1875
1631204189312,-0.953125,-0.21875,0.203125
1631204189343,-0.953125,-0.21875,0.203125
1631204189375,-0.953125,-0.21875,0.1875
1631204189406,-0.953125,-0.21875,0.1875
1631204189437,-0.953125,-0.21875,0.1875
1631204189468,-0.96875,-0.21875,0.1875
1631204189500,-0.96875,-0.21875,0.1875
1631204189531,-0.953125,-0.21875,0.203125
1631204189562,-0.953125,-0.21875,0.203125
1631204189593,-0.96875,-0.21875,0.1875
1631204189625,-0.96875,-0.21875,0.1875
1631204189656,-0.96875,-0.21875,0.1875
1631204189687,-0.953125,-0.21875,0.1875
1631204189718,-0.96875,-0.21875,0.1875
1631204189750,-0.953125,-0.21875,0.1875
1631204189781,-0.953125,-0.21875,0.1875
1631204189812,-0.96875,-0.21875,0.1875
1631204189843,-0.96875,-0.21875,0.1875
1631204189875,-0.953125,-0.203125,0.203125
1631204189906,-0.96875,-0.203125,0.1875
1631204189937,-0.953125,-0.234375,0.1875
1631204189968,-0.96875,-0.21875,0.1875
1631204190000,-0.96875,-0.21875,0.171875
1631204190031,-0.96875,-0.21875,0.171875
1631204190062,-0.96875,-0.21875,0.1875
1631204190093,-0.953125,-0.21875,0.1875
1631204190125,-0.96875,-0.21875,0.1875
1631204190156,-0.96875,-0.21875,0.1875
1631204190187,-0.96875,-0.21875,0.171875
1631204190218,-0.953125,-0.21875,0.1875
1631204190250,-0.9375,-0.21875,0.21875
1631204190281,-0.96875,-0.21875,0.1875
1631204190312,-0.953125,-0.21875,0.1875
1631204190343,-0.96875,-0.21875,0.1875
1631204190375,-0.96875,-0.21875,0.1875
1631204190406,-0.96875,-0.21875,0.1875
1631204190437,-0.984375,-0.21875,0.15625
1631204190468,-0.953125,-0.21875,0.21875
1631204190500,-0.9375,-0.21875,0.21875
1631204190531,-0.953125,-0.21875,0.203125
1631204190562,-0.96875,-0.21875,0.1875
1631204190593,-0.953125,-0.21875,0.203125
1631204190625,-0.953125,-0.21875,0.203125
1631204190656,-0.96875,-0.21875,0.1875
1631204190687,-0.96875,-0.21875,0.1875
1631204190718,-0.96875,-0.21875,0.1875
1631204190750,-0.96875,-0.21875,0.1875
1631204190781,-0.953125,-0.21875,0.1875
1631204190812,-0.9375,-0.21875,0.21875
1631204190843,-0.96875,-0.21875,0.171875
1631204190875,-0.953125,-0.21875,0.1875
1631204190906,-0.96875,-0.234375,0.171875
1631204190937,-0.96875,-0.21875,0.171875
1631204190968,-0.96875,-0.21875,0.1875
1631204191000,-0.96875,-0.21875,0.1875
1631204191031,-0.953125,-0.21875,0.1875
1631204191062,-0.953125,-0.21875,0.1875
1631204191093,-0.953125,-0.21875,0.1875
1631204191125,-0.953125,-0.21875,0.1875
1631204191156,-0.953125,-0.21875,0.1875
1631204191187,-0.953125,-0.21875,0.1875
1631204191218,-0.953125,-0.21875,0.1875
1631204191250,-0.953125,-0.21875,0.1875
1631204191281,-0.953125,-0.21875,0.1875
1631204191312,-0.953125,-0.21875,0.1875
1631204191343,-0.953125,-0.21875,0.1875
1631204191375,-0.953125,-0.21875,0.1875
1631204191406,-0.953125,-0.21875,0.1875
1631204191437,-0.96875,-0.21875,0.1875
1631204191468,-0.953125,-0.21875,0.1875
1631204191500,-0.953125,-0.21875,0.1875
1631204191531,-0.953125,-0.21875,0.1875
1631204191562,-0.953125,-0.21875,0.1875
1631204191593,-0.96875,-0.21875,0.1875
1631204191625,-0.953125,-0.21875,0.1875
1631204191656,-0.953125,-0.21875,0.1875
1631204191687,-0.953125,-0.21875,0.1875
1631204191718,-0.953125,-0.21875,0.1875
1631204191750,-0.953125,-0.21875,0.1875
1631204191781,-0.953125,-0.21875,0.1875
1631204191812,-0.96875,-0.21875,0.1875
1631204191843,-0.96875,-0.21875,0.1875
1631204191875,-0.96875,-0.21875,0.1875
1631204191906,-0.953125,-0.21875,0.1875
1631204191937,-0.953125,-0.21875,0.1875
1631204191968,-0.953125,-0.21875,0.1875
1631204192000,-0.953125,-0.21875,0.1875
1631204192031,-0.953125,-0.21875,0.1875
1631204192062,-0.953125,-0.21875,0.1875
1631204192093,-0.96875,-0.21875,0.1875
1631204192125,-0.953125,-0.21875,0.1875
1631204192156,-0.953125,-0.21875,0.1875
1631204192187,-0.953125,-0.21875,0.1875
1631204192218,-0.953125,-0.21875,0.1875
1631204192250,-0.96875,-0.21875,0.1875
1631204192281,-0.953125,-0.21875,0.1875
1631204192312,-0.953125,-0.21875,0.1875
1631204192343,-0.96875,-0.21875,0.1875
1631204192375,-0.953125,-0.21875,0.1875
1631204192406,-0.953125,-0.21875,0.1875
1631204192437,-0.96875,-0.21875,0.1875
1631204192468,-0.96875,-0.21875,0.1875
1631204192500,-0.953125,-0.21875,0.1875
1631204192531,-0.953125,-0.21875,0.1875
1631204192562,-0.953125,-0.21875,0.1875
1631204192593,-0.953125,-0.21875,0.1875
1631204192625,-0.953125,-0.21875,0.1875
1631204192656,-0.96875,-0.21875,0.1875
1631204192687,-0.953125,-0.21875,0.1875
1631204192718,-0.953125,-0.21875,0.1875
1631204192750,-0.96875,-0.21875,0.1875
1631204192781,-0.96875,-0.21875,0.1875
1631204192812,-0.953125,-0.21875,0.1875
1631204192843,-0.96875,-0.21875,0.1875
1631204192875,-0.96875,-0.21875,0.1875
1631204192906,-0.953125,-0.21875,0.1875
1631204192937,-0.96875,-0.21875,0.203125
1631204192968,-0.96875,-0.21875,0.1875
1631204193000,-0.953125,-0.21875,0.1875
1631204193031,-0.953125,-0.21875,0.1875
1631204193062,-0.953125,-0.21875,0.1875
1631204193093,-0.953125,-0.21875,0.1875
1631204193125,-0.953125,-0.21875,0.1875
1631204193156,-0.953125,-0.21875,0.1875
1631204193187,-0.953125,-0.21875,0.1875
1631204193218,-0.953125,-0.21875,0.1875
1631204193250,-0.953125,-0.21875,0.1875
1631204193281,-0.96875,-0.21875,0.1875
1631204193312,-0.96875,-0.21875,0.1875
1631204193343,-0.953125,-0.21875,0.1875
1631204193375,-0.953125,-0.21875,0.1875
1631204193406,-0.953125,-0.21875,0.1875
1631204193437,-0.953125,-0.21875,0.1875
1631204193468,-0.96875,-0.21875,0.1875
1631204193500,-0.953125,-0.21875,0.1875
1631204193531,-0.953125,-0.21875,0.1875
1631204193562,-0.953125,-0.21875,0.1875
1631204193593,-0.96875,-0.21875,0.1875
1631204193625,-0.953125,-0.21875,0.1875
1631204193656,-0.953125,-0.21875,0.1875
1631204193687,-0.96875,-0.21875,0.1875
1631204193718,-0.953125,-0.21875,0.1875
1631204193750,-0.953125,-0.21875,0.203125
1631204193781,-0.96875,-0.21875,0.1875
1631204193812,-0.953125,-0.21875,0.1875
1631204193843,-0.953125,-0.21875,0.1875
1631204193875,-0.953125,-0.21875,0.1875
1631204193906,-0.96875,-0.21875,0.1875
1631204193937,-0.953125,-0.21875,0.1875
1631204193968,-0.953125,-0.21875,0.1875
1631204194000,-0.96875,-0.21875,0.1875
1631204194031,-0.953125,-0.21875,0.1875
1631204194062,-0.953125,-0.21875,0.1875
1631204194093,-0.96875,-0.21875,0.1875
1631204194125,-0.953125,-0.21875,0.1875
1631204194156,-0.953125,-0.21875,0.1875
1631204194187,-0.96875,-0.21875,0.1875
1631204194218,-0.953125,-0.21875,0.1875
1631204194250,-0.953125,-0.21875,0.1875
1631204194281,-0.96875,-0.21875,0.1875
1631204194312,-0.96875,-0.21875,0.1875
1631204194343,-0.953125,-0.21875,0.1875
1631204194375,-0.953125,-0.21875,0.1875
1631204194406,-0.953125,-0.21875,0.1875
1631204194437,-0.96875,-0.21875,0.1875
1631204194468,-0.96875,-0.21875,0.1875
1631204194500,-0.96875,-0.21875,0.1875
1631204194531,-0.96875,-0.21875,0.1875
1631204194562,-0.96875,-0.21875,0.1875
1631204194593,-0.96875,-0.21875,0.1875
1631204194625,-0.953125,-0.21875,0.1875
1631204194656,-0.953125,-0.21875,0.1875
1631204194687,-0.953125,-0.21875,0.1875
1631204194718,-0.953125,-0.21875,0.1875
1631204194750,-0.953125,-0.21875,0.1875
1631204194781,-0.953125,-0.21875,0.203125
1631204194812,-0.96875,-0.21875,0.1875
1631204194843,-0.96875,-0.21875,0.1875
1631204194875,-0.96875,-0.21875,0.1875
1631204194906,-0.953125,-0.21875,0.1875
1631204194937,-0.953125,-0.21875,0.1875
1631204194968,-0.96875,-0.21875,0.1875
1631204195000,-0.953125,-0.21875,0.1875
1631204195031,-0.953125,-0.21875,0.1875
1631204195062,-0.96875,-0.21875,0.1875
1631204195093,-0.953125,-0.21875,0.1875
1631204195125,-0.96875,-0.21875,0.1875
1631204195156,-0.953125,-0.21875,0.203125
1631204195187,-0.953125,-0.21875,0.203125
1631204195218,-0.96875,-0.21875,0.171875
1631204195250,-0.953125,-0.21875,0.1875
1631204195281,-0.96875,-0.21875,0.1875
1631204195312,-0.953125,-0.21875,0.1875
1631204195343,-0.953125,-0.21875,0.1875
1631204195375,-0.953125,-0.21875,0.1875
1631204195406,-0.953125,-0.21875,0.1875
1631204195437,-0.953125,-0.21875,0.1875
1631204195468,-0.96875,-0.21875,0.1875
1631204195500,-0.953125,-0.21875,0.1875
1631204195531,-0.953125,-0.21875,0.1875
1631204195562,-0.96875,-0.21875,0.1875
1631204195593,-0.96875,-0.21875,0.1875
1631204195625,-0.96875,-0.21875,0.171875
1631204195656,-0.96875,-0.21875,0.1875
1631204195687,-0.953125,-0.21875,0.1875
1631204195718,-0.953125,-0.21875,0.1875
1631204195750,-0.96875,-0.21875,0.1875
1631204195781,-0.953125,-0.21875,0.203125
1631204195812,-0.953125,-0.21875,0.1875
1631204195843,-0.96875,-0.21875,0.1875
1631204195875,-0.96875,-0.21875,0.1875
1631204195906,-0.953125,-0.21875,0.1875
1631204195937,-0.953125,-0.21875,0.1875
1631204195968,-0.96875,-0.21875,0.1875
1631204196000,-0.953125,-0.21875,0.1875
1631204196031,-0.953125,-0.21875,0.1875
1631204196062,-0.953125,-0.21875,0.1875
1631204196093,-0.96875,-0.21875,0.1875
1631204196125,-0.953125,-0.21875,0.1875
1631204196156,-0.953125,-0.21875,0.1875
1631204196187,-0.953125,-0.21875,0.1875
1631204196218,-0.953125,-0.21875,0.1875
1631204196250,-0.953125,-0.21875,0.1875
1631204196281,-0.953125,-0.21875,0.1875
1631204196312,-0.953125,-0.21875,0.1875
1631204196343,-0.953125,-0.21875,0.1875
1631204196375,-0.953125,-0.21875,0.1875
1631204196406,-0.953125,-0.21875,0.1875
1631204196437,-0.96875,-0.21875,0.1875
1631204196468,-0.96875,-0.21875,0.1875
1631204196500,-0.953125,-0.21875,0.1875
1631204196531,-0.953125,-0.21875,0.1875
1631204196562,-0.953125,-0.21875,0.1875
1631204196593,-0.953125,-0.21875,0.1875
1631204196625,-0.953125,-0.21875,0.1875
1631204196656,-0.953125,-0.21875,0.1875
1631204196687,-0.953125,-0.21875,0.1875
1631204196718,-0.953125,-0.21875,0.1875
1631204196750,-0.96875,-0.21875,0.1875
1631204196781,-0.96875,-0.21875,0.1875
1631204196812,-0.953125,-0.21875,0.1875
1631204196843,-0.953125,-0.21875,0.1875
1631204196875,-0.953125,-0.21875,0.1875
1631204196906,-0.953125,-0.21875,0.1875
1631204196937,-0.953125,-0.21875,0.1875
1631204196968,-0.953125,-0.21875,0.1875
1631204197000,-0.953125,-0.21875,0.1875
1631204197031,-0.953125,-0.234375,0.1875
1631204197062,-0.953125,-0.21875,0.1875
1631204197093,-0.953125,-0.21875,0.1875
1631204197125,-0.953125,-0.21875,0.1875
1631204197156,-0.96875,-0.21875,0.1875
1631204197187,-0.96875,-0.21875,0.1875
1631204197218,-0.953125,-0.21875,0.1875
1631204197250,-0.953125,-0.21875,0.203125
1631204197281,-0.96875,-0.21875,0.1875
1631204197312,-0.953125,-0.21875,0.1875
1631204197343,-0.953125,-0.21875,0.1875
1631204197375,-0.953125,-0.21875,0.1875
1631204197406,-0.96875,-0.21875,0.1875
1631204197437,-0.953125,-0.21875,0.1875
1631204197468,-0.953125,-0.21875,0.1875
1631204197500,-0.96875,-0.21875,0.1875
1631204197531,-0.953125,-0.21875,0.1875
1631204197562,-0.953125,-0.21875,0.1875
1631204197593,-0.953125,-0.21875,0.1875
1631204197625,-0.96875,-0.21875,0.1875
1631204197656,-0.96875,-0.21875,0.1875
1631204197687,-0.96875,-0.21875,0.1875
1631204197718,-0.953125,-0.21875,0.1875
1631204197750,-0.96875,-0.21875,0.1875
1631204197781,-0.953125,-0.21875,0.1875
1631204197812,-0.953125,-0.21875,0.1875
1631204197843,-0.96875,-0.21875,0.1875
1631204197875,-0.953125,-0.21875,0.1875
1631204197906,-0.953125,-0.21875,0.1875
1631204197937,-0.953125,-0.21875,0.1875
1631204197968,-0.96875,-0.21875,0.1875
1631204198000,-0.96875,-0.21875,0.1875
1631204198031,-0.953125,-0.21875,0.1875
1631204198062,-0.953125,-0.21875,0.1875
1631204198093,-0.953125,-0.21875,0.1875
1631204198125,-0.953125,-0.21875,0.1875
1631204198156,-0.96875,-0.21875,0.1875
1631204198187,-0.96875,-0.21875,0.1875
1631204198218,-0.953125,-0.21875,0.1875
1631204198250,-0.96875,-0.21875,0.1875
1631204198281,-0.953125,-0.21875,0.1875
1631204198312,-0.953125,-0.21875,0.1875
1631204198343,-0.96875,-0.21875,0.1875
1631204198375,-0.96875,-0.21875,0.1875
1631204198406,-0.953125,-0.21875,0.1875
1631204198437,-0.953125,-0.21875,0.1875
1631204198468,-0.96875,-0.21875,0.1875
1631204198500,-0.953125,-0.21875,0.1875
1631204198531,-0.953125,-0.21875,0.1875
1631204198562,-0.96875,-0.21875,0.1875
1631204198593,-0.96875,-0.21875,0.1875
1631204198625,-0.96875,-0.21875,0.1875
1631204198656,-0.953125,-0.21875,0.1875
1631204198687,-0.953125,-0.21875,0.1875
1631204198718,-0.96875,-0.21875,0.1875
1631204198750,-0.96875,-0.21875,0.1875
1631204198781,-0.96875,-0.21875,0.1875
1631204198812,-0.953125,-0.21875,0.1875
1631204198843,-0.953125,-0.21875,0.1875
1631204198875,-0.953125,-0.21875,0.1875
1631204198906,-0.953125,-0.21875,0.1875
1631204198937,-0.953125,-0.21875,0.1875
1631204198968,-0.96875,-0.21875,0.1875
1631204199000,-0.96875,-0.21875,0.1875
1631204199031,-0.953125,-0.21875,0.1875
1631204199062,-0.96875,-0.21875,0.1875
1631204199093,-0.953125,-0.21875,0.1875
1631204199125,-0.953125,-0.21875,0.1875
1631204199156,-0.953125,-0.21875,0.1875
1631204199187,-0.953125,-0.21875,0.1875
1631204199218,-0.953125,-0.21875,0.1875
1631204199250,-0.96875,-0.21875,0.1875
1631204199281,-0.953125,-0.21875,0.1875
1631204199312,-0.953125,-0.21875,0.1875
1631204199343,-0.953125,-0.21875,0.1875
1631204199375,-0.953125,-0.21875,0.1875
1631204199406,-0.96875,-0.21875,0.1875
1631204199437,-0.953125,-0.21875,0.203125
1631204199468,-0.96875,-0.21875,0.1875
1631204199500,-0.953125,-0.21875,0.1875
1631204199531,-0.953125,-0.21875,0.1875
1631204199562,-0.953125,-0.21875,0.1875
1631204199593,-0.96875,-0.21875,0.1875
1631204199625,-0.96875,-0.21875,0.1875
1631204199656,-0.96875,-0.21875,0.1875
1631204199687,-0.953125,-0.21875,0.1875
1631204199718,-0.96875,-0.21875,0.1875
1631204199750,-0.953125,-0.21875,0.1875
1631204199781,-0.953125,-0.21875,0.1875
1631204199812,-0.953125,-0.21875,0.1875
1631204199843,-0.96875,-0.21875,0.1875
1631204199875,-0.953125,-0.21875,0.1875
1631204199906,-0.96875,-0.21875,0.1875
1631204199937,-0.96875,-0.21875,0.1875
1631204199968,-0.953125,-0.21875,0.1875
1631204200000,-0.953125,-0.21875,0.1875
1631204200031,-0.953125,-0.21875,0.1875
1631204200062,-0.953125,-0.21875,0.1875
1631204200093,-0.96875,-0.21875,0.1875
1631204200125,-0.953125,-0.21875,0.1875
1631204200156,-0.953125,-0.21875,0.1875
1631204200187,-0.96875,-0.21875,0.1875
1631204200218,-0.953125,-0.21875,0.1875
1631204200250,-0.96875,-0.21875,0.1875
1631204200281,-0.96875,-0.21875,0.1875
1631204200312,-0.96875,-0.21875,0.1875
1631204200343,-0.96875,-0.21875,0.1875
1631204200375,-0.953125,-0.21875,0.1875
1631204200406,-0.953125,-0.21875,0.1875
1631204200437,-0.953125,-0.21875,0.1875
1631204200468,-0.953125,-0.21875,0.1875
1631204200500,-0.96875,-0.21875,0.1875
1631204200531,-0.96875,-0.21875,0.1875
1631204200562,-0.953125,-0.21875,0.1875
1631204200593,-0.953125,-0.21875,0.1875
1631204200625,-0.953125,-0.21875,0.1875
1631204200656,-0.953125,-0.21875,0.203125
1631204200687,-0.96875,-0.21875,0.1875
1631204200718,-0.953125,-0.21875,0.1875
1631204200750,-0.953125,-0.21875,0.1875
1631204200781,-0.953125,-0.21875,0.1875
1631204200812,-0.96875,-0.21875,0.1875
1631204200843,-0.953125,-0.21875,0.1875
1631204200875,-0.96875,-0.21875,0.1875
1631204200906,-0.96875,-0.21875,0.1875
1631204200937,-0.953125,-0.21875,0.1875
1631204200968,-0.953125,-0.21875,0.1875
1631204201000,-0.953125,-0.21875,0.1875
1631204201031,-0.96875,-0.21875,0.1875
1631204201062,-0.96875,-0.21875,0.1875
1631204201093,-0.953125,-0.21875,0.1875
1631204201125,-0.953125,-0.21875,0.1875
1631204201156,-0.953125,-0.21875,0.1875
1631204201187,-0.96875,-0.21875,0.1875
1631204201218,-0.953125,-0.21875,0.1875
1631204201250,-0.953125,-0.21875,0.1875
1631204201281,-0.953125,-0.21875,0.203125
1631204201312,-0.953125,-0.21875,0.1875
1631204201343,-0.953125,-0.21875,0.1875
1631204201375,-0.953125,-0.21875,0.1875
1631204201406,-0.96875,-0.21875,0.1875
1631204201437,-0.96875,-0.21875,0.1875
1631204201468,-0.953125,-0.21875,0.1875
1631204201500,-0.953125,-0.21875,0.1875
1631204201531,-0.953125,-0.21875,0.1875
1631204201562,-0.953125,-0.21875,0.1875
1631204201593,-0.953125,-0.21875,0.1875
1631204201625,-0.96875,-0.21875,0.1875
1631204201656,-0.96875,-0.21875,0.203125
1631204201687,-0.953125,-0.21875,0.1875
1631204201718,-0.953125,-0.21875,0.1875
1631204201750,-0.953125,-0.21875,0.1875
1631204201781,-0.953125,-0.21875,0.1875
1631204201812,-0.953125,-0.21875,0.1875
1631204201843,-0.953125,-0.21875,0.203125
1631204201875,-0.953125,-0.21875,0.1875
1631204201906,-0.953125,-0.21875,0.1875
1631204201937,-0.953125,-0.21875,0.203125
1631204201968,-0.953125,-0.21875,0.1875
1631204202000,-0.953125,-0.21875,0.203125
1631204202031,-0.953125,-0.21875,0.1875
1631204202062,-0.96875,-0.21875,0.203125
1631204202093,-0.953125,-0.21875,0.203125
1631204202125,-0.96875,-0.21875,0.1875
1631204202156,-0.953125,-0.21875,0.203125
1631204202187,-0.953125,-0.21875,0.1875
1631204202218,-0.953125,-0.21875,0.1875
1631204202250,-0.953125,-0.21875,0.203125
1631204202281,-0.953125,-0.21875,0.203125
1631204202312,-0.96875,-0.21875,0.1875
1631204202343,-0.953125,-0.21875,0.203125
1631204202375,-0.953125,-0.21875,0.203125
1631204202406,-0.953125,-0.21875,0.1875
1631204202437,-0.953125,-0.21875,0.203125
1631204202468,-0.953125,-0.21875,0.1875
1631204202500,-0.96875,-0.21875,0.1875
1631204202531,-0.953125,-0.21875,0.1875
1631204202562,-0.96875,-0.21875,0.1875
1631204202593,-0.953125,-0.21875,0.1875
1631204202625,-0.953125,-0.21875,0.1875
1631204202656,-0.953125,-0.21875,0.1875
1631204202687,-0.96875,-0.21875,0.1875
1631204202718,-0.96875,-0.21875,0.1875
1631204202750,-0.953125,-0.21875,0.1875
1631204202781,-0.953125,-0.21875,0.1875
1631204202812,-0.96875,-0.21875,0.1875
1631204202843,-0.96875,-0.21875,0.1875
1631204202875,-0.953125,-0.21875,0.1875
1631204202906,-0.96875,-0.21875,0.1875
1631204202937,-0.96875,-0.21875,0.1875
1631204202968,-0.953125,-0.21875,0.1875
1631204203000,-0.953125,-0.21875,0.203125
1631204203031,-0.9375,-0.21875,0.203125
1631204203062,-0.953125,-0.21875,0.203125
1631204203093,-0.96875,-0.21875,0.203125
1631204203125,-0.96875,-0.21875,0.1875
1631204203156,-0.9375,-0.21875,0.21875
1631204203187,-0.9375,-0.21875,0.203125
1631204203218,-0.96875,-0.21875,0.1875
1631204203250,-0.96875,-0.21875,0.203125
1631204203281,-0.953125,-0.21875,0.1875
1631204203312,-0.953125,-0.21875,0.1875
1631204203343,-0.9375,-0.21875,0.1875
1631204203375,-0.953125,-0.21875,0.203125
1631204203406,-0.953125,-0.21875,0.203125
1631204203437,-0.984375,-0.21875,0.1875
1631204203468,-0.96875,-0.21875,0.1875
1631204203500,-0.953125,-0.21875,0.203125
1631204203531,-0.96875,-0.21875,0.203125
1631204203562,-0.953125,-0.21875,0.203125
1631204203593,-0.96875,-0.21875,0.171875
1631204203625,-0.953125,-0.21875,0.1875
1631204203656,-0.953125,-0.21875,0.203125
1631204203687,-0.953125,-0.21875,0.203125
1631204203718,-0.953125,-0.21875,0.203125
1631204203750,-0.953125,-0.21875,0.1875
1631204203781,-0.953125,-0.21875,0.203125
1631204203812,-0.96875,-0.21875,0.1875
1631204203843,-0.953125,-0.21875,0.1875
1631204203875,-0.953125,-0.21875,0.203125
1631204203906,-0.953125,-0.21875,0.1875
1631204203937,-0.953125,-0.21875,0.203125
1631204203968,-0.953125,-0.21875,0.203125
1631204204000,-0.953125,-0.21875,0.1875
1631204204031,-0.953125,-0.21875,0.1875
1631204204062,-0.96875,-0.21875,0.1875
1631204204093,-0.953125,-0.21875,0.203125
1631204204125,-0.953125,-0.21875,0.1875
1631204204156,-0.96875,-0.21875,0.1875
1631204204187,-0.953125,-0.21875,0.203125
1631204204218,-0.953125,-0.21875,0.1875
1631204204250,-0.953125,-0.21875,0.1875
1631204204281,-0.953125,-0.21875,0.1875
1631204204312,-0.96875,-0.21875,0.1875
1631204204343,-0.96875,-0.21875,0.1875
1631204204375,-0.953125,-0.21875,0.1875
1631204204406,-0.953125,-0.21875,0.203125
1631204204437,-0.953125,-0.21875,0.1875
1631204204468,-0.953125,-0.21875,0.203125
1631204204500,-0.953125,-0.21875,0.203125
1631204204531,-0.953125,-0.21875,0.1875
1631204204562,-0.953125,-0.21875,0.203125
1631204204593,-0.953125,-0.21875,0.203125
1631204204625,-0.953125,-0.21875,0.203125
1631204204656,-0.96875,-0.21875,0.203125
1631204204687,-0.96875,-0.21875,0.1875
1631204204718,-0.96875,-0.21875,0.1875
1631204204750,-0.953125,-0.21875,0.203125
1631204204781,-0.953125,-0.21875,0.203125
1631204204812,-0.953125,-0.21875,0.21875
1631204204843,-0.9375,-0.234375,0.21875
1631204204875,-0.9375,-0.21875,0.21875
1631204204906,-0.984375,-0.21875,0.1875
1631204204937,-1.0,-0.21875,0.1875
1631204204968,-0.921875,-0.21875,0.25
1631204205000,-0.96875,-0.234375,0.203125
1631204205031,-0.984375,-0.234375,0.1875
1631204205062,-0.9375,-0.21875,0.203125
1631204205093,-0.953125,-0.21875,0.21875
1631204205125,-0.953125,-0.21875,0.21875
1631204205156,-0.96875,-0.21875,0.171875
1631204205187,-0.953125,-0.21875,0.1875
1631204205218,-0.953125,-0.21875,0.171875
1631204205250,-0.96875,-0.21875,0.15625
1631204205281,-0.953125,-0.21875,0.1875
1631204205312,-0.953125,-0.21875,0.203125
1631204205343,-0.953125,-0.21875,0.203125
1631204205375,-0.96875,-0.21875,0.171875
1631204205406,-0.953125,-0.21875,0.1875
1631204205437,-0.96875,-0.21875,0.1875
1631204205468,-0.953125,-0.21875,0.203125
1631204205500,-0.96875,-0.21875,0.1875
1631204205531,-0.96875,-0.21875,0.1875
1631204205562,-0.953125,-0.21875,0.203125
1631204205593,-0.953125,-0.21875,0.203125
1631204205625,-0.953125,-0.21875,0.203125
1631204205656,-0.96875,-0.21875,0.203125
1631204205687,-0.953125,-0.21875,0.21875
1631204205718,-0.9375,-0.21875,0.21875
1631204205750,-0.953125,-0.21875,0.21875
1631204205781,-0.953125,-0.21875,0.21875
1631204205812,-0.953125,-0.21875,0.21875
1631204205843,-0.953125,-0.234375,0.21875
1631204205875,-0.953125,-0.21875,0.21875
1631204205906,-0.953125,-0.21875,0.234375
1631204205937,-0.96875,-0.21875,0.203125
1631204205968,-0.953125,-0.21875,0.21875
1631204206000,-0.953125,-0.21875,0.21875
1631204206031,-0.96875,-0.21875,0.21875
1631204206062,-0.96875,-0.21875,0.21875
1631204206093,-0.953125,-0.234375,0.21875
1631204206125,-0.953125,-0.21875,0.203125
1631204206156,-0.890625,-0.234375,0.28125
1631204206187,-0.953125,-0.21875,0.234375
1631204206218,-0.9375,-0.21875,0.25
1631204206250,-0.90625,-0.21875,0.328125
1631204206281,-0.921875,-0.203125,0.21875
1631204206312,-1.015625,-0.21875,0.15625
1631204206343,-0.953125,-0.234375,0.203125
1631204206375,-0.890625,-0.234375,0.265625
1631204206406,-0.984375,-0.203125,0.140625
1631204206437,-0.96875,-0.234375,0.21875
1631204206468,-0.96875,-0.234375,0.21875
1631204206500,-0.90625,-0.21875,0.1875
1631204206531,-0.984375,-0.234375,0.140625
1631204206562,-0.984375,-0.21875,0.15625
1631204206593,-0.96875,-0.21875,0.15625
1631204206625,-0.953125,-0.234375,0.171875
1631204206656,-0.96875,-0.203125,0.125
1631204206687,-0.9375,-0.21875,0.171875
1631204206718,-0.921875,-0.21875,0.171875
1631204206750,-1.0,-0.234375,0.109375
1631204206781,-1.015625,-0.21875,0.109375
1631204206812,-1.0,-0.21875,0.125
1631204206843,-0.96875,-0.203125,0.140625
1631204206875,-0.96875,-0.203125,0.140625
1631204206906,-0.96875,-0.21875,0.140625
1631204206937,-0.96875,-0.21875,0.140625
1631204206968,-0.96875,-0.21875,0.125
1631204207000,-0.96875,-0.21875,0.140625
1631204207031,-0.96875,-0.21875,0.140625
1631204207062,-0.96875,-0.21875,0.140625
1631204207093,-0.96875,-0.21875,0.140625
1631204207125,-0.96875,-0.21875,0.140625
1631204207156,-0.96875,-0.21875,0.140625
1631204207187,-0.96875,-0.21875,0.140625
1631204207218,-0.96875,-0.21875,0.140625
1631204207250,-0.96875,-0.21875,0.140625
1631204207281,-0.96875,-0.21875,0.140625
1631204207312,-0.96875,-0.21875,0.140625
1631204207343,-0.96875,-0.21875,0.15625
1631204207375,-0.96875,-0.21875,0.15625
1631204207406,-0.96875,-0.21875,0.15625
1631204207437,-0.96875,-0.21875,0.15625
1631204207468,-0.96875,-0.21875,0.15625
1631204207500,-0.96875,-0.21875,0.15625
1631204207531,-0.96875,-0.21875,0.140625
1631204207562,-0.96875,-0.21875,0.140625
1631204207593,-0.96875,-0.21875,0.140625
1631204207625,-0.96875,-0.21875,0.140625
1631204207656,-0.96875,-0.21875,0.140625
1631204207687,-0.96875,-0.21875,0.140625
1631204207718,-0.96875,-0.21875,0.140625
1631204207750,-0.96875,-0.21875,0.140625
1631204207781,-0.96875,-0.21875,0.140625
1631204207812,-0.96875,-0.21875,0.140625
1631204207843,-0.96875,-0.21875,0.140625
1631204207875,-0.96875,-0.21875,0.140625
1631204207906,-0.96875,-0.21875,0.140625
1631204207937,-0.96875,-0.21875,0.140625
1631204207968,-0.96875,-0.21875,0.140625
1631204208000,-0.96875,-0.21875,0.140625
1631204208031,-0.96875,-0.21875,0.140625
1631204208062,-0.96875,-0.21875,0.140625
1631204208093,-0.96875,-0.21875,0.140625
1631204208125,-0.96875,-0.21875,0.140625
1631204208156,-0.96875,-0.21875,0.140625
1631204208187,-0.96875,-0.21875,0.140625
1631204208218,-0.96875,-0.21875,0.15625
1631204208250,-0.96875,-0.21875,0.140625
1631204208281,-0.96875,-0.21875,0.15625
1631204208312,-0.96875,-0.21875,0.140625
1631204208343,-0.96875,-0.21875,0.15625
1631204208375,-0.96875,-0.21875,0.15625
1631204208406,-0.96875,-0.21875,0.140625
1631204208437,-0.96875,-0.21875,0.140625
1631204208468,-0.96875,-0.21875,0.15625
1631204208500,-0.96875,-0.21875,0.15625
1631204208531,-0.96875,-0.21875,0.140625
1631204208562,-0.96875,-0.21875,0.140625
1631204208593,-0.96875,-0.21875,0.140625
1631204208625,-0.96875,-0.21875,0.140625
1631204208656,-0.96875,-0.21875,0.140625
1631204208687,-0.96875,-0.21875,0.140625
1631204208718,-0.96875,-0.21875,0.140625
1631204208750,-0.96875,-0.21875,0.140625
1631204208781,-0.96875,-0.21875,0.140625
1631204208812,-0.96875,-0.21875,0.140625
1631204208843,-0.96875,-0.21875,0.140625
1631204208875,-0.96875,-0.21875,0.140625
1631204208906,-0.96875,-0.21875,0.140625
1631204208937,-0.96875,-0.21875,0.140625
1631204208968,-0.96875,-0.21875,0.15625
1631204209000,-0.96875,-0.21875,0.15625
1631204209031,-0.96875,-0.21875,0.140625
1631204209062,-0.96875,-0.21875,0.140625
1631204209093,-0.96875,-0.21875,0.140625
1631204209125,-0.96875,-0.21875,0.140625
1631204209156,-0.96875,-0.21875,0.140625
1631204209187,-0.96875,-0.21875,0.140625
1631204209218,-0.96875,-0.21875,0.15625
1631204209250,-0.96875,-0.21875,0.140625
1631204209281,-0.96875,-0.21875,0.15625
1631204209312,-0.96875,-0.21875,0.15625
1631204209343,-0.96875,-0.21875,0.15625
1631204209375,-0.96875,-0.21875,0.15625
1631204209406,-0.96875,-0.21875,0.140625
1631204209437,-0.96875,-0.21875,0.15625
1631204209468,-0.96875,-0.21875,0.15625
1631204209500,-0.96875,-0.21875,0.140625
1631204209531,-0.96875,-0.21875,0.140625
1631204209562,-0.96875,-0.21875,0.140625
1631204209593,-0.96875,-0.21875,0.140625
1631204209625,-0.96875,-0.21875,0.140625
1631204209656,-0.96875,-0.21875,0.140625
1631204209687,-0.96875,-0.21875,0.140625
1631204209718,-0.96875,-0.21875,0.140625
1631204209750,-0.96875,-0.21875,0.140625
1631204209781,-0.96875,-0.21875,0.140625
1631204209812,-0.96875,-0.21875,0.140625
1631204209843,-0.96875,-0.21875,0.15625
1631204209875,-0.96875,-0.21875,0.140625
1631204209906,-0.96875,-0.21875,0.140625
1631204209937,-0.953125,-0.21875,0.15625
1631204209968,-0.96875,-0.21875,0.15625
1631204210000,-0.96875,-0.21875,0.15625
1631204210031,-0.96875,-0.21875,0.140625
1631204210062,-0.96875,-0.21875,0.15625
1631204210093,-0.96875,-0.21875,0.125
1631204210125,-0.96875,-0.21875,0.140625
1631204210156,-0.96875,-0.21875,0.140625
1631204210187,-0.96875,-0.21875,0.15625
1631204210218,-0.96875,-0.21875,0.140625
1631204210250,-0.96875,-0.21875,0.140625
1631204210281,-0.96875,-0.21875,0.140625
1631204210312,-0.96875,-0.203125,0.140625
1631204210343,-0.96875,-0.203125,0.140625
1631204210375,-0.96875,-0.21875,0.140625
1631204210406,-0.984375,-0.21875,0.140625
1631204210437,-0.96875,-0.203125,0.140625
1631204210468,-0.96875,-0.21875,0.125
1631204210500,-0.96875,-0.21875,0.140625
1631204210531,-0.96875,-0.21875,0.140625
1631204210562,-0.953125,-0.21875,0.15625
1631204210593,-0.96875,-0.21875,0.140625
1631204210625,-0.96875,-0.21875,0.125
1631204210656,-0.96875,-0.21875,0.125
1631204210687,-0.96875,-0.21875,0.125
1631204210718,-0.96875,-0.21875,0.140625
1631204210750,-0.96875,-0.21875,0.125
1631204210781,-0.96875,-0.21875,0.15625
1631204210812,-0.96875,-0.203125,0.125
1631204210843,-0.984375,-0.21875,0.109375
1631204210875,-0.953125,-0.234375,0.125
1631204210906,-0.96875,-0.21875,0.140625
1631204210937,-0.96875,-0.21875,0.125
1631204210968,-0.96875,-0.21875,0.125
1631204211000,-0.96875,-0.21875,0.125
1631204211031,-0.984375,-0.21875,0.125
1631204211062,-0.96875,-0.21875,0.125
1631204211093,-0.96875,-0.21875,0.125
1631204211125,-0.96875,-0.21875,0.125
1631204211156,-0.96875,-0.21875,0.125
1631204211187,-0.96875,-0.21875,0.125
1631204211218,-0.96875,-0.21875,0.125
1631204211250,-0.96875,-0.21875,0.140625
1631204211281,-0.96875,-0.21875,0.140625
1631204211312,-0.96875,-0.21875,0.125
1631204211343,-0.96875,-0.21875,0.140625
1631204211375,-0.96875,-0.21875,0.125
1631204211406,-0.96875,-0.21875,0.125
1631204211437,-0.96875,-0.21875,0.125
1631204211468,-0.96875,-0.21875,0.140625
1631204211500,-0.96875,-0.21875,0.140625
1631204211531,-0.96875,-0.21875,0.140625
1631204211562,-0.96875,-0.21875,0.140625
1631204211593,-0.96875,-0.21875,0.125
1631204211625,-0.96875,-0.21875,0.140625
1631204211656,-0.96875,-0.21875,0.125
1631204211687,-0.96875,-0.21875,0.140625
1631204211718,-0.96875,-0.21875,0.125
1631204211750,-0.96875,-0.21875,0.125
1631204211781,-0.96875,-0.21875,0.140625
1631204211812,-0.96875,-0.21875,0.140625
1631204211843,-0.984375,-0.21875,0.125
1631204211875,-0.96875,-0.21875,0.125
1631204211906,-0.96875,-0.21875,0.140625
1631204211937,-0.96875,-0.21875,0.140625
1631204211968,-0.96875,-0.21875,0.140625
1631204212000,-0.96875,-0.21875,0.140625
1631204212031,-0.96875,-0.21875,0.140625
1631204212062,-0.96875,-0.21875,0.140625
1631204212093,-0.96875,-0.21875,0.140625
1631204212125,-0.96875,-0.203125,0.15625
1631204212156,-0.984375,-0.21875,0.09375
1631204212187,-0.96875,-0.21875,0.125
1631204212218,-0.96875,-0.21875,0.125
1631204212250,-0.96875,-0.21875,0.125
1631204212281,-0.96875,-0.21875,0.125
1631204212312,-0.96875,-0.21875,0.125
1631204212343,-0.96875,-0.21875,0.125
1631204212375,-0.96875,-0.21875,0.125
1631204212406,-0.96875,-0.21875,0.125
1631204212437,-0.96875,-0.21875,0.125
1631204212468,-0.96875,-0.21875,0.125
1631204212500,-0.96875,-0.21875,0.140625
1631204212531,-0.96875,-0.21875,0.140625
1631204212562,-0.96875,-0.21875,0.140625
1631204212593,-0.96875,-0.21875,0.125
1631204212625,-0.96875,-0.21875,0.140625
1631204212656,-0.96875,-0.21875,0.140625
1631204212687,-0.96875,-0.21875,0.140625
1631204212718,-0.96875,-0.21875,0.140625
1631204212750,-0.96875,-0.21875,0.140625
1631204212781,-0.96875,-0.21875,0.140625
1631204212812,-0.96875,-0.21875,0.140625
1631204212843,-0.96875,-0.21875,0.125
1631204212875,-0.96875,-0.21875,0.140625
1631204212906,-0.96875,-0.21875,0.125
1631204212937,-0.96875,-0.21875,0.140625
1631204212968,-0.96875,-0.21875,0.125
1631204213000,-0.96875,-0.21875,0.140625
1631204213031,-0.96875,-0.21875,0.15625
1631204213062,-0.96875,-0.21875,0.125
1631204213093,-0.96875,-0.234375,0.125
1631204213125,-0.96875,-0.21875,0.125
1631204213156,-0.984375,-0.21875,0.125
1631204213187,-0.96875,-0.21875,0.140625
1631204213218,-0.96875,-0.21875,0.140625
1631204213250,-0.96875,-0.21875,0.15625
1631204213281,-0.96875,-0.21875,0.125
1631204213312,-0.96875,-0.21875,0.125
1631204213343,-0.984375,-0.21875,0.125
1631204213375,-0.96875,-0.21875,0.125
1631204213406,-0.96875,-0.21875,0.125
1631204213437,-0.96875,-0.21875,0.15625
1631204213468,-0.96875,-0.21875,0.140625
1631204213500,-0.96875,-0.21875,0.140625
1631204213531,-0.984375,-0.21875,0.140625
1631204213562,-0.96875,-0.21875,0.140625
1631204213593,-0.96875,-0.21875,0.15625
1631204213625,-0.96875,-0.21875,0.125
1631204213656,-0.984375,-0.21875,0.09375
1631204213687,-0.953125,-0.21875,0.15625
1631204213718,-0.953125,-0.21875,0.15625
1631204213750,-0.96875,-0.21875,0.15625
1631204213781,-0.984375,-0.21875,0.140625
1631204213812,-0.96875,-0.203125,0.140625
1631204213843,-0.96875,-0.21875,0.140625
1631204213875,-0.96875,-0.21875,0.140625
1631204213906,-0.96875,-0.21875,0.125
1631204213937,-0.96875,-0.21875,0.125
1631204213968,-0.96875,-0.21875,0.140625
1631204214000,-0.953125,-0.203125,0.15625
1631204214031,-0.953125,-0.21875,0.171875
1631204214062,-0.96875,-0.21875,0.140625
1631204214093,-0.96875,-0.21875,0.15625
1631204214125,-0.953125,-0.21875,0.15625
1631204214156,-0.96875,-0.21875,0.140625
1631204214187,-0.96875,-0.21875,0.125
1631204214218,-0.96875,-0.21875,0.140625
1631204214250,-0.96875,-0.21875,0.140625
1631204214281,-0.96875,-0.21875,0.140625
1631204214312,-0.96875,-0.21875,0.140625
1631204214343,-0.96875,-0.21875,0.140625
1631204214375,-0.96875,-0.21875,0.15625
1631204214406,-0.96875,-0.21875,0.15625
1631204214437,-0.96875,-0.21875,0.140625
1631204214468,-0.96875,-0.21875,0.15625
1631204214500,-0.96875,-0.21875,0.140625
1631204214531,-0.96875,-0.21875,0.140625
1631204214562,-0.96875,-0.21875,0.140625
1631204214593,-0.96875,-0.21875,0.15625
1631204214625,-0.96875,-0.21875,0.140625
1631204214656,-0.96875,-0.21875,0.15625
1631204214687,-0.96875,-0.21875,0.15625
1631204214718,-0.96875,-0.21875,0.15625
1631204214750,-0.96875,-0.21875,0.15625
1631204214781,-0.96875,-0.21875,0.140625
1631204214812,-0.96875,-0.21875,0.140625
1631204214843,-0.96875,-0.21875,0.15625
1631204214875,-0.96875,-0.21875,0.140625
1631204214906,-0.96875,-0.21875,0.140625
1631204214937,-0.96875,-0.21875,0.15625
1631204214968,-0.96875,-0.21875,0.140625
1631204215000,-0.96875,-0.21875,0.15625
1631204215031,-0.96875,-0.21875,0.140625
1631204215062,-0.96875,-0.21875,0.15625
1631204215093,-0.96875,-0.21875,0.15625
1631204215125,-0.96875,-0.21875,0.140625
1631204215156,-0.96875,-0.21875,0.140625
1631204215187,-0.96875,-0.21875,0.15625
1631204215218,-0.96875,-0.21875,0.15625
1631204215250,-0.96875,-0.21875,0.15625
1631204215281,-0.96875,-0.21875,0.15625
1631204215312,-0.96875,-0.21875,0.15625
1631204215343,-0.96875,-0.21875,0.140625
1631204215375,-0.96875,-0.21875,0.15625
1631204215406,-0.96875,-0.21875,0.15625
1631204215437,-0.96875,-0.21875,0.15625
1631204215468,-0.96875,-0.21875,0.15625
1631204215500,-0.96875,-0.21875,0.15625
1631204215531,-0.96875,-0.21875,0.15625
1631204215562,-0.96875,-0.21875,0.140625
1631204215593,-0.96875,-0.21875,0.15625
1631204215625,-0.96875,-0.21875,0.15625
1631204215656,-0.96875,-0.21875,0.15625
1631204215687,-0.96875,-0.21875,0.140625
1631204215718,-0.96875,-0.21875,0.15625
1631204215750,-0.96875,-0.21875,0.15625
1631204215781,-0.96875,-0.21875,0.140625
1631204215812,-0.96875,-0.21875,0.15625
1631204215843,-0.96875,-0.21875,0.15625
1631204215875,-0.96875,-0.21875,0.15625
1631204215906,-0.96875,-0.21875,0.15625
1631204215937,-0.96875,-0.21875,0.15625
1631204215968,-0.96875,-0.21875,0.15625
1631204216000,-0.96875,-0.21875,0.15625
1631204216031,-0.96875,-0.21875,0.15625
1631204216062,-0.96875,-0.21875,0.15625
1631204216093,-0.96875,-0.21875,0.15625
1631204216125,-0.96875,-0.21875,0.15625
1631204216156,-0.96875,-0.21875,0.15625
1631204216187,-0.96875,-0.21875,0.140625
1631204216218,-0.96875,-0.21875,0.140625
1631204216250,-0.96875,-0.21875,0.15625
1631204216281,-0.96875,-0.21875,0.15625
1631204216312,-0.96875,-0.21875,0.15625
1631204216343,-0.96875,-0.21875,0.15625
1631204216375,-0.96875,-0.21875,0.15625
1631204216406,-0.96875,-0.21875,0.15625
1631204216437,-0.96875,-0.21875,0.140625
1631204216468,-0.96875,-0.21875,0.15625
1631204216500,-0.96875,-0.21875,0.15625
1631204216531,-0.96875,-0.21875,0.15625
1631204216562,-0.96875,-0.21875,0.15625
1631204216593,-0.96875,-0.21875,0.15625
1631204216625,-0.96875,-0.21875,0.15625
1631204216656,-0.96875,-0.21875,0.15625
1631204216687,-0.96875,-0.21875,0.15625
1631204216718,-0.96875,-0.21875,0.15625
1631204216750,-0.96875,-0.21875,0.15625
1631204216781,-0.96875,-0.21875,0.15625
1631204216812,-0.96875,-0.21875,0.15625
1631204216843,-0.96875,-0.21875,0.140625
1631204216875,-0.96875,-0.21875,0.15625
1631204216906,-0.953125,-0.21875,0.15625
1631204216937,-0.96875,-0.21875,0.15625
1631204216968,-0.96875,-0.21875,0.15625
1631204217000,-0.96875,-0.21875,0.140625
1631204217031,-0.96875,-0.21875,0.15625
1631204217062,-0.96875,-0.21875,0.15625
1631204217093,-0.96875,-0.21875,0.171875
1631204217125,-0.96875,-0.21875,0.140625
1631204217156,-0.96875,-0.21875,0.140625
1631204217187,-0.96875,-0.21875,0.140625
1631204217218,-0.96875,-0.21875,0.140625
1631204217250,-0.96875,-0.21875,0.140625
1631204217281,-0.96875,-0.21875,0.15625
1631204217312,-0.96875,-0.21875,0.15625
1631204217343,-0.953125,-0.21875,0.171875
1631204217375,-0.984375,-0.21875,0.125
1631204217406,-0.96875,-0.21875,0.140625
1631204217437,-0.96875,-0.21875,0.15625
1631204217468,-0.96875,-0.21875,0.15625
1631204217500,-0.96875,-0.21875,0.15625
1631204217531,-0.953125,-0.21875,0.171875
1631204217562,-0.953125,-0.21875,0.171875
1631204217593,-0.96875,-0.21875,0.15625
1631204217625,-0.96875,-0.21875,0.140625
1631204217656,-0.96875,-0.21875,0.140625
1631204217687,-0.96875,-0.21875,0.15625
1631204217718,-0.96875,-0.21875,0.15625
1631204217750,-0.96875,-0.21875,0.140625
1631204217781,-0.96875,-0.21875,0.140625
1631204217812,-0.96875,-0.21875,0.15625
1631204217843,-0.96875,-0.203125,0.15625
1631204217875,-0.96875,-0.21875,0.15625
1631204217906,-0.96875,-0.21875,0.15625
1631204217937,-0.96875,-0.21875,0.15625
1631204217968,-0.96875,-0.21875,0.140625
1631204218000,-0.953125,-0.203125,0.171875
1631204218031,-0.953125,-0.203125,0.171875
1631204218062,-0.96875,-0.21875,0.15625
1631204218093,-0.953125,-0.21875,0.15625
1631204218125,-0.96875,-0.21875,0.15625
1631204218156,-0.96875,-0.203125,0.140625
1631204218187,-0.96875,-0.21875,0.140625
1631204218218,-0.96875,-0.21875,0.15625
1631204218250,-0.96875,-0.21875,0.140625
1631204218281,-0.96875,-0.21875,0.140625
1631204218312,-0.96875,-0.21875,0.140625
1631204218343,-0.96875,-0.21875,0.15625
1631204218375,-1.0,-0.21875,0.125
1631204218406,-0.9375,-0.21875,0.1875
1631204218437,-0.921875,-0.203125,0.21875
1631204218468,-0.984375,-0.203125,0.125
1631204218500,-0.96875,-0.21875,0.125
1631204218531,-0.96875,-0.21875,0.125
1631204218562,-0.96875,-0.21875,0.15625
1631204218593,-0.96875,-0.21875,0.140625
1631204218625,-0.984375,-0.21875,0.140625
1631204218656,-0.953125,-0.21875,0.171875
1631204218687,-0.953125,-0.21875,0.171875
1631204218718,-0.96875,-0.21875,0.140625
1631204218750,-0.96875,-0.21875,0.140625
1631204218781,-0.96875,-0.21875,0.140625
1631204218812,-0.96875,-0.21875,0.140625
1631204218843,-0.96875,-0.21875,0.15625
1631204218875,-0.953125,-0.21875,0.15625
1631204218906,-0.96875,-0.21875,0.15625
1631204218937,-0.96875,-0.21875,0.15625
1631204218968,-0.96875,-0.21875,0.171875
1631204219000,-0.96875,-0.21875,0.15625
1631204219031,-0.96875,-0.21875,0.140625
1631204219062,-0.96875,-0.21875,0.140625
1631204219093,-0.96875,-0.21875,0.140625
1631204219125,-0.96875,-0.21875,0.15625
1631204219156,-0.96875,-0.21875,0.15625
1631204219187,-0.96875,-0.21875,0.15625
1631204219218,-0.96875,-0.21875,0.15625
1631204219250,-0.96875,-0.21875,0.15625
1631204219281,-0.96875,-0.21875,0.15625
1631204219312,-0.96875,-0.21875,0.15625
1631204219343,-0.96875,-0.21875,0.140625
1631204219375,-0.96875,-0.21875,0.171875
1631204219406,-0.96875,-0.21875,0.15625
1631204219437,-0.96875,-0.21875,0.140625
1631204219468,-0.96875,-0.21875,0.140625
1631204219500,-0.96875,-0.21875,0.15625
1631204219531,-0.96875,-0.21875,0.15625
1631204219562,-0.96875,-0.21875,0.15625
1631204219593,-0.96875,-0.21875,0.15625
1631204219625,-0.953125,-0.21875,0.171875
1631204219656,-0.96875,-0.21875,0.140625
1631204219687,-0.96875,-0.21875,0.140625
1631204219718,-0.96875,-0.21875,0.140625
1631204219750,-0.96875,-0.21875,0.140625
1631204219781,-0.953125,-0.21875,0.15625
1631204219812,-0.96875,-0.21875,0.15625
1631204219843,-0.96875,-0.21875,0.140625
1631204219875,-0.96875,-0.21875,0.15625
1631204219906,-0.96875,-0.21875,0.15625
1631204219937,-0.96875,-0.21875,0.15625
1631204219968,-0.96875,-0.21875,0.15625
1631204220000,-0.96875,-0.21875,0.15625
1631204220031,-0.96875,-0.21875,0.140625
1631204220062,-0.96875,-0.21875,0.140625
1631204220093,-0.96875,-0.21875,0.15625
1631204220125,-0.96875,-0.21875,0.140625
1631204220156,-0.96875,-0.21875,0.15625
1631204220187,-0.96875,-0.21875,0.15625
1631204220218,-0.96875,-0.21875,0.15625
1631204220250,-0.96875,-0.21875,0.15625
1631204220281,-0.96875,-0.21875,0.15625
1631204220312,-0.96875,-0.21875,0.15625
1631204220343,-0.96875,-0.21875,0.15625
1631204220375,-0.96875,-0.21875,0.15625
1631204220406,-0.96875,-0.21875,0.15625
1631204220437,-0.96875,-0.21875,0.15625
1631204220468,-0.96875,-0.21875,0.15625
1631204220500,-0.96875,-0.21875,0.15625
1631204220531,-0.96875,-0.21875,0.15625
1631204220562,-0.96875,-0.21875,0.15625
1631204220593,-0.96875,-0.21875,0.15625
1631204220625,-0.96875,-0.21875,0.15625
1631204220656,-0.96875,-0.21875,0.15625
1631204220687,-0.96875,-0.21875,0.15625
1631204220718,-0.96875,-0.21875,0.15625
1631204220750,-0.96875,-0.21875,0.15625
1631204220781,-0.96875,-0.21875,0.15625
1631204220812,-0.96875,-0.21875,0.15625
1631204220843,-0.96875,-0.21875,0.15625
1631204220875,-0.96875,-0.21875,0.15625
1631204220906,-0.96875,-0.21875,0.15625
1631204220937,-0.96875,-0.21875,0.15625
1631204220968,-0.96875,-0.21875,0.15625
1631204221000,-0.96875,-0.21875,0.15625
1631204221031,-0.96875,-0.21875,0.15625
1631204221062,-0.96875,-0.21875,0.15625
1631204221093,-0.96875,-0.21875,0.140625
1631204221125,-0.96875,-0.21875,0.15625
1631204221156,-0.96875,-0.21875,0.15625
1631204221187,-0.96875,-0.21875,0.15625
1631204221218,-0.96875,-0.21875,0.15625
1631204221250,-0.96875,-0.21875,0.15625
1631204221281,-0.96875,-0.21875,0.15625
1631204221312,-0.96875,-0.21875,0.15625
1631204221343,-0.96875,-0.21875,0.15625
1631204221375,-0.96875,-0.21875,0.15625
1631204221406,-0.96875,-0.21875,0.15625
1631204221437,-0.96875,-0.21875,0.15625
1631204221468,-0.96875,-0.21875,0.15625
1631204221500,-0.96875,-0.21875,0.15625
1631204221531,-0.96875,-0.21875,0.15625
1631204221562,-0.96875,-0.21875,0.15625
1631204221593,-0.96875,-0.21875,0.140625
1631204221625,-0.96875,-0.21875,0.15625
1631204221656,-0.96875,-0.21875,0.15625
1631204221687,-0.96875,-0.21875,0.15625
1631204221718,-0.96875,-0.21875,0.140625
1631204221750,-0.96875,-0.21875,0.15625
1631204221781,-0.96875,-0.21875,0.15625
1631204221812,-0.96875,-0.21875,0.15625
1631204221843,-0.96875,-0.21875,0.15625
1631204221875,-0.96875,-0.21875,0.15625
1631204221906,-0.96875,-0.21875,0.15625
1631204221937,-0.96875,-0.21875,0.15625
1631204221968,-0.96875,-0.21875,0.15625
1631204222000,-0.96875,-0.21875,0.15625
1631204222031,-0.96875,-0.21875,0.15625
1631204222062,-0.96875,-0.21875,0.15625
1631204222093,-0.96875,-0.21875,0.15625
1631204222125,-0.96875,-0.21875,0.15625
1631204222156,-0.96875,-0.21875,0.15625
1631204222187,-0.96875,-0.21875,0.15625
1631204222218,-0.96875,-0.21875,0.15625
1631204222250,-0.96875,-0.21875,0.15625
1631204222281,-0.96875,-0.21875,0.15625
1631204222312,-0.96875,-0.21875,0.15625
1631204222343,-0.96875,-0.21875,0.15625
1631204222375,-0.96875,-0.21875,0.15625
1631204222406,-0.96875,-0.21875,0.15625
1631204222437,-0.96875,-0.21875,0.15625
1631204222468,-0.96875,-0.21875,0.15625
1631204222500,-0.96875,-0.21875,0.15625
1631204222531,-0.96875,-0.21875,0.15625
1631204222562,-0.96875,-0.21875,0.15625
1631204222593,-0.96875,-0.21875,0.15625
1631204222625,-0.96875,-0.21875,0.15625
1631204222656,-0.96875,-0.21875,0.15625
1631204222687,-0.96875,-0.21875,0.15625
1631204222718,-0.96875,-0.21875,0.15625
1631204222750,-0.96875,-0.21875,0.15625
1631204222781,-0.96875,-0.21875,0.15625
1631204222812,-0.96875,-0.21875,0.15625
1631204222843,-0.96875,-0.21875,0.15625
1631204222875,-0.96875,-0.21875,0.15625
1631204222906,-0.96875,-0.21875,0.15625
1631204222937,-0.96875,-0.21875,0.15625
1631204222968,-0.96875,-0.21875,0.15625
1631204223000,-0.96875,-0.21875,0.15625
1631204223031,-0.96875,-0.21875,0.15625
1631204223062,-0.96875,-0.21875,0.15625
1631204223093,-0.96875,-0.21875,0.15625
1631204223125,-0.96875,-0.21875,0.15625
1631204223156,-0.96875,-0.21875,0.15625
1631204223187,-0.96875,-0.21875,0.140625
1631204223218,-0.96875,-0.21875,0.15625
1631204223250,-0.96875,-0.21875,0.15625
1631204223281,-0.96875,-0.21875,0.15625
1631204223312,-0.96875,-0.21875,0.15625
1631204223343,-0.96875,-0.21875,0.15625
1631204223375,-0.96875,-0.21875,0.15625
1631204223406,-0.96875,-0.21875,0.15625
1631204223437,-0.96875,-0.21875,0.15625
1631204223468,-0.96875,-0.21875,0.15625
1631204223500,-0.96875,-0.21875,0.15625
1631204223531,-0.96875,-0.21875,0.15625
1631204223562,-0.96875,-0.21875,0.15625
1631204223593,-0.96875,-0.21875,0.15625
1631204223625,-0.96875,-0.21875,0.15625
1631204223656,-0.96875,-0.21875,0.15625
1631204223687,-0.96875,-0.21875,0.15625
1631204223718,-0.96875,-0.21875,0.140625
1631204223750,-0.96875,-0.21875,0.15625
1631204223781,-0.96875,-0.21875,0.15625
1631204223812,-0.96875,-0.21875,0.140625
1631204223843,-0.96875,-0.21875,0.15625
1631204223875,-0.96875,-0.21875,0.15625
1631204223906,-0.96875,-0.21875,0.15625
1631204223937,-0.96875,-0.21875,0.15625
1631204223968,-0.96875,-0.21875,0.15625
1631204224000,-0.96875,-0.21875,0.15625
1631204224031,-0.96875,-0.21875,0.140625
1631204224062,-0.96875,-0.21875,0.15625
1631204224093,-0.96875,-0.21875,0.15625
1631204224125,-0.96875,-0.21875,0.15625
1631204224156,-0.96875,-0.21875,0.15625
1631204224187,-0.96875,-0.21875,0.15625
1631204224218,-0.96875,-0.21875,0.15625
1631204224250,-0.96875,-0.21875,0.15625
1631204224281,-0.96875,-0.21875,0.140625
1631204224312,-0.96875,-0.21875,0.15625
1631204224343,-0.96875,-0.21875,0.15625
1631204224375,-0.96875,-0.21875,0.15625
1631204224406,-0.96875,-0.21875,0.15625
1631204224437,-0.96875,-0.21875,0.15625
1631204224468,-0.96875,-0.21875,0.15625
1631204224500,-0.96875,-0.21875,0.15625
1631204224531,-0.96875,-0.21875,0.15625
1631204224562,-0.96875,-0.21875,0.15625
1631204224593,-0.96875,-0.21875,0.15625
1631204224625,-0.96875,-0.21875,0.15625
1631204224656,-0.96875,-0.21875,0.15625
1631204224687,-0.96875,-0.21875,0.15625
1631204224718,-0.96875,-0.21875,0.15625
1631204224750,-0.96875,-0.21875,0.15625
1631204224781,-0.96875,-0.21875,0.140625
1631204224812,-0.96875,-0.21875,0.15625
1631204224843,-0.96875,-0.21875,0.15625
1631204224875,-0.96875,-0.21875,0.15625
1631204224906,-0.96875,-0.21875,0.140625
1631204224937,-0.96875,-0.21875,0.15625
1631204224968,-0.96875,-0.21875,0.15625
1631204225000,-0.96875,-0.21875,0.15625
1631204225031,-0.96875,-0.21875,0.15625
1631204225062,-0.96875,-0.21875,0.15625
1631204225093,-0.96875,-0.21875,0.15625
1631204225125,-0.96875,-0.21875,0.15625
1631204225156,-0.96875,-0.21875,0.15625
1631204225187,-0.96875,-0.21875,0.15625
1631204225218,-0.96875,-0.21875,0.140625
1631204225250,-0.96875,-0.21875,0.15625
1631204225281,-0.96875,-0.21875,0.140625
1631204225312,-0.96875,-0.21875,0.140625
1631204225343,-0.96875,-0.21875,0.15625
1631204225375,-0.96875,-0.21875,0.15625
1631204225406,-0.96875,-0.21875,0.15625
1631204225437,-0.96875,-0.21875,0.15625
1631204225468,-0.96875,-0.21875,0.15625
1631204225500,-0.96875,-0.21875,0.15625
1631204225531,-0.96875,-0.21875,0.15625
1631204225562,-0.96875,-0.21875,0.15625
1631204225593,-0.96875,-0.21875,0.15625
1631204225625,-0.96875,-0.21875,0.15625
1631204225656,-0.96875,-0.21875,0.15625
1631204225687,-0.96875,-0.21875,0.140625
1631204225718,-0.96875,-0.21875,0.15625
1631204225750,-0.96875,-0.21875,0.15625
1631204225781,-0.96875,-0.21875,0.15625
1631204225812,-0.96875,-0.21875,0.140625
1631204225843,-0.96875,-0.21875,0.15625
1631204225875,-0.96875,-0.21875,0.15625
1631204225906,-0.96875,-0.21875,0.15625
1631204225937,-0.96875,-0.21875,0.15625
1631204225968,-0.96875,-0.21875,0.15625
1631204226000,-0.96875,-0.21875,0.15625
1631204226031,-0.96875,-0.21875,0.15625
1631204226062,-0.96875,-0.21875,0.15625
1631204226093,-0.96875,-0.21875,0.140625
1631204226125,-0.96875,-0.21875,0.140625
1631204226156,-0.96875,-0.21875,0.15625
1631204226187,-0.96875,-0.21875,0.15625
1631204226218,-0.96875,-0.21875,0.15625
1631204226250,-0.96875,-0.21875,0.15625
1631204226281,-0.96875,-0.21875,0.15625
1631204226312,-0.96875,-0.21875,0.15625
1631204226343,-0.96875,-0.21875,0.15625
1631204226375,-0.96875,-0.21875,0.15625
1631204226406,-0.96875,-0.21875,0.15625
1631204226437,-0.96875,-0.21875,0.15625
1631204226468,-0.96875,-0.21875,0.140625
1631204226500,-0.96875,-0.21875,0.15625
1631204226531,-0.96875,-0.21875,0.15625
1631204226562,-0.96875,-0.21875,0.15625
1631204226593,-0.96875,-0.21875,0.15625
1631204226625,-0.96875,-0.21875,0.15625
1631204226656,-0.96875,-0.21875,0.15625
1631204226687,-0.96875,-0.21875,0.15625
1631204226718,-0.96875,-0.21875,0.15625
1631204226750,-0.96875,-0.21875,0.15625
1631204226781,-0.96875,-0.21875,0.15625
1631204226812,-0.96875,-0.21875,0.15625
1631204226843,-0.96875,-0.21875,0.15625
1631204226875,-0.96875,-0.21875,0.15625
1631204226906,-0.96875,-0.21875,0.15625
1631204226937,-0.96875,-0.21875,0.15625
1631204226968,-0.96875,-0.21875,0.15625
1631204227000,-0.96875,-0.21875,0.15625
1631204227031,-0.96875,-0.21875,0.15625
1631204227062,-0.96875,-0.21875,0.15625
1631204227093,-0.96875,-0.21875,0.15625
1631204227125,-0.96875,-0.21875,0.15625
1631204227156,-0.96875,-0.21875,0.15625
1631204227187,-0.96875,-0.21875,0.140625
1631204227218,-0.984375,-0.21875,0.140625
1631204227250,-0.953125,-0.21875,0.171875
1631204227281,-0.96875,-0.21875,0.171875
1631204227312,-0.96875,-0.21875,0.15625
1631204227343,-0.96875,-0.21875,0.15625
1631204227375,-0.96875,-0.21875,0.15625
1631204227406,-0.96875,-0.21875,0.15625
1631204227437,-0.96875,-0.21875,0.15625
1631204227468,-0.96875,-0.21875,0.15625
1631204227500,-0.96875,-0.21875,0.15625
1631204227531,-0.96875,-0.21875,0.15625
1631204227562,-0.96875,-0.21875,0.15625
1631204227593,-0.96875,-0.21875,0.15625
1631204227625,-0.96875,-0.21875,0.15625
1631204227656,-0.96875,-0.21875,0.140625
1631204227687,-0.96875,-0.21875,0.15625
1631204227718,-0.96875,-0.21875,0.15625
1631204227750,-0.96875,-0.21875,0.15625
1631204227781,-0.96875,-0.21875,0.15625
1631204227812,-0.96875,-0.21875,0.15625
1631204227843,-0.96875,-0.21875,0.15625
1631204227875,-0.96875,-0.21875,0.15625
1631204227906,-0.96875,-0.21875,0.15625
1631204227937,-0.96875,-0.21875,0.15625
1631204227968,-0.96875,-0.21875,0.15625
1631204228000,-0.96875,-0.21875,0.15625
1631204228031,-0.96875,-0.21875,0.15625
1631204228062,-0.96875,-0.21875,0.15625
1631204228093,-0.96875,-0.21875,0.140625
1631204228125,-0.96875,-0.21875,0.15625
1631204228156,-0.96875,-0.21875,0.15625
1631204228187,-0.96875,-0.21875,0.15625
1631204228218,-0.96875,-0.21875,0.15625
1631204228250,-0.96875,-0.21875,0.15625
1631204228281,-0.96875,-0.21875,0.15625
1631204228312,-0.96875,-0.21875,0.15625
1631204228343,-0.96875,-0.21875,0.15625
1631204228375,-0.96875,-0.21875,0.15625
1631204228406,-0.96875,-0.21875,0.15625
1631204228437,-0.96875,-0.21875,0.15625
1631204228468,-0.96875,-0.21875,0.15625
1631204228500,-0.96875,-0.21875,0.15625
1631204228531,-0.96875,-0.21875,0.15625
1631204228562,-0.96875,-0.21875,0.140625
1631204228593,-0.96875,-0.21875,0.15625
1631204228625,-0.96875,-0.21875,0.15625
1631204228656,-0.96875,-0.21875,0.15625
1631204228687,-0.96875,-0.21875,0.140625
1631204228718,-0.96875,-0.21875,0.15625
