timestamp,ax,ay,az
1630059083625,0.9375,0.28125,-0.203125
1630059083656,0.9375,0.28125,-0.1875
1630059083687,0.9375,0.28125,-0.1875
1630059083718,0.953125,0.28125,-0.1875
1630059083750,0.953125,0.28125,-0.1875
1630059083781,0.953125,0.28125,-0.1875
1630059083812,0.9375,0.28125,-0.1875
1630059083843,0.9375,0.28125,-0.203125
1630059083875,0.9375,0.28125,-0.1875
1630059083906,0.953125,0.28125,-0.1875
1630059083937,0.953125,0.28125,-0.203125
1630059083968,0.953125,0.28125,-0.1875
1630059084000,0.9375,0.28125,-0.1875
1630059084031,0.9375,0.28125,-0.203125
1630059084062,0.953125,0.28125,-0.1875
1630059084093,0.953125,0.28125,-0.1875
1630059084125,0.953125,0.296875,-0.203125
1630059084156,0.9375,0.28125,-0.1875
1630059084187,0.9375,0.28125,-0.203125
1630059084218,0.953125,0.296875,-0.1875
1630059084250,0.9375,0.28125,-0.1875
1630059084281,0.9375,0.28125,-0.203125
1630059084312,0.953125,0.28125,-0.203125
1630059084343,0.9375,0.28125,-0.1875
1630059084375,0.9375,0.28125,-0.1875
1630059084406,0.953125,0.28125,-0.1875
1630059084437,0.984375,0.28125,-0.1875
1630059084468,1.03125,0.3125,-0.171875
1630059084500,1.1875,0.390625,-0.1875
1630059084531,1.265625,0.4375,-0.28125
1630059084562,1.5,0.625,-0.03125
1630059084593,1.46875,0.8125,0.140625
1630059084625,0.890625,1.03125,0.328125
1630059084656,0.640625,0.984375,0.3125
1630059084687,0.265625,0.734375,0.359375
1630059084718,0.125,0.53125,0.34375
1630059084750,0.484375,0.3125,0.328125
1630059084781,0.90625,0.078125,0.203125
1630059084812,1.203125,-0.015625,0.21875
1630059084843,1.421875,-0.0625,0.46875
1630059084875,0.90625,-0.015625,0.484375
1630059084906,0.84375,0.140625,0.578125
1630059084937,0.875,0.140625,0.421875
1630059084968,0.6875,0.1875,0.4375
1630059085000,0.453125,0.296875,0.390625
1630059085031,0.203125,0.265625,0.609375
1630059085062,0.78125,0.125,0.5
1630059085093,1.1875,0.265625,0.28125
1630059085125,1.203125,0.28125,0.5625
1630059085156,0.6875,0.625,1.03125
1630059085187,0.546875,0.46875,0.28125
1630059085218,0.65625,0.625,0.671875
1630059085250,0.59375,0.671875,0.421875
1630059085281,0.828125,0.671875,0.265625
1630059085312,0.765625,0.671875,0.171875
1630059085343,0.3125,0.796875,0.375
1630059085375,0.375,0.78125,0.34375
1630059085406,0.671875,0.796875,0.15625
1630059085437,0.765625,0.84375,0.21875
1630059085468,0.71875,0.75,0.203125
1630059085500,0.53125,0.796875,0.046875
1630059085531,0.71875,0.859375,0.015625
1630059085562,0.421875,0.984375,0.0625
1630059085593,0.34375,0.90625,0.203125
1630059085625,0.4375,0.984375,-0.03125
1630059085656,0.265625,1.015625,-0.046875
1630059085687,0.0625,1.015625,-0.234375
1630059085718,0.203125,1.015625,-0.265625
1630059085750,0.234375,1.03125,-0.078125
1630059085781,0.09375,0.953125,-0.03125
1630059085812,0.3125,1.046875,-0.078125
1630059085843,0.3125,1.046875,0.015625
1630059085875,0.03125,0.828125,-0.046875
1630059085906,0.0,0.90625,0.0
1630059085937,0.015625,0.9375,0.0
1630059085968,0.03125,0.953125,-0.046875
1630059086000,-0.046875,0.890625,-0.125
1630059086031,0.3125,1.5625,0.015625
1630059086062,-0.109375,0.609375,-0.09375
1630059086093,-0.578125,0.609375,-0.515625
1630059086125,-0.078125,0.8125,0.09375
1630059086156,0.359375,0.984375,0.109375
1630059086187,0.421875,0.953125,0.109375
1630059086218,0.375,1.046875,0.03125
1630059086250,0.265625,0.984375,0.0
1630059086281,0.0625,0.8125,-0.125
1630059086312,0.125,0.890625,-0.046875
1630059086343,0.296875,0.59375,0.125
1630059086375,-0.03125,1.78125,-0.28125
1630059086406,-0.234375,0.78125,0.171875
1630059086437,0.921875,0.625,0.171875
1630059086468,0.703125,0.8125,0.375
1630059086500,0.1875,0.90625,-0.046875
1630059086531,0.703125,0.921875,0.203125
1630059086562,0.71875,0.734375,0.28125
1630059086593,0.5,0.796875,0.203125
1630059086625,0.609375,0.859375,0.21875
1630059086656,0.703125,0.8125,0.234375
1630059086687,1.109375,0.71875,0.328125
1630059086718,0.984375,0.546875,0.375
1630059086750,0.84375,0.546875,0.421875
1630059086781,0.78125,0.484375,0.5625
1630059086812,0.78125,0.484375,0.6875
1630059086843,0.640625,0.390625,0.8125
1630059086875,0.734375,0.40625,0.890625
1630059086906,0.65625,0.328125,0.8125
1630059086937,0.5625,0.265625,0.796875
1630059086968,0.5625,0.1875,0.8125
1630059087000,0.5625,0.046875,0.75
1630059087031,0.640625,0.046875,0.765625
1630059087062,0.5,-0.03125,0.78125
1630059087093,0.5,-0.109375,0.796875
1630059087125,0.546875,-0.125,0.828125
1630059087156,0.546875,-0.09375,0.828125
1630059087187,0.5,-0.109375,0.8125
1630059087218,0.40625,-0.1875,0.765625
1630059087250,0.28125,-0.3125,0.796875
1630059087281,0.21875,-0.3125,0.765625
1630059087312,0.15625,-0.359375,0.703125
1630059087343,0.15625,-0.421875,0.65625
1630059087375,0.171875,-0.484375,0.625
1630059087406,0.28125,-0.46875,0.578125
1630059087437,0.234375,-0.453125,0.546875
1630059087468,0.34375,-0.4375,0.59375
1630059087500,0.234375,-0.453125,0.65625
1630059087531,0.3125,-0.453125,0.703125
1630059087562,0.5,-0.453125,0.765625
1630059087593,0.46875,-0.421875,0.796875
1630059087625,0.609375,-0.5625,0.796875
1630059087656,0.78125,-0.59375,0.671875
1630059087687,0.796875,-0.59375,0.578125
1630059087718,0.765625,-0.609375,0.5625
1630059087750,0.734375,-0.703125,0.625
1630059087781,0.8125,-0.71875,0.546875
1630059087812,0.671875,-0.671875,0.53125
1630059087843,0.640625,-0.625,0.53125
1630059087875,0.671875,-0.5625,0.515625
1630059087906,0.6875,-0.546875,0.46875
1630059087937,0.65625,-0.53125,0.40625
1630059087968,0.625,-0.546875,0.4375
1630059088000,0.671875,-0.578125,0.453125
1630059088031,0.703125,-0.640625,0.546875
1630059088062,0.625,-0.640625,0.484375
1630059088093,0.65625,-0.609375,0.453125
1630059088125,0.71875,-0.546875,0.515625
1630059088156,0.65625,-0.546875,0.53125
1630059088187,0.640625,-0.53125,0.421875
1630059088218,0.65625,-0.46875,0.484375
1630059088250,0.59375,-0.484375,0.546875
1630059088281,0.640625,-0.484375,0.53125
1630059088312,0.765625,-0.5,0.515625
1630059088343,0.671875,-0.5625,0.515625
1630059088375,0.609375,-0.65625,0.453125
1630059088406,0.65625,-0.71875,0.40625
1630059088437,0.796875,-0.640625,0.3125
1630059088468,0.765625,-0.59375,0.28125
1630059088500,0.734375,-0.515625,0.390625
1630059088531,0.734375,-0.453125,0.53125
1630059088562,0.734375,-0.46875,0.5625
1630059088593,0.765625,-0.484375,0.5625
1630059088625,0.78125,-0.46875,0.5625
1630059088656,0.78125,-0.46875,0.515625
1630059088687,0.75,-0.453125,0.46875
1630059088718,0.75,-0.4375,0.484375
1630059088750,0.734375,-0.4375,0.484375
1630059088781,0.6875,-0.453125,0.515625
1630059088812,0.6875,-0.453125,0.53125
1630059088843,0.71875,-0.484375,0.5
1630059088875,0.765625,-0.5,0.453125
1630059088906,0.828125,-0.546875,0.40625
1630059088937,0.84375,-0.5,0.296875
1630059088968,0.75,-0.53125,0.3125
1630059089000,0.8125,-0.53125,0.359375
1630059089031,0.78125,-0.5625,0.328125
1630059089062,0.765625,-0.609375,0.265625
1630059089093,0.78125,-0.578125,0.25
1630059089125,0.78125,-0.53125,0.28125
1630059089156,0.75,-0.53125,0.328125
1630059089187,0.734375,-0.53125,0.296875
1630059089218,0.734375,-0.59375,0.296875
1630059089250,0.71875,-0.65625,0.328125
1630059089281,0.6875,-0.671875,0.296875
1630059089312,0.625,-0.6875,0.25
1630059089343,0.46875,-0.640625,0.234375
1630059089375,0.421875,-0.609375,0.25
1630059089406,0.578125,-0.53125,0.296875
1630059089437,0.640625,-0.484375,0.296875
1630059089468,0.71875,-0.46875,0.140625
1630059089500,0.953125,-0.515625,-0.03125
1630059089531,0.9375,-0.515625,-0.078125
1630059089562,0.8125,-0.34375,-0.265625
1630059089593,0.78125,-0.25,-0.296875
1630059089625,0.921875,0.03125,-0.28125
1630059089656,1.40625,0.125,-0.203125
1630059089687,1.25,0.1875,-0.25
1630059089718,1.8125,0.46875,-0.65625
1630059089750,1.484375,0.21875,-0.625
1630059089781,0.65625,0.21875,-0.078125
1630059089812,0.671875,0.1875,0.09375
1630059089843,1.046875,0.109375,0.140625
1630059089875,1.28125,0.171875,-0.09375
1630059089906,1.25,0.1875,-0.0625
1630059089937,0.984375,0.15625,0.140625
1630059089968,0.96875,0.15625,0.1875
1630059090000,0.984375,0.171875,0.234375
1630059090031,1.6875,0.078125,0.46875
1630059090062,0.21875,0.40625,0.5625
1630059090093,0.734375,0.296875,0.609375
1630059090125,0.609375,0.1875,0.625
1630059090156,0.65625,0.21875,0.5625
1630059090187,0.65625,0.09375,0.71875
1630059090218,0.421875,0.25,0.671875
1630059090250,0.171875,0.1875,0.546875
1630059090281,0.375,0.359375,0.765625
1630059090312,0.296875,0.484375,0.875
1630059090343,0.21875,0.4375,0.78125
1630059090375,0.5625,0.359375,1.03125
1630059090406,0.75,0.234375,1.15625
1630059090437,0.5625,0.140625,0.875
1630059090468,0.4375,0.15625,0.71875
1630059090500,0.234375,0.234375,0.75
1630059090531,0.5,0.25,0.84375
1630059090562,0.640625,0.234375,0.8125
1630059090593,0.6875,0.25,0.734375
1630059090625,0.609375,0.21875,0.734375
1630059090656,0.5625,0.21875,0.796875
1630059090687,0.625,0.234375,0.796875
1630059090718,0.625,0.25,0.765625
1630059090750,0.625,0.21875,0.734375
1630059090781,0.65625,0.25,0.734375
1630059090812,0.640625,0.234375,0.71875
1630059090843,0.609375,0.25,0.734375
1630059090875,0.59375,0.265625,0.75
1630059090906,0.59375,0.25,0.75
1630059090937,0.609375,0.25,0.734375
1630059090968,0.59375,0.234375,0.734375
1630059091000,0.59375,0.25,0.75
1630059091031,0.609375,0.25,0.75
1630059091062,0.625,0.25,0.71875
1630059091093,0.609375,0.25,0.71875
1630059091125,0.609375,0.25,0.734375
1630059091156,0.640625,0.25,0.71875
1630059091187,0.640625,0.25,0.71875
1630059091218,0.625,0.25,0.71875
1630059091250,0.625,0.25,0.71875
1630059091281,0.625,0.25,0.71875
1630059091312,0.640625,0.25,0.71875
1630059091343,0.625,0.25,0.71875
1630059091375,0.625,0.25,0.71875
1630059091406,0.625,0.25,0.71875
1630059091437,0.640625,0.25,0.71875
1630059091468,0.640625,0.25,0.71875
1630059091500,0.625,0.25,0.71875
1630059091531,0.625,0.25,0.71875
1630059091562,0.640625,0.25,0.71875
1630059091593,0.640625,0.25,0.71875
1630059091625,0.640625,0.25,0.703125
1630059091656,0.640625,0.25,0.703125
1630059091687,0.65625,0.25,0.71875
1630059091718,0.640625,0.25,0.71875
1630059091750,0.640625,0.25,0.703125
1630059091781,0.65625,0.25,0.703125
1630059091812,0.640625,0.25,0.703125
1630059091843,0.65625,0.25,0.703125
1630059091875,0.65625,0.25,0.703125
1630059091906,0.65625,0.25,0.703125
1630059091937,0.640625,0.25,0.6875
1630059091968,0.671875,0.265625,0.6875
1630059092000,0.6875,0.265625,0.6875
1630059092031,0.6875,0.265625,0.6875
1630059092062,0.6875,0.265625,0.6875
1630059092093,0.6875,0.265625,0.6875
1630059092125,0.671875,0.265625,0.6875
1630059092156,0.6875,0.265625,0.6875
1630059092187,0.671875,0.265625,0.6875
1630059092218,0.65625,0.265625,0.671875
1630059092250,0.671875,0.265625,0.6875
1630059092281,0.671875,0.265625,0.6875
1630059092312,0.6875,0.265625,0.6875
1630059092343,0.6875,0.265625,0.6875
1630059092375,0.671875,0.265625,0.671875
1630059092406,0.671875,0.265625,0.6875
1630059092437,0.6875,0.265625,0.6875
1630059092468,0.671875,0.265625,0.6875
1630059092500,0.671875,0.265625,0.6875
1630059092531,0.671875,0.265625,0.6875
1630059092562,0.671875,0.265625,0.6875
1630059092593,0.640625,0.25,0.6875
1630059092625,0.671875,0.25,0.6875
1630059092656,0.671875,0.265625,0.6875
1630059092687,0.65625,0.25,0.6875
1630059092718,0.65625,0.25,0.6875
1630059092750,0.65625,0.25,0.6875
1630059092781,0.671875,0.265625,0.6875
1630059092812,0.671875,0.265625,0.6875
1630059092843,0.671875,0.265625,0.6875
1630059092875,0.65625,0.265625,0.6875
1630059092906,0.671875,0.265625,0.6875
1630059092937,0.65625,0.25,0.6875
1630059092968,0.671875,0.265625,0.6875
1630059093000,0.671875,0.265625,0.6875
1630059093031,0.671875,0.265625,0.6875
1630059093062,0.671875,0.265625,0.6875
1630059093093,0.671875,0.265625,0.6875
1630059093125,0.671875,0.265625,0.6875
1630059093156,0.671875,0.265625,0.6875
1630059093187,0.671875,0.265625,0.6875
1630059093218,0.65625,0.265625,0.6875
1630059093250,0.671875,0.265625,0.6875
1630059093281,0.671875,0.265625,0.703125
1630059093312,0.671875,0.265625,0.6875
1630059093343,0.671875,0.265625,0.703125
1630059093375,0.625,0.265625,0.6875
1630059093406,0.65625,0.234375,0.703125
1630059093437,0.671875,0.234375,0.703125
1630059093468,0.671875,0.265625,0.6875
1630059093500,0.65625,0.265625,0.6875
1630059093531,0.65625,0.25,0.703125
1630059093562,0.671875,0.25,0.6875
1630059093593,0.671875,0.25,0.6875
1630059093625,0.671875,0.25,0.6875
1630059093656,0.671875,0.265625,0.6875
1630059093687,0.671875,0.25,0.6875
1630059093718,0.671875,0.265625,0.6875
1630059093750,0.65625,0.25,0.6875
1630059093781,0.671875,0.265625,0.6875
1630059093812,0.65625,0.25,0.6875
1630059093843,0.671875,0.25,0.703125
1630059093875,0.65625,0.265625,0.6875
1630059093906,0.671875,0.25,0.6875
1630059093937,0.671875,0.25,0.6875
1630059093968,0.671875,0.265625,0.6875
1630059094000,0.65625,0.25,0.6875
1630059094031,0.671875,0.265625,0.6875
1630059094062,0.671875,0.265625,0.6875
1630059094093,0.671875,0.265625,0.6875
1630059094125,0.671875,0.265625,0.6875
1630059094156,0.671875,0.265625,0.6875
1630059094187,0.671875,0.265625,0.6875
1630059094218,0.65625,0.265625,0.6875
1630059094250,0.671875,0.265625,0.6875
1630059094281,0.671875,0.265625,0.6875
1630059094312,0.671875,0.265625,0.6875
1630059094343,0.671875,0.265625,0.6875
1630059094375,0.671875,0.265625,0.6875
1630059094406,0.671875,0.265625,0.6875
1630059094437,0.671875,0.265625,0.6875
1630059094468,0.65625,0.265625,0.6875
1630059094500,0.671875,0.265625,0.6875
1630059094531,0.6875,0.265625,0.6875
1630059094562,0.671875,0.265625,0.6875
1630059094593,0.671875,0.265625,0.6875
1630059094625,0.671875,0.265625,0.6875
1630059094656,0.65625,0.265625,0.6875
1630059094687,0.671875,0.265625,0.6875
1630059094718,0.65625,0.265625,0.6875
1630059094750,0.671875,0.265625,0.6875
1630059094781,0.671875,0.265625,0.6875
1630059094812,0.65625,0.265625,0.6875
1630059094843,0.671875,0.265625,0.6875
1630059094875,0.671875,0.265625,0.6875
1630059094906,0.671875,0.265625,0.6875
1630059094937,0.65625,0.265625,0.6875
1630059094968,0.65625,0.265625,0.6875
1630059095000,0.671875,0.265625,0.6875
1630059095031,0.671875,0.265625,0.6875
1630059095062,0.671875,0.265625,0.6875
1630059095093,0.671875,0.265625,0.6875
1630059095125,0.671875,0.265625,0.6875
1630059095156,0.671875,0.265625,0.6875
1630059095187,0.671875,0.265625,0.6875
1630059095218,0.65625,0.265625,0.6875
1630059095250,0.671875,0.265625,0.6875
1630059095281,0.65625,0.265625,0.6875
1630059095312,0.65625,0.265625,0.6875
1630059095343,0.671875,0.265625,0.6875
1630059095375,0.65625,0.265625,0.6875
1630059095406,0.671875,0.265625,0.6875
1630059095437,0.671875,0.265625,0.6875
1630059095468,0.65625,0.265625,0.6875
1630059095500,0.65625,0.265625,0.6875
1630059095531,0.65625,0.265625,0.6875
1630059095562,0.671875,0.265625,0.6875
1630059095593,0.671875,0.265625,0.6875
1630059095625,0.671875,0.265625,0.6875
1630059095656,0.671875,0.265625,0.6875
1630059095687,0.671875,0.265625,0.6875
1630059095718,0.671875,0.265625,0.6875
1630059095750,0.671875,0.265625,0.6875
1630059095781,0.671875,0.265625,0.6875
1630059095812,0.671875,0.265625,0.6875
1630059095843,0.671875,0.265625,0.6875
1630059095875,0.671875,0.265625,0.6875
1630059095906,0.671875,0.265625,0.6875
1630059095937,0.671875,0.265625,0.6875
1630059095968,0.671875,0.265625,0.6875
1630059096000,0.671875,0.265625,0.6875
1630059096031,0.671875,0.265625,0.6875
1630059096062,0.65625,0.265625,0.6875
1630059096093,0.671875,0.265625,0.6875
1630059096125,0.671875,0.265625,0.6875
1630059096156,0.65625,0.265625,0.6875
1630059096187,0.65625,0.265625,0.6875
1630059096218,0.671875,0.265625,0.6875
1630059096250,0.65625,0.265625,0.703125
1630059096281,0.65625,0.265625,0.6875
1630059096312,0.65625,0.265625,0.6875
1630059096343,0.65625,0.265625,0.6875
1630059096375,0.671875,0.265625,0.6875
1630059096406,0.671875,0.265625,0.6875
1630059096437,0.671875,0.265625,0.6875
1630059096468,0.65625,0.265625,0.6875
1630059096500,0.671875,0.265625,0.6875
1630059096531,0.65625,0.265625,0.6875
1630059096562,0.65625,0.265625,0.6875
1630059096593,0.65625,0.25,0.6875
1630059096625,0.65625,0.265625,0.6875
1630059096656,0.65625,0.265625,0.6875
1630059096687,0.65625,0.265625,0.6875
1630059096718,0.671875,0.265625,0.6875
1630059096750,0.65625,0.265625,0.6875
1630059096781,0.65625,0.265625,0.6875
1630059096812,0.65625,0.265625,0.6875
1630059096843,0.671875,0.265625,0.6875
1630059096875,0.671875,0.265625,0.6875
1630059096906,0.671875,0.265625,0.6875
1630059096937,0.671875,0.265625,0.6875
1630059096968,0.671875,0.265625,0.6875
1630059097000,0.65625,0.265625,0.6875
1630059097031,0.671875,0.265625,0.6875
1630059097062,0.671875,0.265625,0.6875
1630059097093,0.671875,0.265625,0.6875
1630059097125,0.671875,0.265625,0.6875
1630059097156,0.65625,0.265625,0.6875
1630059097187,0.65625,0.265625,0.6875
1630059097218,0.671875,0.265625,0.6875
1630059097250,0.65625,0.265625,0.6875
1630059097281,0.671875,0.265625,0.6875
1630059097312,0.671875,0.265625,0.6875
1630059097343,0.671875,0.265625,0.6875
1630059097375,0.671875,0.265625,0.6875
1630059097406,0.65625,0.265625,0.6875
1630059097437,0.65625,0.265625,0.6875
1630059097468,0.671875,0.265625,0.6875
1630059097500,0.65625,0.265625,0.6875
1630059097531,0.671875,0.265625,0.6875
1630059097562,0.65625,0.265625,0.6875
1630059097593,0.671875,0.265625,0.6875
1630059097625,0.671875,0.265625,0.6875
1630059097656,0.671875,0.265625,0.6875
1630059097687,0.65625,0.265625,0.6875
1630059097718,0.671875,0.265625,0.6875
1630059097750,0.65625,0.265625,0.6875
1630059097781,0.671875,0.265625,0.6875
1630059097812,0.671875,0.265625,0.6875
1630059097843,0.65625,0.265625,0.703125
1630059097875,0.65625,0.265625,0.6875
1630059097906,0.65625,0.265625,0.6875
1630059097937,0.65625,0.265625,0.6875
1630059097968,0.65625,0.265625,0.6875
1630059098000,0.65625,0.265625,0.6875
1630059098031,0.65625,0.265625,0.6875
1630059098062,0.65625,0.265625,0.6875
1630059098093,0.65625,0.265625,0.6875
1630059098125,0.65625,0.265625,0.6875
1630059098156,0.65625,0.265625,0.6875
1630059098187,0.65625,0.265625,0.6875
1630059098218,0.65625,0.265625,0.6875
1630059098250,0.65625,0.265625,0.6875
1630059098281,0.65625,0.265625,0.703125
1630059098312,0.65625,0.265625,0.6875
1630059098343,0.65625,0.265625,0.6875
1630059098375,0.65625,0.265625,0.6875
1630059098406,0.65625,0.265625,0.6875
1630059098437,0.671875,0.265625,0.703125
1630059098468,0.65625,0.265625,0.6875
1630059098500,0.65625,0.265625,0.6875
1630059098531,0.65625,0.265625,0.6875
1630059098562,0.65625,0.265625,0.6875
1630059098593,0.65625,0.265625,0.6875
1630059098625,0.65625,0.265625,0.6875
1630059098656,0.65625,0.265625,0.703125
1630059098687,0.65625,0.265625,0.6875
1630059098718,0.65625,0.265625,0.6875
1630059098750,0.65625,0.265625,0.703125
1630059098781,0.65625,0.265625,0.6875
1630059098812,0.65625,0.265625,0.6875
1630059098843,0.65625,0.28125,0.6875
1630059098875,0.65625,0.265625,0.6875
1630059098906,0.65625,0.265625,0.6875
1630059098937,0.671875,0.265625,0.6875
1630059098968,0.65625,0.265625,0.6875
1630059099000,0.65625,0.265625,0.6875
1630059099031,0.65625,0.265625,0.6875
1630059099062,0.65625,0.265625,0.6875
1630059099093,0.65625,0.265625,0.6875
1630059099125,0.671875,0.265625,0.6875
1630059099156,0.65625,0.265625,0.703125
1630059099187,0.65625,0.265625,0.6875
1630059099218,0.65625,0.265625,0.6875
1630059099250,0.65625,0.265625,0.6875
1630059099281,0.65625,0.265625,0.6875
1630059099312,0.65625,0.265625,0.6875
1630059099343,0.65625,0.265625,0.6875
1630059099375,0.65625,0.265625,0.6875
1630059099406,0.65625,0.265625,0.6875
1630059099437,0.65625,0.265625,0.6875
1630059099468,0.65625,0.265625,0.6875
1630059099500,0.65625,0.265625,0.6875
1630059099531,0.65625,0.265625,0.6875
1630059099562,0.65625,0.265625,0.6875
1630059099593,0.65625,0.265625,0.6875
1630059099625,0.65625,0.265625,0.6875
1630059099656,0.65625,0.265625,0.6875
1630059099687,0.65625,0.265625,0.6875
1630059099718,0.65625,0.265625,0.6875
1630059099750,0.65625,0.265625,0.6875
1630059099781,0.65625,0.265625,0.703125
1630059099812,0.65625,0.265625,0.6875
1630059099843,0.65625,0.265625,0.703125
1630059099875,0.65625,0.265625,0.6875
1630059099906,0.65625,0.265625,0.703125
1630059099937,0.65625,0.265625,0.6875
1630059099968,0.65625,0.265625,0.6875
1630059100000,0.65625,0.265625,0.6875
1630059100031,0.65625,0.265625,0.6875
1630059100062,0.65625,0.265625,0.6875
1630059100093,0.65625,0.265625,0.703125
1630059100125,0.65625,0.265625,0.6875
1630059100156,0.65625,0.265625,0.6875
1630059100187,0.65625,0.265625,0.6875
1630059100218,0.65625,0.265625,0.6875
1630059100250,0.65625,0.265625,0.6875
1630059100281,0.65625,0.265625,0.6875
1630059100312,0.65625,0.265625,0.6875
1630059100343,0.65625,0.265625,0.6875
1630059100375,0.65625,0.265625,0.703125
1630059100406,0.65625,0.265625,0.6875
1630059100437,0.65625,0.265625,0.6875
1630059100468,0.671875,0.265625,0.703125
1630059100500,0.65625,0.265625,0.6875
1630059100531,0.65625,0.265625,0.6875
1630059100562,0.65625,0.265625,0.6875
1630059100593,0.671875,0.265625,0.6875
1630059100625,0.671875,0.265625,0.6875
1630059100656,0.65625,0.265625,0.6875
1630059100687,0.65625,0.265625,0.6875
1630059100718,0.65625,0.265625,0.6875
1630059100750,0.65625,0.265625,0.703125
1630059100781,0.65625,0.265625,0.6875
1630059100812,0.65625,0.265625,0.6875
1630059100843,0.65625,0.265625,0.703125
1630059100875,0.65625,0.265625,0.6875
1630059100906,0.65625,0.265625,0.703125
1630059100937,0.65625,0.265625,0.703125
1630059100968,0.65625,0.265625,0.6875
1630059101000,0.65625,0.265625,0.703125
1630059101031,0.65625,0.265625,0.703125
1630059101062,0.65625,0.265625,0.6875
1630059101093,0.65625,0.265625,0.6875
1630059101125,0.65625,0.265625,0.703125
1630059101156,0.65625,0.265625,0.6875
1630059101187,0.65625,0.265625,0.6875
1630059101218,0.65625,0.265625,0.6875
1630059101250,0.65625,0.265625,0.6875
1630059101281,0.65625,0.265625,0.703125
1630059101312,0.65625,0.265625,0.6875
1630059101343,0.65625,0.265625,0.6875
1630059101375,0.65625,0.265625,0.6875
1630059101406,0.65625,0.265625,0.6875
1630059101437,0.65625,0.265625,0.6875
1630059101468,0.65625,0.265625,0.6875
1630059101500,0.65625,0.265625,0.6875
1630059101531,0.65625,0.265625,0.6875
1630059101562,0.671875,0.265625,0.703125
1630059101593,0.671875,0.265625,0.703125
1630059101625,0.65625,0.265625,0.6875
1630059101656,0.65625,0.265625,0.6875
1630059101687,0.65625,0.265625,0.6875
1630059101718,0.65625,0.265625,0.6875
1630059101750,0.65625,0.265625,0.703125
1630059101781,0.65625,0.265625,0.703125
1630059101812,0.65625,0.265625,0.6875
1630059101843,0.65625,0.265625,0.6875
1630059101875,0.65625,0.265625,0.703125
1630059101906,0.65625,0.265625,0.6875
1630059101937,0.65625,0.265625,0.703125
1630059101968,0.65625,0.265625,0.6875
1630059102000,0.65625,0.265625,0.6875
1630059102031,0.65625,0.265625,0.6875
1630059102062,0.65625,0.265625,0.6875
1630059102093,0.65625,0.265625,0.703125
1630059102125,0.65625,0.265625,0.6875
1630059102156,0.65625,0.265625,0.6875
1630059102187,0.65625,0.265625,0.703125
1630059102218,0.65625,0.265625,0.6875
1630059102250,0.65625,0.265625,0.703125
1630059102281,0.65625,0.265625,0.6875
1630059102312,0.65625,0.265625,0.6875
1630059102343,0.65625,0.265625,0.6875
1630059102375,0.65625,0.265625,0.6875
1630059102406,0.65625,0.265625,0.703125
1630059102437,0.65625,0.265625,0.6875
1630059102468,0.65625,0.265625,0.703125
1630059102500,0.65625,0.265625,0.6875
1630059102531,0.65625,0.265625,0.703125
1630059102562,0.65625,0.265625,0.703125
1630059102593,0.65625,0.28125,0.703125
1630059102625,0.65625,0.265625,0.6875
1630059102656,0.65625,0.265625,0.703125
1630059102687,0.65625,0.265625,0.6875
1630059102718,0.65625,0.265625,0.703125
1630059102750,0.65625,0.265625,0.6875
1630059102781,0.65625,0.265625,0.6875
1630059102812,0.65625,0.265625,0.703125
1630059102843,0.65625,0.265625,0.703125
1630059102875,0.65625,0.265625,0.6875
1630059102906,0.65625,0.265625,0.703125
1630059102937,0.65625,0.265625,0.6875
1630059102968,0.65625,0.265625,0.6875
1630059103000,0.65625,0.265625,0.6875
1630059103031,0.65625,0.265625,0.703125
1630059103062,0.671875,0.265625,0.6875
1630059103093,0.65625,0.265625,0.703125
1630059103125,0.65625,0.265625,0.6875
1630059103156,0.65625,0.265625,0.6875
1630059103187,0.65625,0.265625,0.6875
1630059103218,0.65625,0.265625,0.6875
1630059103250,0.65625,0.265625,0.6875
1630059103281,0.65625,0.265625,0.6875
1630059103312,0.65625,0.265625,0.6875
1630059103343,0.65625,0.265625,0.6875
1630059103375,0.65625,0.265625,0.703125
1630059103406,0.65625,0.265625,0.6875
1630059103437,0.65625,0.265625,0.6875
1630059103468,0.65625,0.265625,0.6875
1630059103500,0.65625,0.265625,0.6875
1630059103531,0.65625,0.265625,0.703125
1630059103562,0.65625,0.265625,0.6875
1630059103593,0.65625,0.265625,0.6875
1630059103625,0.65625,0.265625,0.6875
1630059103656,0.65625,0.265625,0.703125
1630059103687,0.65625,0.265625,0.703125
1630059103718,0.65625,0.265625,0.6875
1630059103750,0.65625,0.265625,0.703125
1630059103781,0.65625,0.265625,0.6875
1630059103812,0.65625,0.265625,0.6875
1630059103843,0.65625,0.265625,0.703125
1630059103875,0.65625,0.265625,0.6875
1630059103906,0.65625,0.265625,0.703125
1630059103937,0.65625,0.265625,0.6875
1630059103968,0.65625,0.28125,0.6875
1630059104000,0.65625,0.265625,0.6875
1630059104031,0.65625,0.265625,0.6875
1630059104062,0.65625,0.265625,0.703125
1630059104093,0.65625,0.265625,0.703125
1630059104125,0.65625,0.265625,0.703125
1630059104156,0.65625,0.265625,0.703125
1630059104187,0.65625,0.265625,0.6875
1630059104218,0.65625,0.265625,0.6875
1630059104250,0.65625,0.265625,0.6875
1630059104281,0.65625,0.265625,0.6875
1630059104312,0.65625,0.265625,0.6875
1630059104343,0.65625,0.265625,0.6875
1630059104375,0.65625,0.265625,0.6875
1630059104406,0.65625,0.265625,0.6875
1630059104437,0.65625,0.265625,0.6875
1630059104468,0.65625,0.265625,0.6875
1630059104500,0.65625,0.265625,0.703125
1630059104531,0.65625,0.265625,0.703125
1630059104562,0.65625,0.265625,0.6875
1630059104593,0.65625,0.265625,0.6875
1630059104625,0.65625,0.265625,0.703125
1630059104656,0.65625,0.265625,0.6875
1630059104687,0.65625,0.265625,0.703125
1630059104718,0.65625,0.265625,0.703125
1630059104750,0.65625,0.265625,0.6875
1630059104781,0.65625,0.265625,0.703125
1630059104812,0.65625,0.265625,0.703125
1630059104843,0.65625,0.265625,0.6875
1630059104875,0.640625,0.265625,0.6875
1630059104906,0.65625,0.265625,0.703125
1630059104937,0.671875,0.265625,0.703125
1630059104968,0.65625,0.265625,0.6875
1630059105000,0.65625,0.265625,0.6875
1630059105031,0.65625,0.265625,0.6875
1630059105062,0.65625,0.265625,0.703125
1630059105093,0.65625,0.265625,0.6875
1630059105125,0.65625,0.265625,0.6875
1630059105156,0.65625,0.265625,0.703125
1630059105187,0.65625,0.265625,0.6875
1630059105218,0.65625,0.265625,0.6875
1630059105250,0.65625,0.265625,0.6875
1630059105281,0.65625,0.265625,0.703125
1630059105312,0.65625,0.265625,0.6875
1630059105343,0.671875,0.265625,0.6875
1630059105375,0.65625,0.265625,0.6875
1630059105406,0.65625,0.265625,0.6875
1630059105437,0.65625,0.265625,0.6875
1630059105468,0.65625,0.265625,0.6875
1630059105500,0.671875,0.265625,0.6875
1630059105531,0.65625,0.265625,0.6875
1630059105562,0.65625,0.265625,0.6875
1630059105593,0.65625,0.265625,0.6875
1630059105625,0.671875,0.265625,0.6875
1630059105656,0.671875,0.265625,0.703125
1630059105687,0.65625,0.265625,0.6875
1630059105718,0.65625,0.265625,0.6875
1630059105750,0.65625,0.265625,0.6875
1630059105781,0.65625,0.265625,0.6875
1630059105812,0.65625,0.265625,0.6875
1630059105843,0.65625,0.265625,0.6875
1630059105875,0.65625,0.265625,0.6875
1630059105906,0.65625,0.265625,0.6875
1630059105937,0.65625,0.265625,0.6875
1630059105968,0.65625,0.265625,0.6875
1630059106000,0.65625,0.265625,0.6875
1630059106031,0.65625,0.265625,0.6875
1630059106062,0.65625,0.28125,0.6875
1630059106093,0.65625,0.265625,0.6875
1630059106125,0.65625,0.28125,0.6875
1630059106156,0.65625,0.28125,0.6875
1630059106187,0.65625,0.28125,0.6875
1630059106218,0.65625,0.28125,0.6875
1630059106250,0.65625,0.28125,0.6875
1630059106281,0.65625,0.265625,0.6875
1630059106312,0.65625,0.265625,0.6875
1630059106343,0.65625,0.265625,0.6875
1630059106375,0.65625,0.28125,0.703125
1630059106406,0.65625,0.28125,0.6875
1630059106437,0.65625,0.265625,0.6875
1630059106468,0.65625,0.265625,0.703125
1630059106500,0.65625,0.28125,0.6875
1630059106531,0.65625,0.28125,0.6875
1630059106562,0.65625,0.28125,0.6875
1630059106593,0.65625,0.265625,0.703125
1630059106625,0.65625,0.265625,0.703125
1630059106656,0.65625,0.28125,0.6875
1630059106687,0.65625,0.265625,0.703125
1630059106718,0.65625,0.265625,0.703125
1630059106750,0.640625,0.28125,0.703125
1630059106781,0.65625,0.265625,0.703125
1630059106812,0.65625,0.28125,0.6875
1630059106843,0.65625,0.28125,0.6875
1630059106875,0.65625,0.28125,0.6875
1630059106906,0.65625,0.28125,0.6875
1630059106937,0.65625,0.265625,0.6875
1630059106968,0.65625,0.28125,0.6875
1630059107000,0.65625,0.28125,0.6875
1630059107031,0.65625,0.265625,0.6875
1630059107062,0.65625,0.265625,0.6875
1630059107093,0.65625,0.265625,0.6875
1630059107125,0.65625,0.265625,0.703125
1630059107156,0.65625,0.28125,0.703125
1630059107187,0.65625,0.265625,0.6875
1630059107218,0.65625,0.28125,0.703125
1630059107250,0.65625,0.265625,0.6875
1630059107281,0.65625,0.28125,0.6875
1630059107312,0.65625,0.28125,0.6875
1630059107343,0.65625,0.28125,0.6875
1630059107375,0.65625,0.265625,0.703125
1630059107406,0.65625,0.28125,0.6875
1630059107437,0.65625,0.265625,0.6875
1630059107468,0.65625,0.28125,0.6875
1630059107500,0.65625,0.265625,0.703125
1630059107531,0.65625,0.28125,0.703125
1630059107562,0.65625,0.28125,0.6875
1630059107593,0.65625,0.28125,0.703125
1630059107625,0.65625,0.28125,0.703125
1630059107656,0.65625,0.265625,0.703125
1630059107687,0.65625,0.28125,0.6875
1630059107718,0.65625,0.265625,0.6875
1630059107750,0.65625,0.265625,0.6875
1630059107781,0.65625,0.265625,0.6875
1630059107812,0.65625,0.265625,0.6875
1630059107843,0.65625,0.265625,0.703125
1630059107875,0.65625,0.265625,0.6875
1630059107906,0.65625,0.265625,0.6875
1630059107937,0.65625,0.265625,0.6875
1630059107968,0.65625,0.28125,0.6875
1630059108000,0.65625,0.265625,0.6875
1630059108031,0.65625,0.265625,0.6875
1630059108062,0.65625,0.265625,0.703125
1630059108093,0.65625,0.265625,0.6875
1630059108125,0.65625,0.265625,0.6875
1630059108156,0.65625,0.28125,0.6875
1630059108187,0.65625,0.265625,0.703125
1630059108218,0.65625,0.265625,0.6875
1630059108250,0.65625,0.265625,0.6875
1630059108281,0.65625,0.265625,0.6875
1630059108312,0.65625,0.265625,0.6875
1630059108343,0.65625,0.265625,0.6875
1630059108375,0.65625,0.28125,0.703125
1630059108406,0.65625,0.265625,0.703125
1630059108437,0.65625,0.265625,0.6875
1630059108468,0.65625,0.265625,0.6875
1630059108500,0.65625,0.265625,0.6875
1630059108531,0.65625,0.265625,0.6875
1630059108562,0.65625,0.265625,0.6875
1630059108593,0.65625,0.265625,0.6875
1630059108625,0.65625,0.265625,0.6875
1630059108656,0.65625,0.265625,0.6875
1630059108687,0.65625,0.265625,0.6875
1630059108718,0.65625,0.265625,0.703125
1630059108750,0.65625,0.265625,0.6875
1630059108781,0.65625,0.265625,0.6875
1630059108812,0.65625,0.265625,0.6875
1630059108843,0.65625,0.265625,0.6875
1630059108875,0.65625,0.265625,0.6875
1630059108906,0.65625,0.265625,0.6875
1630059108937,0.65625,0.265625,0.6875
1630059108968,0.671875,0.265625,0.6875
1630059109000,0.65625,0.265625,0.6875
1630059109031,0.65625,0.265625,0.6875
1630059109062,0.65625,0.265625,0.6875
1630059109093,0.65625,0.265625,0.6875
1630059109125,0.65625,0.265625,0.6875
1630059109156,0.65625,0.265625,0.6875
1630059109187,0.65625,0.265625,0.6875
1630059109218,0.65625,0.265625,0.6875
1630059109250,0.65625,0.265625,0.703125
1630059109281,0.65625,0.265625,0.6875
1630059109312,0.65625,0.265625,0.6875
1630059109343,0.65625,0.265625,0.6875
1630059109375,0.65625,0.265625,0.6875
1630059109406,0.65625,0.265625,0.6875
1630059109437,0.65625,0.265625,0.6875
1630059109468,0.65625,0.265625,0.6875
1630059109500,0.65625,0.265625,0.6875
1630059109531,0.65625,0.265625,0.6875
1630059109562,0.65625,0.28125,0.6875
1630059109593,0.65625,0.28125,0.6875
1630059109625,0.65625,0.265625,0.6875
1630059109656,0.671875,0.265625,0.6875
1630059109687,0.65625,0.28125,0.6875
1630059109718,0.65625,0.265625,0.6875
1630059109750,0.65625,0.265625,0.6875
1630059109781,0.671875,0.265625,0.6875
1630059109812,0.65625,0.265625,0.6875
1630059109843,0.65625,0.265625,0.6875
1630059109875,0.65625,0.28125,0.6875
1630059109906,0.65625,0.28125,0.6875
1630059109937,0.65625,0.28125,0.6875
1630059109968,0.65625,0.28125,0.6875
1630059110000,0.65625,0.28125,0.6875
1630059110031,0.65625,0.28125,0.6875
1630059110062,0.65625,0.28125,0.6875
1630059110093,0.65625,0.28125,0.6875
1630059110125,0.65625,0.28125,0.6875
1630059110156,0.65625,0.265625,0.6875
1630059110187,0.65625,0.28125,0.6875
1630059110218,0.65625,0.265625,0.6875
1630059110250,0.65625,0.265625,0.6875
1630059110281,0.65625,0.28125,0.6875
1630059110312,0.65625,0.28125,0.6875
1630059110343,0.65625,0.28125,0.6875
1630059110375,0.65625,0.28125,0.6875
1630059110406,0.65625,0.28125,0.6875
1630059110437,0.65625,0.28125,0.6875
1630059110468,0.65625,0.28125,0.6875
1630059110500,0.65625,0.28125,0.6875
1630059110531,0.65625,0.28125,0.6875
1630059110562,0.65625,0.28125,0.6875
1630059110593,0.65625,0.28125,0.6875
1630059110625,0.65625,0.28125,0.6875
1630059110656,0.65625,0.28125,0.6875
1630059110687,0.65625,0.28125,0.6875
1630059110718,0.65625,0.265625,0.6875
1630059110750,0.65625,0.28125,0.703125
1630059110781,0.671875,0.28125,0.6875
1630059110812,0.65625,0.28125,0.703125
1630059110843,0.65625,0.28125,0.703125
1630059110875,0.65625,0.28125,0.6875
1630059110906,0.65625,0.28125,0.6875
1630059110937,0.65625,0.28125,0.6875
1630059110968,0.65625,0.28125,0.6875
1630059111000,0.65625,0.28125,0.6875
1630059111031,0.65625,0.28125,0.6875
1630059111062,0.65625,0.28125,0.6875
1630059111093,0.65625,0.28125,0.6875
1630059111125,0.65625,0.28125,0.6875
1630059111156,0.65625,0.28125,0.6875
1630059111187,0.65625,0.265625,0.6875
1630059111218,0.65625,0.28125,0.6875
1630059111250,0.65625,0.28125,0.6875
1630059111281,0.65625,0.28125,0.6875
1630059111312,0.65625,0.265625,0.6875
1630059111343,0.65625,0.28125,0.6875
1630059111375,0.65625,0.28125,0.6875
1630059111406,0.65625,0.28125,0.6875
1630059111437,0.65625,0.265625,0.6875
1630059111468,0.65625,0.265625,0.6875
1630059111500,0.65625,0.265625,0.6875
1630059111531,0.65625,0.28125,0.6875
1630059111562,0.65625,0.28125,0.6875
1630059111593,0.65625,0.265625,0.6875
1630059111625,0.65625,0.28125,0.6875
1630059111656,0.65625,0.28125,0.6875
1630059111687,0.65625,0.28125,0.6875
1630059111718,0.65625,0.28125,0.6875
1630059111750,0.65625,0.265625,0.6875
1630059111781,0.65625,0.265625,0.6875
1630059111812,0.65625,0.265625,0.6875
1630059111843,0.65625,0.265625,0.6875
1630059111875,0.65625,0.265625,0.703125
1630059111906,0.65625,0.265625,0.6875
1630059111937,0.65625,0.28125,0.6875
1630059111968,0.65625,0.28125,0.6875
1630059112000,0.65625,0.28125,0.703125
1630059112031,0.65625,0.265625,0.6875
1630059112062,0.65625,0.265625,0.6875
1630059112093,0.65625,0.265625,0.6875
1630059112125,0.65625,0.28125,0.6875
1630059112156,0.65625,0.265625,0.6875
1630059112187,0.65625,0.265625,0.6875
1630059112218,0.671875,0.265625,0.6875
1630059112250,0.65625,0.28125,0.6875
1630059112281,0.65625,0.265625,0.6875
1630059112312,0.65625,0.265625,0.6875
1630059112343,0.65625,0.265625,0.6875
1630059112375,0.65625,0.265625,0.6875
1630059112406,0.65625,0.28125,0.6875
1630059112437,0.65625,0.265625,0.6875
1630059112468,0.65625,0.265625,0.6875
1630059112500,0.671875,0.265625,0.6875
1630059112531,0.65625,0.265625,0.6875
1630059112562,0.65625,0.265625,0.6875
1630059112593,0.65625,0.265625,0.6875
1630059112625,0.65625,0.265625,0.6875
1630059112656,0.65625,0.28125,0.6875
1630059112687,0.65625,0.265625,0.6875
1630059112718,0.65625,0.265625,0.6875
1630059112750,0.65625,0.265625,0.6875
1630059112781,0.65625,0.265625,0.6875
1630059112812,0.65625,0.265625,0.703125
1630059112843,0.65625,0.265625,0.6875
1630059112875,0.671875,0.28125,0.6875
1630059112906,0.65625,0.265625,0.6875
1630059112937,0.65625,0.265625,0.6875
1630059112968,0.65625,0.265625,0.6875
1630059113000,0.65625,0.28125,0.703125
1630059113031,0.65625,0.265625,0.6875
1630059113062,0.65625,0.265625,0.6875
1630059113093,0.65625,0.265625,0.6875
1630059113125,0.65625,0.265625,0.6875
1630059113156,0.65625,0.265625,0.6875
1630059113187,0.65625,0.265625,0.6875
1630059113218,0.65625,0.265625,0.6875
1630059113250,0.65625,0.265625,0.6875
1630059113281,0.65625,0.265625,0.6875
1630059113312,0.65625,0.265625,0.6875
1630059113343,0.65625,0.265625,0.6875
1630059113375,0.65625,0.265625,0.703125
1630059113406,0.65625,0.265625,0.703125
1630059113437,0.65625,0.265625,0.6875
1630059113468,0.65625,0.265625,0.6875
1630059113500,0.65625,0.28125,0.6875
1630059113531,0.65625,0.265625,0.6875
1630059113562,0.65625,0.265625,0.6875
1630059113593,0.65625,0.265625,0.6875
1630059113625,0.65625,0.265625,0.6875
1630059113656,0.671875,0.28125,0.6875
1630059113687,0.65625,0.265625,0.6875
1630059113718,0.65625,0.265625,0.6875
1630059113750,0.65625,0.28125,0.6875
1630059113781,0.65625,0.28125,0.6875
1630059113812,0.65625,0.265625,0.6875
1630059113843,0.65625,0.265625,0.6875
1630059113875,0.65625,0.265625,0.6875
1630059113906,0.65625,0.265625,0.6875
1630059113937,0.65625,0.265625,0.6875
1630059113968,0.65625,0.265625,0.6875
1630059114000,0.671875,0.28125,0.6875
1630059114031,0.671875,0.28125,0.6875
1630059114062,0.65625,0.28125,0.6875
1630059114093,0.65625,0.28125,0.6875
1630059114125,0.671875,0.28125,0.6875
1630059114156,0.671875,0.28125,0.6875
1630059114187,0.65625,0.265625,0.6875
1630059114218,0.65625,0.265625,0.6875
1630059114250,0.65625,0.28125,0.6875
1630059114281,0.65625,0.28125,0.6875
1630059114312,0.65625,0.28125,0.6875
1630059114343,0.65625,0.28125,0.6875
1630059114375,0.65625,0.28125,0.6875
1630059114406,0.671875,0.28125,0.6875
1630059114437,0.671875,0.28125,0.6875
1630059114468,0.65625,0.28125,0.6875
1630059114500,0.65625,0.28125,0.6875
1630059114531,0.65625,0.28125,0.6875
1630059114562,0.65625,0.28125,0.6875
1630059114593,0.65625,0.28125,0.6875
1630059114625,0.65625,0.28125,0.6875
1630059114656,0.65625,0.28125,0.6875
1630059114687,0.65625,0.28125,0.6875
1630059114718,0.65625,0.28125,0.6875
1630059114750,0.65625,0.28125,0.6875
1630059114781,0.65625,0.28125,0.6875
1630059114812,0.65625,0.28125,0.6875
1630059114843,0.65625,0.28125,0.6875
1630059114875,0.65625,0.28125,0.6875
1630059114906,0.65625,0.28125,0.6875
1630059114937,0.65625,0.28125,0.6875
1630059114968,0.65625,0.28125,0.6875
1630059115000,0.65625,0.28125,0.6875
1630059115031,0.65625,0.28125,0.6875
1630059115062,0.65625,0.28125,0.6875
1630059115093,0.65625,0.28125,0.6875
1630059115125,0.65625,0.28125,0.6875
1630059115156,0.65625,0.28125,0.6875
1630059115187,0.65625,0.28125,0.6875
1630059115218,0.65625,0.28125,0.6875
1630059115250,0.671875,0.28125,0.6875
1630059115281,0.65625,0.28125,0.6875
1630059115312,0.65625,0.28125,0.6875
1630059115343,0.671875,0.28125,0.6875
1630059115375,0.65625,0.28125,0.6875
1630059115406,0.65625,0.28125,0.6875
1630059115437,0.65625,0.28125,0.6875
1630059115468,0.640625,0.28125,0.703125
1630059115500,0.65625,0.28125,0.6875
1630059115531,0.65625,0.28125,0.6875
1630059115562,0.65625,0.28125,0.6875
1630059115593,0.65625,0.28125,0.703125
1630059115625,0.65625,0.28125,0.6875
1630059115656,0.65625,0.265625,0.6875
1630059115687,0.65625,0.28125,0.6875
1630059115718,0.65625,0.28125,0.6875
1630059115750,0.65625,0.28125,0.6875
1630059115781,0.65625,0.28125,0.6875
1630059115812,0.65625,0.28125,0.6875
1630059115843,0.65625,0.28125,0.6875
1630059115875,0.65625,0.28125,0.6875
1630059115906,0.65625,0.28125,0.6875
1630059115937,0.65625,0.28125,0.6875
1630059115968,0.65625,0.28125,0.6875
1630059116000,0.65625,0.265625,0.6875
1630059116031,0.65625,0.28125,0.6875
1630059116062,0.65625,0.28125,0.6875
1630059116093,0.65625,0.28125,0.6875
1630059116125,0.65625,0.265625,0.6875
1630059116156,0.65625,0.28125,0.6875
1630059116187,0.65625,0.28125,0.6875
1630059116218,0.65625,0.28125,0.6875
1630059116250,0.65625,0.28125,0.6875
1630059116281,0.65625,0.28125,0.6875
1630059116312,0.65625,0.28125,0.6875
1630059116343,0.65625,0.265625,0.6875
1630059116375,0.65625,0.28125,0.6875
1630059116406,0.65625,0.28125,0.6875
1630059116437,0.65625,0.28125,0.6875
1630059116468,0.65625,0.28125,0.6875
1630059116500,0.65625,0.265625,0.6875
1630059116531,0.65625,0.28125,0.6875
1630059116562,0.65625,0.28125,0.6875
1630059116593,0.65625,0.28125,0.6875
1630059116625,0.65625,0.28125,0.6875
1630059116656,0.65625,0.28125,0.6875
1630059116687,0.65625,0.265625,0.6875
1630059116718,0.65625,0.265625,0.6875
1630059116750,0.65625,0.265625,0.6875
1630059116781,0.65625,0.28125,0.6875
1630059116812,0.65625,0.28125,0.6875
1630059116843,0.65625,0.265625,0.6875
1630059116875,0.65625,0.28125,0.6875
1630059116906,0.65625,0.265625,0.6875
1630059116937,0.65625,0.28125,0.6875
1630059116968,0.65625,0.28125,0.6875
1630059117000,0.671875,0.265625,0.6875
1630059117031,0.65625,0.28125,0.6875
1630059117062,0.65625,0.265625,0.6875
1630059117093,0.65625,0.265625,0.6875
1630059117125,0.65625,0.265625,0.6875
1630059117156,0.65625,0.265625,0.6875
1630059117187,0.65625,0.28125,0.6875
1630059117218,0.65625,0.265625,0.6875
1630059117250,0.65625,0.28125,0.6875
1630059117281,0.65625,0.265625,0.6875
1630059117312,0.65625,0.265625,0.6875
1630059117343,0.65625,0.265625,0.6875
1630059117375,0.65625,0.265625,0.6875
1630059117406,0.65625,0.265625,0.6875
1630059117437,0.65625,0.265625,0.6875
1630059117468,0.65625,0.265625,0.6875
1630059117500,0.65625,0.28125,0.6875
1630059117531,0.65625,0.265625,0.6875
1630059117562,0.65625,0.265625,0.6875
1630059117593,0.65625,0.265625,0.6875
1630059117625,0.65625,0.28125,0.6875
1630059117656,0.65625,0.28125,0.6875
1630059117687,0.65625,0.265625,0.6875
1630059117718,0.671875,0.265625,0.6875
1630059117750,0.65625,0.265625,0.6875
1630059117781,0.65625,0.265625,0.6875
1630059117812,0.65625,0.28125,0.6875
1630059117843,0.65625,0.265625,0.6875
1630059117875,0.65625,0.265625,0.6875
1630059117906,0.65625,0.28125,0.6875
1630059117937,0.65625,0.265625,0.6875
1630059117968,0.65625,0.265625,0.6875
1630059118000,0.65625,0.265625,0.6875
1630059118031,0.65625,0.265625,0.6875
1630059118062,0.671875,0.28125,0.6875
1630059118093,0.65625,0.265625,0.6875
1630059118125,0.65625,0.265625,0.6875
1630059118156,0.65625,0.28125,0.6875
1630059118187,0.65625,0.265625,0.6875
1630059118218,0.65625,0.28125,0.6875
1630059118250,0.65625,0.28125,0.6875
1630059118281,0.65625,0.265625,0.6875
1630059118312,0.65625,0.265625,0.6875
1630059118343,0.65625,0.28125,0.6875
1630059118375,0.65625,0.265625,0.6875
1630059118406,0.65625,0.265625,0.6875
1630059118437,0.65625,0.28125,0.6875
1630059118468,0.65625,0.28125,0.6875
1630059118500,0.65625,0.28125,0.6875
1630059118531,0.65625,0.28125,0.6875
1630059118562,0.65625,0.28125,0.6875
1630059118593,0.65625,0.28125,0.6875
1630059118625,0.65625,0.28125,0.6875
1630059118656,0.65625,0.28125,0.6875
1630059118687,0.65625,0.28125,0.6875
1630059118718,0.65625,0.28125,0.6875
1630059118750,0.65625,0.28125,0.6875
1630059118781,0.65625,0.28125,0.6875
1630059118812,0.65625,0.28125,0.6875
1630059118843,0.65625,0.28125,0.6875
1630059118875,0.65625,0.28125,0.6875
1630059118906,0.65625,0.28125,0.6875
1630059118937,0.65625,0.28125,0.6875
1630059118968,0.65625,0.28125,0.6875
1630059119000,0.65625,0.28125,0.6875
1630059119031,0.671875,0.28125,0.6875
1630059119062,0.65625,0.28125,0.6875
1630059119093,0.65625,0.28125,0.703125
1630059119125,0.65625,0.28125,0.6875
1630059119156,0.65625,0.28125,0.6875
1630059119187,0.65625,0.28125,0.6875
1630059119218,0.65625,0.28125,0.6875
1630059119250,0.65625,0.28125,0.6875
1630059119281,0.65625,0.28125,0.6875
1630059119312,0.65625,0.28125,0.6875
1630059119343,0.65625,0.28125,0.6875
1630059119375,0.65625,0.28125,0.6875
1630059119406,0.65625,0.28125,0.6875
1630059119437,0.65625,0.28125,0.6875
1630059119468,0.65625,0.28125,0.6875
1630059119500,0.65625,0.28125,0.6875
1630059119531,0.65625,0.28125,0.6875
1630059119562,0.65625,0.28125,0.6875
1630059119593,0.65625,0.28125,0.6875
1630059119625,0.65625,0.28125,0.6875
1630059119656,0.65625,0.28125,0.6875
1630059119687,0.65625,0.28125,0.6875
1630059119718,0.65625,0.28125,0.6875
1630059119750,0.65625,0.28125,0.6875
1630059119781,0.65625,0.28125,0.6875
1630059119812,0.65625,0.28125,0.6875
1630059119843,0.65625,0.28125,0.6875
1630059119875,0.65625,0.28125,0.6875
1630059119906,0.65625,0.28125,0.6875
1630059119937,0.65625,0.28125,0.6875
1630059119968,0.65625,0.265625,0.6875
1630059120000,0.65625,0.28125,0.6875
1630059120031,0.65625,0.28125,0.6875
1630059120062,0.65625,0.28125,0.6875
1630059120093,0.65625,0.28125,0.6875
1630059120125,0.65625,0.28125,0.6875
1630059120156,0.65625,0.28125,0.6875
1630059120187,0.65625,0.28125,0.703125
1630059120218,0.65625,0.28125,0.6875
1630059120250,0.65625,0.28125,0.6875
1630059120281,0.65625,0.28125,0.6875
1630059120312,0.65625,0.265625,0.6875
1630059120343,0.65625,0.265625,0.6875
1630059120375,0.65625,0.265625,0.6875
1630059120406,0.65625,0.28125,0.703125
1630059120437,0.65625,0.28125,0.6875
1630059120468,0.65625,0.28125,0.6875
1630059120500,0.65625,0.265625,0.6875
1630059120531,0.65625,0.28125,0.6875
1630059120562,0.65625,0.28125,0.6875
1630059120593,0.65625,0.28125,0.6875
1630059120625,0.65625,0.28125,0.6875
1630059120656,0.65625,0.28125,0.6875
1630059120687,0.65625,0.28125,0.6875
1630059120718,0.65625,0.28125,0.6875
1630059120750,0.65625,0.28125,0.6875
1630059120781,0.65625,0.28125,0.6875
1630059120812,0.65625,0.265625,0.6875
1630059120843,0.65625,0.28125,0.6875
1630059120875,0.65625,0.265625,0.6875
1630059120906,0.65625,0.28125,0.6875
1630059120937,0.65625,0.28125,0.6875
1630059120968,0.65625,0.265625,0.6875
1630059121000,0.65625,0.265625,0.6875
1630059121031,0.65625,0.265625,0.6875
1630059121062,0.65625,0.265625,0.6875
1630059121093,0.65625,0.28125,0.703125
1630059121125,0.65625,0.28125,0.6875
1630059121156,0.65625,0.28125,0.6875
1630059121187,0.65625,0.28125,0.6875
1630059121218,0.65625,0.265625,0.6875
1630059121250,0.65625,0.265625,0.6875
1630059121281,0.65625,0.28125,0.6875
1630059121312,0.65625,0.28125,0.703125
1630059121343,0.65625,0.28125,0.6875
1630059121375,0.65625,0.265625,0.6875
1630059121406,0.65625,0.265625,0.6875
1630059121437,0.65625,0.28125,0.6875
1630059121468,0.65625,0.28125,0.6875
1630059121500,0.65625,0.28125,0.6875
1630059121531,0.65625,0.265625,0.6875
1630059121562,0.65625,0.28125,0.6875
1630059121593,0.65625,0.28125,0.6875
1630059121625,0.65625,0.28125,0.6875
1630059121656,0.65625,0.265625,0.6875
1630059121687,0.671875,0.28125,0.6875
1630059121718,0.65625,0.265625,0.6875
1630059121750,0.65625,0.28125,0.6875
1630059121781,0.65625,0.265625,0.6875
1630059121812,0.65625,0.265625,0.6875
1630059121843,0.65625,0.28125,0.6875
1630059121875,0.65625,0.265625,0.6875
1630059121906,0.65625,0.28125,0.6875
1630059121937,0.65625,0.265625,0.6875
1630059121968,0.65625,0.265625,0.6875
1630059122000,0.65625,0.28125,0.6875
1630059122031,0.65625,0.28125,0.703125
1630059122062,0.65625,0.265625,0.6875
1630059122093,0.65625,0.265625,0.6875
1630059122125,0.65625,0.265625,0.6875
1630059122156,0.65625,0.28125,0.6875
1630059122187,0.65625,0.28125,0.6875
1630059122218,0.65625,0.28125,0.6875
1630059122250,0.65625,0.28125,0.6875
1630059122281,0.65625,0.265625,0.6875
1630059122312,0.65625,0.265625,0.6875
1630059122343,0.65625,0.265625,0.6875
1630059122375,0.65625,0.265625,0.6875
1630059122406,0.65625,0.28125,0.6875
1630059122437,0.65625,0.28125,0.6875
1630059122468,0.65625,0.28125,0.6875
1630059122500,0.65625,0.28125,0.6875
1630059122531,0.65625,0.265625,0.6875
1630059122562,0.65625,0.265625,0.6875
1630059122593,0.671875,0.28125,0.6875
1630059122625,0.671875,0.265625,0.6875
1630059122656,0.65625,0.28125,0.6875
1630059122687,0.65625,0.28125,0.6875
1630059122718,0.65625,0.28125,0.6875
1630059122750,0.65625,0.28125,0.6875
1630059122781,0.65625,0.28125,0.6875
1630059122812,0.65625,0.28125,0.6875
1630059122843,0.65625,0.28125,0.6875
1630059122875,0.65625,0.28125,0.6875
1630059122906,0.65625,0.28125,0.6875
1630059122937,0.65625,0.265625,0.6875
1630059122968,0.65625,0.28125,0.6875
1630059123000,0.65625,0.28125,0.6875
1630059123031,0.65625,0.28125,0.6875
1630059123062,0.65625,0.28125,0.6875
1630059123093,0.65625,0.28125,0.6875
1630059123125,0.65625,0.28125,0.6875
1630059123156,0.65625,0.28125,0.6875
1630059123187,0.65625,0.28125,0.6875
1630059123218,0.65625,0.28125,0.6875
1630059123250,0.65625,0.28125,0.6875
1630059123281,0.65625,0.28125,0.6875
1630059123312,0.65625,0.28125,0.6875
1630059123343,0.65625,0.28125,0.6875
1630059123375,0.65625,0.28125,0.6875
1630059123406,0.65625,0.28125,0.6875
1630059123437,0.65625,0.28125,0.6875
1630059123468,0.65625,0.28125,0.6875
1630059123500,0.671875,0.28125,0.6875
1630059123531,0.65625,0.28125,0.6875
1630059123562,0.65625,0.28125,0.703125
1630059123593,0.65625,0.28125,0.6875
1630059123625,0.65625,0.28125,0.6875
1630059123656,0.65625,0.28125,0.6875
1630059123687,0.65625,0.28125,0.6875
1630059123718,0.65625,0.28125,0.6875
1630059123750,0.65625,0.28125,0.6875
1630059123781,0.65625,0.28125,0.6875
1630059123812,0.65625,0.28125,0.6875
1630059123843,0.65625,0.28125,0.6875
1630059123875,0.65625,0.28125,0.6875
1630059123906,0.65625,0.28125,0.6875
1630059123937,0.65625,0.28125,0.6875
1630059123968,0.65625,0.28125,0.6875
1630059124000,0.65625,0.28125,0.6875
1630059124031,0.65625,0.28125,0.6875
1630059124062,0.65625,0.28125,0.6875
1630059124093,0.65625,0.28125,0.6875
1630059124125,0.65625,0.28125,0.6875
1630059124156,0.65625,0.28125,0.703125
1630059124187,0.65625,0.28125,0.6875
1630059124218,0.65625,0.28125,0.6875
1630059124250,0.65625,0.28125,0.6875
1630059124281,0.65625,0.28125,0.6875
1630059124312,0.65625,0.28125,0.6875
1630059124343,0.65625,0.28125,0.6875
1630059124375,0.65625,0.265625,0.6875
1630059124406,0.65625,0.28125,0.6875
1630059124437,0.65625,0.28125,0.6875
1630059124468,0.65625,0.265625,0.6875
1630059124500,0.65625,0.28125,0.6875
1630059124531,0.65625,0.265625,0.6875
1630059124562,0.65625,0.28125,0.6875
1630059124593,0.65625,0.265625,0.6875
1630059124625,0.65625,0.28125,0.6875
1630059124656,0.65625,0.28125,0.6875
1630059124687,0.65625,0.28125,0.6875
1630059124718,0.65625,0.265625,0.6875
1630059124750,0.65625,0.28125,0.6875
1630059124781,0.65625,0.28125,0.6875
1630059124812,0.65625,0.28125,0.6875
1630059124843,0.65625,0.28125,0.6875
1630059124875,0.65625,0.265625,0.6875
1630059124906,0.65625,0.28125,0.6875
1630059124937,0.65625,0.28125,0.703125
1630059124968,0.65625,0.28125,0.6875
1630059125000,0.65625,0.265625,0.6875
1630059125031,0.65625,0.28125,0.6875
1630059125062,0.65625,0.28125,0.6875
1630059125093,0.65625,0.28125,0.6875
1630059125125,0.65625,0.28125,0.6875
1630059125156,0.65625,0.28125,0.6875
1630059125187,0.65625,0.265625,0.6875
1630059125218,0.65625,0.28125,0.6875
1630059125250,0.65625,0.28125,0.6875
1630059125281,0.65625,0.28125,0.6875
1630059125312,0.65625,0.265625,0.6875
1630059125343,0.65625,0.28125,0.6875
1630059125375,0.65625,0.28125,0.6875
1630059125406,0.65625,0.28125,0.6875
1630059125437,0.65625,0.28125,0.6875
1630059125468,0.65625,0.28125,0.6875
1630059125500,0.65625,0.265625,0.6875
1630059125531,0.65625,0.28125,0.6875
1630059125562,0.65625,0.28125,0.6875
1630059125593,0.65625,0.265625,0.6875
1630059125625,0.65625,0.28125,0.6875
1630059125656,0.65625,0.265625,0.6875
1630059125687,0.65625,0.28125,0.6875
1630059125718,0.65625,0.28125,0.6875
1630059125750,0.65625,0.28125,0.6875
1630059125781,0.65625,0.265625,0.6875
1630059125812,0.65625,0.28125,0.6875
1630059125843,0.65625,0.28125,0.6875
1630059125875,0.65625,0.265625,0.6875
1630059125906,0.65625,0.265625,0.6875
1630059125937,0.65625,0.265625,0.6875
1630059125968,0.65625,0.28125,0.6875
1630059126000,0.65625,0.265625,0.6875
1630059126031,0.65625,0.28125,0.6875
1630059126062,0.65625,0.265625,0.6875
1630059126093,0.65625,0.265625,0.6875
1630059126125,0.65625,0.265625,0.6875
1630059126156,0.65625,0.265625,0.6875
1630059126187,0.65625,0.28125,0.6875
1630059126218,0.671875,0.28125,0.6875
1630059126250,0.65625,0.28125,0.6875
1630059126281,0.65625,0.28125,0.6875
1630059126312,0.65625,0.28125,0.6875
1630059126343,0.65625,0.265625,0.6875
1630059126375,0.65625,0.28125,0.6875
1630059126406,0.65625,0.28125,0.703125
1630059126437,0.65625,0.28125,0.6875
1630059126468,0.65625,0.265625,0.6875
1630059126500,0.65625,0.265625,0.6875
1630059126531,0.65625,0.265625,0.6875
1630059126562,0.65625,0.28125,0.6875
1630059126593,0.65625,0.28125,0.6875
1630059126625,0.65625,0.28125,0.6875
1630059126656,0.65625,0.28125,0.6875
1630059126687,0.65625,0.28125,0.6875
1630059126718,0.65625,0.28125,0.6875
1630059126750,0.65625,0.28125,0.6875
1630059126781,0.65625,0.28125,0.6875
1630059126812,0.65625,0.28125,0.6875
1630059126843,0.65625,0.265625,0.6875
1630059126875,0.65625,0.28125,0.703125
1630059126906,0.65625,0.28125,0.703125
1630059126937,0.65625,0.265625,0.6875
1630059126968,0.65625,0.28125,0.703125
1630059127000,0.65625,0.28125,0.6875
1630059127031,0.65625,0.28125,0.6875
1630059127062,0.65625,0.28125,0.6875
1630059127093,0.65625,0.28125,0.6875
1630059127125,0.65625,0.28125,0.6875
1630059127156,0.65625,0.28125,0.6875
1630059127187,0.65625,0.28125,0.6875
1630059127218,0.65625,0.28125,0.6875
1630059127250,0.65625,0.28125,0.6875
1630059127281,0.65625,0.28125,0.6875
1630059127312,0.65625,0.28125,0.703125
1630059127343,0.65625,0.28125,0.6875
1630059127375,0.65625,0.28125,0.6875
1630059127406,0.65625,0.28125,0.6875
1630059127437,0.65625,0.28125,0.6875
1630059127468,0.65625,0.28125,0.6875
1630059127500,0.65625,0.28125,0.6875
1630059127531,0.65625,0.28125,0.6875
1630059127562,0.65625,0.28125,0.6875
1630059127593,0.65625,0.28125,0.703125
1630059127625,0.65625,0.28125,0.6875
1630059127656,0.65625,0.28125,0.6875
1630059127687,0.65625,0.28125,0.6875
1630059127718,0.65625,0.28125,0.6875
1630059127750,0.65625,0.28125,0.6875
1630059127781,0.65625,0.28125,0.6875
1630059127812,0.65625,0.28125,0.6875
1630059127843,0.65625,0.28125,0.6875
1630059127875,0.65625,0.28125,0.6875
1630059127906,0.65625,0.28125,0.703125
1630059127937,0.65625,0.28125,0.6875
1630059127968,0.65625,0.28125,0.6875
1630059128000,0.65625,0.28125,0.6875
1630059128031,0.65625,0.28125,0.6875
1630059128062,0.65625,0.28125,0.6875
1630059128093,0.65625,0.28125,0.6875
1630059128125,0.65625,0.28125,0.703125
1630059128156,0.65625,0.28125,0.6875
1630059128187,0.65625,0.265625,0.6875
1630059128218,0.65625,0.28125,0.6875
1630059128250,0.65625,0.28125,0.6875
1630059128281,0.65625,0.28125,0.6875
1630059128312,0.65625,0.28125,0.6875
1630059128343,0.65625,0.28125,0.6875
1630059128375,0.65625,0.28125,0.6875
1630059128406,0.65625,0.28125,0.6875
1630059128437,0.65625,0.265625,0.6875
1630059128468,0.65625,0.28125,0.6875
1630059128500,0.65625,0.28125,0.6875
1630059128531,0.65625,0.28125,0.6875
1630059128562,0.65625,0.28125,0.6875
1630059128593,0.65625,0.28125,0.703125
1630059128625,0.65625,0.28125,0.6875
1630059128656,0.65625,0.28125,0.6875
1630059128687,0.65625,0.28125,0.6875
1630059128718,0.671875,0.28125,0.6875
1630059128750,0.65625,0.28125,0.6875
1630059128781,0.65625,0.265625,0.6875
1630059128812,0.65625,0.265625,0.6875
1630059128843,0.65625,0.28125,0.6875
1630059128875,0.65625,0.28125,0.6875
1630059128906,0.65625,0.28125,0.6875
1630059128937,0.65625,0.28125,0.703125
1630059128968,0.65625,0.28125,0.6875
1630059129000,0.65625,0.28125,0.6875
1630059129031,0.65625,0.265625,0.6875
1630059129062,0.65625,0.28125,0.6875
1630059129093,0.65625,0.28125,0.6875
1630059129125,0.65625,0.28125,0.6875
1630059129156,0.65625,0.28125,0.6875
1630059129187,0.65625,0.265625,0.703125
1630059129218,0.65625,0.28125,0.6875
1630059129250,0.65625,0.28125,0.6875
1630059129281,0.65625,0.28125,0.6875
1630059129312,0.65625,0.28125,0.6875
1630059129343,0.65625,0.28125,0.6875
1630059129375,0.65625,0.265625,0.6875
1630059129406,0.65625,0.265625,0.6875
1630059129437,0.65625,0.28125,0.6875
1630059129468,0.65625,0.265625,0.703125
1630059129500,0.65625,0.28125,0.6875
1630059129531,0.65625,0.28125,0.703125
1630059129562,0.65625,0.28125,0.6875
1630059129593,0.65625,0.28125,0.6875
1630059129625,0.65625,0.265625,0.6875
1630059129656,0.65625,0.28125,0.6875
1630059129687,0.65625,0.265625,0.6875
1630059129718,0.65625,0.28125,0.6875
1630059129750,0.65625,0.28125,0.6875
1630059129781,0.671875,0.28125,0.6875
1630059129812,0.65625,0.265625,0.6875
1630059129843,0.65625,0.28125,0.6875
1630059129875,0.65625,0.28125,0.6875
1630059129906,0.65625,0.28125,0.6875
1630059129937,0.65625,0.28125,0.6875
1630059129968,0.65625,0.28125,0.6875
1630059130000,0.65625,0.28125,0.6875
1630059130031,0.65625,0.28125,0.6875
1630059130062,0.65625,0.28125,0.6875
1630059130093,0.65625,0.28125,0.6875
1630059130125,0.65625,0.28125,0.6875
1630059130156,0.65625,0.28125,0.6875
1630059130187,0.65625,0.28125,0.6875
1630059130218,0.65625,0.28125,0.6875
1630059130250,0.65625,0.28125,0.6875
1630059130281,0.65625,0.28125,0.6875
1630059130312,0.65625,0.28125,0.6875
1630059130343,0.65625,0.28125,0.6875
1630059130375,0.65625,0.28125,0.6875
1630059130406,0.65625,0.28125,0.6875
1630059130437,0.65625,0.28125,0.703125
1630059130468,0.640625,0.28125,0.6875
1630059130500,0.65625,0.28125,0.703125
1630059130531,0.65625,0.265625,0.6875
1630059130562,0.65625,0.28125,0.6875
1630059130593,0.65625,0.28125,0.6875
1630059130625,0.65625,0.28125,0.6875
1630059130656,0.65625,0.28125,0.6875
1630059130687,0.65625,0.28125,0.6875
1630059130718,0.65625,0.28125,0.703125
1630059130750,0.65625,0.28125,0.703125
1630059130781,0.65625,0.28125,0.703125
1630059130812,0.65625,0.28125,0.703125
1630059130843,0.65625,0.28125,0.6875
1630059130875,0.640625,0.28125,0.703125
1630059130906,0.65625,0.265625,0.703125
1630059130937,0.65625,0.265625,0.6875
1630059130968,0.65625,0.265625,0.6875
1630059131000,0.640625,0.265625,0.6875
1630059131031,0.65625,0.28125,0.6875
1630059131062,0.65625,0.265625,0.6875
1630059131093,0.65625,0.265625,0.6875
1630059131125,0.65625,0.28125,0.6875
1630059131156,0.65625,0.28125,0.6875
1630059131187,0.65625,0.28125,0.703125
1630059131218,0.640625,0.265625,0.6875
1630059131250,0.640625,0.265625,0.6875
1630059131281,0.65625,0.28125,0.703125
1630059131312,0.65625,0.265625,0.6875
1630059131343,0.65625,0.28125,0.6875
1630059131375,0.65625,0.28125,0.6875
1630059131406,0.671875,0.265625,0.6875
1630059131437,0.65625,0.265625,0.703125
1630059131468,0.65625,0.265625,0.6875
1630059131500,0.671875,0.265625,0.6875
1630059131531,0.65625,0.28125,0.6875
1630059131562,0.65625,0.28125,0.6875
1630059131593,0.65625,0.28125,0.703125
1630059131625,0.65625,0.265625,0.6875
1630059131656,0.65625,0.265625,0.6875
1630059131687,0.65625,0.265625,0.703125
1630059131718,0.65625,0.265625,0.6875
1630059131750,0.65625,0.265625,0.6875
1630059131781,0.65625,0.265625,0.6875
1630059131812,0.65625,0.265625,0.6875
1630059131843,0.65625,0.265625,0.703125
1630059131875,0.65625,0.265625,0.703125
1630059131906,0.65625,0.265625,0.6875
1630059131937,0.65625,0.265625,0.6875
1630059131968,0.65625,0.265625,0.703125
1630059132000,0.671875,0.28125,0.6875
1630059132031,0.65625,0.265625,0.6875
1630059132062,0.65625,0.28125,0.6875
1630059132093,0.671875,0.265625,0.6875
1630059132125,0.65625,0.265625,0.6875
1630059132156,0.671875,0.265625,0.6875
1630059132187,0.65625,0.28125,0.6875
1630059132218,0.65625,0.265625,0.6875
1630059132250,0.65625,0.265625,0.6875
1630059132281,0.65625,0.265625,0.6875
1630059132312,0.65625,0.265625,0.6875
1630059132343,0.65625,0.265625,0.703125
1630059132375,0.65625,0.265625,0.6875
1630059132406,0.65625,0.28125,0.6875
1630059132437,0.65625,0.265625,0.6875
1630059132468,0.65625,0.265625,0.6875
1630059132500,0.65625,0.265625,0.6875
1630059132531,0.65625,0.265625,0.6875
1630059132562,0.65625,0.265625,0.6875
1630059132593,0.65625,0.265625,0.703125
1630059132625,0.65625,0.265625,0.6875
1630059132656,0.65625,0.265625,0.6875
1630059132687,0.65625,0.265625,0.6875
1630059132718,0.65625,0.265625,0.6875
1630059132750,0.65625,0.265625,0.6875
1630059132781,0.65625,0.28125,0.6875
1630059132812,0.65625,0.265625,0.703125
1630059132843,0.65625,0.28125,0.703125
1630059132875,0.65625,0.28125,0.703125
1630059132906,0.640625,0.265625,0.6875
1630059132937,0.65625,0.28125,0.6875
1630059132968,0.65625,0.28125,0.703125
1630059133000,0.65625,0.28125,0.6875
1630059133031,0.65625,0.28125,0.703125
1630059133062,0.65625,0.28125,0.703125
1630059133093,0.640625,0.28125,0.6875
1630059133125,0.65625,0.265625,0.703125
1630059133156,0.65625,0.265625,0.6875
1630059133187,0.65625,0.265625,0.6875
1630059133218,0.65625,0.28125,0.6875
1630059133250,0.65625,0.265625,0.6875
1630059133281,0.65625,0.28125,0.703125
1630059133312,0.65625,0.265625,0.6875
1630059133343,0.65625,0.28125,0.6875
1630059133375,0.65625,0.265625,0.703125
1630059133406,0.65625,0.28125,0.6875
1630059133437,0.65625,0.28125,0.6875
1630059133468,0.65625,0.28125,0.703125
1630059133500,0.640625,0.28125,0.703125
1630059133531,0.65625,0.28125,0.6875
1630059133562,0.65625,0.28125,0.6875
1630059133593,0.65625,0.265625,0.6875
1630059133625,0.65625,0.265625,0.6875
1630059133656,0.65625,0.265625,0.703125
1630059133687,0.65625,0.28125,0.703125
1630059133718,0.640625,0.265625,0.6875
1630059133750,0.65625,0.28125,0.703125
1630059133781,0.65625,0.265625,0.6875
1630059133812,0.65625,0.265625,0.6875
1630059133843,0.65625,0.265625,0.703125
1630059133875,0.65625,0.265625,0.6875
1630059133906,0.65625,0.265625,0.6875
1630059133937,0.65625,0.28125,0.6875
1630059133968,0.65625,0.28125,0.6875
1630059134000,0.65625,0.28125,0.703125
1630059134031,0.640625,0.28125,0.6875
1630059134062,0.65625,0.28125,0.703125
1630059134093,0.65625,0.28125,0.6875
1630059134125,0.65625,0.28125,0.703125
1630059134156,0.640625,0.28125,0.703125
1630059134187,0.65625,0.265625,0.703125
1630059134218,0.65625,0.265625,0.703125
1630059134250,0.65625,0.265625,0.703125
1630059134281,0.65625,0.265625,0.6875
1630059134312,0.65625,0.28125,0.6875
1630059134343,0.65625,0.265625,0.6875
1630059134375,0.65625,0.28125,0.703125
1630059134406,0.65625,0.28125,0.6875
1630059134437,0.65625,0.28125,0.703125
1630059134468,0.65625,0.28125,0.6875
1630059134500,0.65625,0.265625,0.6875
1630059134531,0.65625,0.28125,0.703125
1630059134562,0.65625,0.265625,0.703125
1630059134593,0.65625,0.265625,0.703125
1630059134625,0.65625,0.265625,0.6875
1630059134656,0.65625,0.265625,0.703125
1630059134687,0.65625,0.265625,0.703125
1630059134718,0.65625,0.28125,0.6875
1630059134750,0.65625,0.265625,0.703125
1630059134781,0.65625,0.28125,0.703125
1630059134812,0.65625,0.28125,0.703125
1630059134843,0.65625,0.28125,0.6875
1630059134875,0.65625,0.28125,0.6875
1630059134906,0.65625,0.265625,0.703125
1630059134937,0.65625,0.28125,0.703125
1630059134968,0.65625,0.28125,0.703125
1630059135000,0.65625,0.28125,0.6875
1630059135031,0.65625,0.28125,0.703125
1630059135062,0.65625,0.265625,0.6875
1630059135093,0.65625,0.28125,0.6875
1630059135125,0.65625,0.265625,0.6875
1630059135156,0.65625,0.265625,0.703125
1630059135187,0.65625,0.265625,0.703125
1630059135218,0.65625,0.265625,0.6875
1630059135250,0.65625,0.28125,0.703125
1630059135281,0.65625,0.265625,0.6875
1630059135312,0.65625,0.265625,0.703125
1630059135343,0.65625,0.265625,0.6875
1630059135375,0.65625,0.28125,0.703125
1630059135406,0.65625,0.265625,0.703125
1630059135437,0.65625,0.265625,0.6875
1630059135468,0.65625,0.265625,0.6875
1630059135500,0.65625,0.265625,0.6875
1630059135531,0.65625,0.28125,0.6875
1630059135562,0.65625,0.265625,0.703125
1630059135593,0.65625,0.265625,0.6875
1630059135625,0.65625,0.265625,0.6875
1630059135656,0.65625,0.265625,0.6875
1630059135687,0.65625,0.265625,0.703125
1630059135718,0.65625,0.28125,0.6875
1630059135750,0.65625,0.28125,0.6875
1630059135781,0.65625,0.28125,0.6875
1630059135812,0.65625,0.265625,0.6875
1630059135843,0.65625,0.28125,0.703125
1630059135875,0.65625,0.265625,0.6875
1630059135906,0.65625,0.265625,0.703125
1630059135937,0.65625,0.265625,0.703125
1630059135968,0.65625,0.265625,0.703125
1630059136000,0.65625,0.265625,0.6875
1630059136031,0.65625,0.28125,0.6875
1630059136062,0.65625,0.265625,0.6875
1630059136093,0.65625,0.265625,0.6875
1630059136125,0.65625,0.265625,0.703125
1630059136156,0.65625,0.265625,0.6875
1630059136187,0.65625,0.265625,0.6875
1630059136218,0.65625,0.265625,0.6875
1630059136250,0.65625,0.28125,0.6875
1630059136281,0.65625,0.28125,0.6875
1630059136312,0.65625,0.28125,0.6875
1630059136343,0.65625,0.265625,0.6875
1630059136375,0.65625,0.265625,0.6875
1630059136406,0.65625,0.28125,0.6875
1630059136437,0.65625,0.265625,0.6875
1630059136468,0.65625,0.265625,0.703125
1630059136500,0.65625,0.265625,0.6875
1630059136531,0.65625,0.28125,0.6875
1630059136562,0.65625,0.28125,0.6875
1630059136593,0.65625,0.28125,0.6875
1630059136625,0.65625,0.28125,0.6875
1630059136656,0.65625,0.28125,0.6875
1630059136687,0.65625,0.28125,0.6875
1630059136718,0.640625,0.28125,0.6875
1630059136750,0.65625,0.28125,0.6875
1630059136781,0.65625,0.28125,0.703125
1630059136812,0.65625,0.28125,0.6875
1630059136843,0.65625,0.28125,0.703125
1630059136875,0.65625,0.265625,0.6875
1630059136906,0.65625,0.28125,0.703125
1630059136937,0.65625,0.28125,0.6875
1630059136968,0.65625,0.28125,0.6875
1630059137000,0.640625,0.28125,0.6875
1630059137031,0.65625,0.28125,0.6875
1630059137062,0.65625,0.28125,0.6875
1630059137093,0.65625,0.28125,0.703125
1630059137125,0.65625,0.28125,0.703125
1630059137156,0.65625,0.28125,0.703125
1630059137187,0.65625,0.28125,0.6875
1630059137218,0.65625,0.28125,0.6875
1630059137250,0.65625,0.28125,0.6875
1630059137281,0.640625,0.28125,0.703125
1630059137312,0.65625,0.28125,0.703125
1630059137343,0.65625,0.28125,0.6875
1630059137375,0.65625,0.28125,0.703125
1630059137406,0.640625,0.28125,0.703125
1630059137437,0.65625,0.28125,0.703125
1630059137468,0.65625,0.28125,0.703125
1630059137500,0.65625,0.28125,0.6875
1630059137531,0.65625,0.28125,0.703125
1630059137562,0.65625,0.28125,0.6875
1630059137593,0.65625,0.28125,0.703125
1630059137625,0.65625,0.28125,0.6875
1630059137656,0.65625,0.28125,0.6875
1630059137687,0.640625,0.28125,0.703125
1630059137718,0.640625,0.28125,0.6875
1630059137750,0.65625,0.28125,0.703125
1630059137781,0.65625,0.28125,0.6875
1630059137812,0.65625,0.28125,0.6875
1630059137843,0.640625,0.28125,0.703125
1630059137875,0.640625,0.28125,0.703125
1630059137906,0.65625,0.28125,0.703125
1630059137937,0.65625,0.28125,0.703125
1630059137968,0.65625,0.28125,0.6875
1630059138000,0.65625,0.28125,0.6875
1630059138031,0.65625,0.28125,0.703125
1630059138062,0.65625,0.28125,0.6875
1630059138093,0.65625,0.28125,0.6875
1630059138125,0.65625,0.265625,0.703125
1630059138156,0.65625,0.28125,0.703125
1630059138187,0.65625,0.28125,0.703125
1630059138218,0.65625,0.28125,0.703125
1630059138250,0.65625,0.265625,0.6875
1630059138281,0.65625,0.28125,0.703125
1630059138312,0.65625,0.28125,0.6875
1630059138343,0.65625,0.265625,0.703125
1630059138375,0.65625,0.28125,0.703125
1630059138406,0.65625,0.28125,0.703125
1630059138437,0.640625,0.28125,0.6875
1630059138468,0.65625,0.28125,0.6875
1630059138500,0.65625,0.28125,0.6875
1630059138531,0.65625,0.28125,0.6875
1630059138562,0.65625,0.28125,0.703125
1630059138593,0.65625,0.28125,0.703125
1630059138625,0.65625,0.28125,0.703125
1630059138656,0.65625,0.28125,0.6875
1630059138687,0.65625,0.28125,0.6875
1630059138718,0.65625,0.28125,0.703125
1630059138750,0.65625,0.28125,0.6875
1630059138781,0.65625,0.28125,0.6875
1630059138812,0.65625,0.28125,0.703125
1630059138843,0.65625,0.28125,0.6875
1630059138875,0.65625,0.28125,0.703125
1630059138906,0.65625,0.28125,0.703125
1630059138937,0.65625,0.28125,0.703125
1630059138968,0.65625,0.28125,0.703125
1630059139000,0.65625,0.28125,0.6875
1630059139031,0.65625,0.28125,0.703125
1630059139062,0.65625,0.28125,0.6875
1630059139093,0.65625,0.28125,0.6875
1630059139125,0.65625,0.28125,0.703125
1630059139156,0.65625,0.28125,0.703125
1630059139187,0.65625,0.28125,0.6875
1630059139218,0.65625,0.28125,0.6875
1630059139250,0.640625,0.28125,0.703125
1630059139281,0.65625,0.28125,0.6875
1630059139312,0.65625,0.28125,0.6875
1630059139343,0.65625,0.28125,0.703125
1630059139375,0.65625,0.28125,0.703125
1630059139406,0.640625,0.28125,0.703125
1630059139437,0.65625,0.28125,0.703125
1630059139468,0.65625,0.28125,0.703125
1630059139500,0.65625,0.28125,0.703125
1630059139531,0.640625,0.28125,0.6875
1630059139562,0.65625,0.265625,0.703125
1630059139593,0.65625,0.28125,0.6875
1630059139625,0.65625,0.28125,0.703125
1630059139656,0.65625,0.28125,0.6875
1630059139687,0.65625,0.265625,0.6875
1630059139718,0.65625,0.265625,0.703125
1630059139750,0.65625,0.265625,0.6875
1630059139781,0.65625,0.28125,0.6875
1630059139812,0.65625,0.265625,0.703125
1630059139843,0.65625,0.28125,0.703125
1630059139875,0.65625,0.28125,0.703125
1630059139906,0.65625,0.28125,0.703125
1630059139937,0.65625,0.28125,0.6875
1630059139968,0.65625,0.28125,0.703125
1630059140000,0.65625,0.265625,0.703125
1630059140031,0.65625,0.28125,0.703125
1630059140062,0.65625,0.28125,0.6875
1630059140093,0.65625,0.28125,0.703125
1630059140125,0.65625,0.28125,0.6875
1630059140156,0.65625,0.28125,0.6875
1630059140187,0.65625,0.265625,0.703125
1630059140218,0.65625,0.265625,0.6875
1630059140250,0.65625,0.28125,0.6875
1630059140281,0.65625,0.28125,0.6875
1630059140312,0.65625,0.28125,0.703125
1630059140343,0.65625,0.265625,0.703125
1630059140375,0.65625,0.265625,0.6875
1630059140406,0.65625,0.28125,0.703125
1630059140437,0.65625,0.265625,0.703125
1630059140468,0.65625,0.28125,0.703125
1630059140500,0.65625,0.28125,0.6875
1630059140531,0.65625,0.28125,0.6875
1630059140562,0.65625,0.28125,0.6875
1630059140593,0.65625,0.28125,0.6875
1630059140625,0.640625,0.265625,0.703125
1630059140656,0.65625,0.265625,0.703125
1630059140687,0.65625,0.28125,0.6875
1630059140718,0.640625,0.28125,0.703125
1630059140750,0.65625,0.28125,0.703125
1630059140781,0.65625,0.265625,0.6875
1630059140812,0.65625,0.28125,0.703125
1630059140843,0.65625,0.28125,0.6875
1630059140875,0.65625,0.28125,0.703125
1630059140906,0.65625,0.265625,0.703125
1630059140937,0.640625,0.28125,0.6875
1630059140968,0.65625,0.28125,0.6875
1630059141000,0.65625,0.28125,0.6875
1630059141031,0.65625,0.28125,0.703125
1630059141062,0.65625,0.28125,0.6875
1630059141093,0.65625,0.28125,0.703125
1630059141125,0.640625,0.28125,0.703125
1630059141156,0.65625,0.265625,0.6875
1630059141187,0.65625,0.28125,0.6875
1630059141218,0.65625,0.28125,0.703125
1630059141250,0.65625,0.28125,0.703125
1630059141281,0.65625,0.28125,0.6875
1630059141312,0.65625,0.28125,0.703125
1630059141343,0.65625,0.265625,0.703125
1630059141375,0.65625,0.28125,0.703125
1630059141406,0.65625,0.28125,0.703125
1630059141437,0.65625,0.265625,0.6875
1630059141468,0.65625,0.28125,0.6875
1630059141500,0.65625,0.28125,0.703125
1630059141531,0.65625,0.28125,0.703125
1630059141562,0.65625,0.265625,0.703125
1630059141593,0.65625,0.28125,0.703125
1630059141625,0.65625,0.28125,0.6875
1630059141656,0.65625,0.28125,0.6875
1630059141687,0.65625,0.28125,0.703125
1630059141718,0.65625,0.28125,0.6875
1630059141750,0.65625,0.265625,0.703125
1630059141781,0.65625,0.28125,0.703125
1630059141812,0.65625,0.28125,0.6875
1630059141843,0.65625,0.265625,0.6875
1630059141875,0.65625,0.28125,0.6875
1630059141906,0.640625,0.28125,0.703125
1630059141937,0.65625,0.265625,0.703125
1630059141968,0.65625,0.265625,0.703125
1630059142000,0.65625,0.28125,0.6875
1630059142031,0.65625,0.265625,0.6875
1630059142062,0.65625,0.28125,0.6875
1630059142093,0.640625,0.28125,0.6875
1630059142125,0.65625,0.265625,0.6875
1630059142156,0.640625,0.265625,0.703125
1630059142187,0.65625,0.28125,0.6875
1630059142218,0.65625,0.265625,0.703125
1630059142250,0.65625,0.265625,0.6875
1630059142281,0.65625,0.28125,0.6875
1630059142312,0.65625,0.265625,0.703125
1630059142343,0.640625,0.28125,0.6875
1630059142375,0.65625,0.28125,0.6875
1630059142406,0.65625,0.265625,0.6875
1630059142437,0.65625,0.265625,0.703125
1630059142468,0.640625,0.28125,0.6875
1630059142500,0.65625,0.28125,0.703125
1630059142531,0.65625,0.28125,0.6875
1630059142562,0.65625,0.28125,0.6875
1630059142593,0.65625,0.28125,0.6875
1630059142625,0.65625,0.265625,0.6875
1630059142656,0.65625,0.265625,0.6875
1630059142687,0.65625,0.28125,0.703125
1630059142718,0.65625,0.28125,0.703125
1630059142750,0.65625,0.28125,0.703125
1630059142781,0.65625,0.28125,0.6875
1630059142812,0.65625,0.265625,0.6875
1630059142843,0.65625,0.28125,0.6875
1630059142875,0.65625,0.28125,0.703125
1630059142906,0.65625,0.28125,0.703125
1630059142937,0.65625,0.265625,0.6875
1630059142968,0.65625,0.28125,0.703125
1630059143000,0.65625,0.28125,0.6875
1630059143031,0.65625,0.265625,0.703125
1630059143062,0.65625,0.28125,0.703125
1630059143093,0.65625,0.28125,0.703125
1630059143125,0.65625,0.28125,0.703125
1630059143156,0.65625,0.28125,0.703125
1630059143187,0.65625,0.28125,0.703125
1630059143218,0.640625,0.28125,0.703125
1630059143250,0.65625,0.28125,0.6875
1630059143281,0.640625,0.28125,0.703125
1630059143312,0.640625,0.28125,0.703125
1630059143343,0.65625,0.28125,0.6875
1630059143375,0.65625,0.28125,0.703125
1630059143406,0.65625,0.28125,0.703125
1630059143437,0.640625,0.28125,0.6875
1630059143468,0.65625,0.28125,0.703125
1630059143500,0.65625,0.28125,0.6875
1630059143531,0.65625,0.28125,0.6875
1630059143562,0.65625,0.28125,0.703125
1630059143593,0.640625,0.28125,0.703125
1630059143625,0.65625,0.28125,0.6875
1630059143656,0.65625,0.28125,0.6875
1630059143687,0.640625,0.28125,0.703125
1630059143718,0.640625,0.28125,0.703125
1630059143750,0.640625,0.28125,0.703125
1630059143781,0.65625,0.28125,0.6875
1630059143812,0.640625,0.28125,0.703125
1630059143843,0.640625,0.28125,0.703125
1630059143875,0.640625,0.28125,0.703125
1630059143906,0.640625,0.28125,0.703125
1630059143937,0.65625,0.28125,0.6875
1630059143968,0.65625,0.28125,0.703125
1630059144000,0.640625,0.28125,0.6875
1630059144031,0.640625,0.28125,0.703125
1630059144062,0.65625,0.28125,0.703125
1630059144093,0.65625,0.28125,0.703125
1630059144125,0.65625,0.28125,0.6875
1630059144156,0.640625,0.28125,0.703125
1630059144187,0.65625,0.28125,0.703125
1630059144218,0.65625,0.28125,0.703125
1630059144250,0.640625,0.28125,0.6875
1630059144281,0.640625,0.28125,0.6875
1630059144312,0.640625,0.28125,0.703125
1630059144343,0.65625,0.28125,0.6875
1630059144375,0.65625,0.28125,0.703125
1630059144406,0.65625,0.28125,0.703125
1630059144437,0.640625,0.28125,0.703125
1630059144468,0.640625,0.28125,0.703125
1630059144500,0.640625,0.28125,0.703125
1630059144531,0.65625,0.28125,0.703125
1630059144562,0.65625,0.28125,0.6875
1630059144593,0.65625,0.28125,0.703125
1630059144625,0.65625,0.28125,0.703125
1630059144656,0.65625,0.28125,0.703125
1630059144687,0.65625,0.28125,0.703125
1630059144718,0.65625,0.28125,0.6875
1630059144750,0.65625,0.28125,0.703125
1630059144781,0.640625,0.28125,0.6875
1630059144812,0.65625,0.28125,0.703125
1630059144843,0.65625,0.28125,0.703125
1630059144875,0.65625,0.28125,0.703125
1630059144906,0.640625,0.28125,0.703125
1630059144937,0.65625,0.28125,0.703125
1630059144968,0.65625,0.28125,0.6875
1630059145000,0.65625,0.28125,0.703125
1630059145031,0.65625,0.28125,0.703125
1630059145062,0.65625,0.28125,0.6875
1630059145093,0.65625,0.28125,0.703125
1630059145125,0.65625,0.28125,0.703125
1630059145156,0.65625,0.28125,0.703125
1630059145187,0.65625,0.28125,0.703125
1630059145218,0.65625,0.28125,0.6875
1630059145250,0.65625,0.28125,0.703125
1630059145281,0.640625,0.28125,0.703125
1630059145312,0.65625,0.28125,0.703125
1630059145343,0.65625,0.28125,0.6875
1630059145375,0.65625,0.28125,0.6875
1630059145406,0.65625,0.28125,0.703125
1630059145437,0.65625,0.28125,0.703125
1630059145468,0.65625,0.28125,0.703125
1630059145500,0.65625,0.265625,0.703125
1630059145531,0.65625,0.28125,0.703125
1630059145562,0.65625,0.28125,0.703125
1630059145593,0.640625,0.28125,0.703125
1630059145625,0.65625,0.28125,0.703125
1630059145656,0.65625,0.28125,0.703125
1630059145687,0.65625,0.28125,0.703125
1630059145718,0.65625,0.265625,0.6875
1630059145750,0.640625,0.265625,0.6875
1630059145781,0.65625,0.28125,0.6875
1630059145812,0.65625,0.28125,0.6875
1630059145843,0.640625,0.265625,0.703125
1630059145875,0.640625,0.265625,0.6875
1630059145906,0.65625,0.265625,0.703125
1630059145937,0.671875,0.265625,0.6875
1630059145968,0.671875,0.28125,0.6875
1630059146000,0.65625,0.28125,0.6875
1630059146031,0.65625,0.265625,0.6875
1630059146062,0.65625,0.265625,0.6875
1630059146093,0.640625,0.265625,0.6875
1630059146125,0.640625,0.265625,0.6875
1630059146156,0.65625,0.265625,0.703125
1630059146187,0.671875,0.265625,0.6875
1630059146218,0.671875,0.28125,0.6875
1630059146250,0.65625,0.28125,0.6875
1630059146281,0.640625,0.28125,0.6875
1630059146312,0.65625,0.28125,0.6875
1630059146343,0.671875,0.28125,0.6875
1630059146375,0.671875,0.28125,0.703125
1630059146406,0.65625,0.28125,0.6875
1630059146437,0.65625,0.28125,0.6875
1630059146468,0.640625,0.265625,0.6875
1630059146500,0.671875,0.265625,0.703125
1630059146531,0.671875,0.28125,0.703125
1630059146562,0.640625,0.265625,0.6875
1630059146593,0.640625,0.265625,0.6875
1630059146625,0.65625,0.265625,0.6875
1630059146656,0.671875,0.265625,0.6875
1630059146687,0.671875,0.265625,0.6875
1630059146718,0.65625,0.28125,0.6875
1630059146750,0.65625,0.28125,0.6875
1630059146781,0.65625,0.28125,0.6875
1630059146812,0.65625,0.265625,0.6875
1630059146843,0.65625,0.265625,0.6875
1630059146875,0.65625,0.265625,0.703125
1630059146906,0.65625,0.265625,0.703125
1630059146937,0.65625,0.265625,0.703125
1630059146968,0.640625,0.28125,0.703125
1630059147000,0.640625,0.28125,0.703125
1630059147031,0.640625,0.28125,0.703125
1630059147062,0.65625,0.28125,0.6875
1630059147093,0.65625,0.28125,0.703125
1630059147125,0.65625,0.28125,0.6875
1630059147156,0.65625,0.28125,0.6875
1630059147187,0.65625,0.28125,0.6875
1630059147218,0.65625,0.28125,0.703125
1630059147250,0.65625,0.28125,0.6875
1630059147281,0.65625,0.28125,0.703125
1630059147312,0.65625,0.265625,0.6875
1630059147343,0.65625,0.265625,0.703125
1630059147375,0.65625,0.265625,0.6875
1630059147406,0.671875,0.265625,0.6875
1630059147437,0.65625,0.265625,0.703125
1630059147468,0.65625,0.265625,0.6875
1630059147500,0.65625,0.28125,0.6875
1630059147531,0.65625,0.265625,0.703125
1630059147562,0.65625,0.265625,0.6875
1630059147593,0.65625,0.265625,0.6875
1630059147625,0.65625,0.265625,0.703125
1630059147656,0.65625,0.265625,0.6875
1630059147687,0.65625,0.265625,0.703125
1630059147718,0.65625,0.265625,0.6875
1630059147750,0.65625,0.265625,0.6875
1630059147781,0.65625,0.265625,0.6875
1630059147812,0.65625,0.265625,0.6875
1630059147843,0.640625,0.265625,0.703125
1630059147875,0.65625,0.265625,0.6875
1630059147906,0.65625,0.265625,0.703125
1630059147937,0.65625,0.265625,0.703125
1630059147968,0.65625,0.265625,0.6875
1630059148000,0.65625,0.265625,0.703125
1630059148031,0.65625,0.265625,0.6875
1630059148062,0.65625,0.265625,0.6875
1630059148093,0.65625,0.28125,0.6875
1630059148125,0.65625,0.28125,0.6875
1630059148156,0.65625,0.265625,0.703125
1630059148187,0.65625,0.265625,0.703125
1630059148218,0.65625,0.265625,0.6875
1630059148250,0.65625,0.265625,0.703125
1630059148281,0.65625,0.265625,0.703125
1630059148312,0.65625,0.265625,0.703125
1630059148343,0.65625,0.28125,0.703125
1630059148375,0.65625,0.265625,0.6875
1630059148406,0.65625,0.28125,0.6875
1630059148437,0.65625,0.28125,0.6875
1630059148468,0.65625,0.28125,0.6875
1630059148500,0.65625,0.28125,0.703125
1630059148531,0.65625,0.28125,0.703125
1630059148562,0.65625,0.265625,0.703125
1630059148593,0.65625,0.28125,0.703125
1630059148625,0.65625,0.265625,0.6875
1630059148656,0.65625,0.28125,0.703125
1630059148687,0.671875,0.28125,0.703125
1630059148718,0.65625,0.28125,0.6875
1630059148750,0.65625,0.28125,0.6875
1630059148781,0.65625,0.28125,0.6875
1630059148812,0.640625,0.28125,0.6875
1630059148843,0.65625,0.28125,0.703125
1630059148875,0.65625,0.28125,0.6875
1630059148906,0.65625,0.28125,0.703125
1630059148937,0.640625,0.28125,0.6875
1630059148968,0.65625,0.28125,0.703125
1630059149000,0.640625,0.28125,0.6875
1630059149031,0.65625,0.28125,0.703125
1630059149062,0.65625,0.28125,0.703125
1630059149093,0.65625,0.28125,0.6875
1630059149125,0.640625,0.28125,0.703125
1630059149156,0.640625,0.28125,0.703125
1630059149187,0.640625,0.28125,0.6875
1630059149218,0.65625,0.28125,0.6875
1630059149250,0.65625,0.28125,0.703125
1630059149281,0.640625,0.28125,0.703125
1630059149312,0.640625,0.28125,0.703125
1630059149343,0.65625,0.28125,0.703125
1630059149375,0.65625,0.28125,0.703125
1630059149406,0.640625,0.28125,0.703125
1630059149437,0.640625,0.28125,0.703125
1630059149468,0.65625,0.28125,0.703125
1630059149500,0.65625,0.28125,0.703125
1630059149531,0.640625,0.28125,0.703125
1630059149562,0.640625,0.28125,0.6875
1630059149593,0.65625,0.28125,0.703125
1630059149625,0.65625,0.28125,0.703125
1630059149656,0.65625,0.28125,0.703125
1630059149687,0.65625,0.28125,0.703125
1630059149718,0.65625,0.28125,0.6875
1630059149750,0.65625,0.28125,0.6875
1630059149781,0.65625,0.28125,0.6875
1630059149812,0.65625,0.28125,0.703125
1630059149843,0.65625,0.28125,0.6875
1630059149875,0.65625,0.28125,0.703125
1630059149906,0.640625,0.28125,0.703125
1630059149937,0.65625,0.28125,0.6875
1630059149968,0.65625,0.28125,0.6875
1630059150000,0.65625,0.28125,0.6875
1630059150031,0.640625,0.28125,0.703125
1630059150062,0.640625,0.28125,0.703125
1630059150093,0.65625,0.28125,0.6875
1630059150125,0.65625,0.265625,0.6875
1630059150156,0.65625,0.28125,0.703125
1630059150187,0.65625,0.28125,0.6875
1630059150218,0.65625,0.28125,0.703125
1630059150250,0.65625,0.28125,0.6875
1630059150281,0.65625,0.28125,0.703125
1630059150312,0.65625,0.28125,0.703125
1630059150343,0.65625,0.28125,0.703125
1630059150375,0.65625,0.28125,0.703125
1630059150406,0.65625,0.28125,0.703125
1630059150437,0.65625,0.28125,0.703125
1630059150468,0.65625,0.28125,0.703125
1630059150500,0.640625,0.265625,0.703125
1630059150531,0.65625,0.28125,0.6875
1630059150562,0.65625,0.265625,0.703125
1630059150593,0.65625,0.28125,0.6875
1630059150625,0.65625,0.28125,0.703125
1630059150656,0.65625,0.28125,0.703125
1630059150687,0.640625,0.28125,0.703125
1630059150718,0.65625,0.28125,0.6875
1630059150750,0.65625,0.28125,0.6875
1630059150781,0.65625,0.28125,0.6875
1630059150812,0.65625,0.28125,0.703125
1630059150843,0.65625,0.28125,0.703125
1630059150875,0.640625,0.28125,0.703125
1630059150906,0.65625,0.28125,0.6875
1630059150937,0.65625,0.28125,0.6875
1630059150968,0.65625,0.28125,0.6875
1630059151000,0.65625,0.28125,0.703125
1630059151031,0.65625,0.28125,0.703125
1630059151062,0.65625,0.28125,0.703125
1630059151093,0.65625,0.28125,0.703125
1630059151125,0.65625,0.28125,0.703125
1630059151156,0.65625,0.28125,0.703125
1630059151187,0.640625,0.265625,0.6875
1630059151218,0.65625,0.28125,0.703125
1630059151250,0.65625,0.28125,0.703125
1630059151281,0.65625,0.265625,0.6875
1630059151312,0.65625,0.28125,0.703125
1630059151343,0.65625,0.265625,0.6875
1630059151375,0.65625,0.265625,0.703125
1630059151406,0.65625,0.28125,0.703125
1630059151437,0.65625,0.28125,0.703125
1630059151468,0.640625,0.265625,0.6875
1630059151500,0.65625,0.28125,0.6875
1630059151531,0.65625,0.265625,0.6875
1630059151562,0.65625,0.265625,0.703125
1630059151593,0.65625,0.265625,0.6875
1630059151625,0.65625,0.28125,0.6875
1630059151656,0.65625,0.28125,0.703125
1630059151687,0.640625,0.28125,0.703125
1630059151718,0.640625,0.28125,0.703125
1630059151750,0.640625,0.28125,0.6875
1630059151781,0.65625,0.28125,0.703125
1630059151812,0.65625,0.28125,0.703125
1630059151843,0.65625,0.28125,0.703125
1630059151875,0.640625,0.265625,0.6875
1630059151906,0.65625,0.28125,0.703125
1630059151937,0.65625,0.28125,0.703125
1630059151968,0.65625,0.28125,0.6875
1630059152000,0.65625,0.28125,0.6875
1630059152031,0.640625,0.28125,0.703125
1630059152062,0.65625,0.28125,0.703125
1630059152093,0.65625,0.28125,0.6875
1630059152125,0.65625,0.28125,0.703125
1630059152156,0.65625,0.265625,0.703125
1630059152187,0.65625,0.28125,0.703125
1630059152218,0.65625,0.28125,0.6875
1630059152250,0.640625,0.28125,0.6875
1630059152281,0.640625,0.28125,0.703125
1630059152312,0.640625,0.28125,0.703125
1630059152343,0.65625,0.28125,0.703125
1630059152375,0.65625,0.28125,0.703125
1630059152406,0.65625,0.28125,0.6875
1630059152437,0.640625,0.28125,0.703125
1630059152468,0.640625,0.28125,0.703125
1630059152500,0.65625,0.28125,0.6875
1630059152531,0.640625,0.265625,0.703125
1630059152562,0.640625,0.28125,0.703125
1630059152593,0.65625,0.28125,0.703125
1630059152625,0.640625,0.28125,0.703125
1630059152656,0.640625,0.28125,0.6875
1630059152687,0.640625,0.28125,0.6875
1630059152718,0.65625,0.28125,0.703125
1630059152750,0.65625,0.28125,0.703125
1630059152781,0.640625,0.28125,0.6875
1630059152812,0.640625,0.28125,0.703125
1630059152843,0.65625,0.28125,0.703125
1630059152875,0.65625,0.28125,0.703125
1630059152906,0.640625,0.28125,0.6875
1630059152937,0.640625,0.28125,0.703125
1630059152968,0.640625,0.28125,0.703125
1630059153000,0.65625,0.28125,0.703125
1630059153031,0.65625,0.28125,0.703125
1630059153062,0.640625,0.28125,0.703125
1630059153093,0.65625,0.28125,0.703125
1630059153125,0.65625,0.28125,0.703125
1630059153156,0.65625,0.28125,0.703125
1630059153187,0.640625,0.28125,0.703125
1630059153218,0.640625,0.28125,0.703125
1630059153250,0.640625,0.28125,0.703125
1630059153281,0.65625,0.28125,0.703125
1630059153312,0.65625,0.28125,0.703125
1630059153343,0.640625,0.265625,0.6875
1630059153375,0.640625,0.28125,0.703125
1630059153406,0.65625,0.28125,0.703125
1630059153437,0.65625,0.28125,0.6875
1630059153468,0.65625,0.28125,0.703125
1630059153500,0.640625,0.28125,0.703125
1630059153531,0.640625,0.28125,0.703125
1630059153562,0.65625,0.28125,0.703125
1630059153593,0.65625,0.28125,0.6875
1630059153625,0.65625,0.28125,0.703125
1630059153656,0.640625,0.28125,0.703125
1630059153687,0.65625,0.28125,0.6875
1630059153718,0.65625,0.28125,0.703125
1630059153750,0.65625,0.28125,0.703125
1630059153781,0.65625,0.28125,0.6875
1630059153812,0.640625,0.28125,0.703125
1630059153843,0.65625,0.28125,0.703125
1630059153875,0.640625,0.265625,0.6875
1630059153906,0.65625,0.28125,0.703125
1630059153937,0.65625,0.28125,0.703125
1630059153968,0.65625,0.28125,0.703125
1630059154000,0.65625,0.28125,0.703125
1630059154031,0.65625,0.28125,0.703125
1630059154062,0.65625,0.28125,0.703125
1630059154093,0.65625,0.265625,0.703125
1630059154125,0.65625,0.265625,0.703125
1630059154156,0.640625,0.28125,0.703125
1630059154187,0.65625,0.265625,0.703125
1630059154218,0.65625,0.265625,0.6875
1630059154250,0.65625,0.28125,0.703125
1630059154281,0.65625,0.28125,0.703125
1630059154312,0.65625,0.28125,0.703125
1630059154343,0.65625,0.28125,0.703125
1630059154375,0.65625,0.28125,0.6875
1630059154406,0.65625,0.28125,0.703125
1630059154437,0.65625,0.265625,0.703125
1630059154468,0.65625,0.265625,0.703125
1630059154500,0.65625,0.28125,0.6875
1630059154531,0.65625,0.28125,0.703125
1630059154562,0.65625,0.28125,0.703125
1630059154593,0.640625,0.28125,0.703125
1630059154625,0.640625,0.28125,0.6875
1630059154656,0.65625,0.28125,0.703125
1630059154687,0.65625,0.265625,0.6875
1630059154718,0.640625,0.28125,0.6875
1630059154750,0.65625,0.28125,0.6875
1630059154781,0.640625,0.28125,0.6875
1630059154812,0.65625,0.28125,0.703125
1630059154843,0.65625,0.28125,0.703125
1630059154875,0.65625,0.265625,0.703125
1630059154906,0.65625,0.28125,0.6875
1630059154937,0.65625,0.28125,0.703125
1630059154968,0.65625,0.28125,0.6875
1630059155000,0.65625,0.28125,0.6875
1630059155031,0.65625,0.28125,0.703125
1630059155062,0.65625,0.265625,0.703125
1630059155093,0.65625,0.28125,0.703125
1630059155125,0.65625,0.28125,0.703125
1630059155156,0.65625,0.28125,0.703125
1630059155187,0.65625,0.28125,0.703125
1630059155218,0.65625,0.28125,0.703125
1630059155250,0.65625,0.28125,0.703125
1630059155281,0.65625,0.265625,0.703125
1630059155312,0.65625,0.28125,0.6875
1630059155343,0.65625,0.28125,0.6875
1630059155375,0.65625,0.28125,0.703125
1630059155406,0.65625,0.28125,0.703125
1630059155437,0.65625,0.28125,0.703125
1630059155468,0.640625,0.28125,0.703125
1630059155500,0.640625,0.28125,0.703125
1630059155531,0.640625,0.265625,0.703125
1630059155562,0.640625,0.265625,0.703125
1630059155593,0.65625,0.265625,0.703125
1630059155625,0.65625,0.265625,0.703125
1630059155656,0.65625,0.28125,0.6875
1630059155687,0.640625,0.28125,0.6875
1630059155718,0.640625,0.28125,0.703125
1630059155750,0.65625,0.28125,0.703125
1630059155781,0.65625,0.28125,0.703125
1630059155812,0.65625,0.28125,0.703125
1630059155843,0.65625,0.28125,0.6875
1630059155875,0.65625,0.28125,0.6875
1630059155906,0.65625,0.28125,0.703125
1630059155937,0.65625,0.28125,0.6875
1630059155968,0.640625,0.265625,0.6875
1630059156000,0.640625,0.28125,0.6875
1630059156031,0.65625,0.28125,0.6875
1630059156062,0.65625,0.265625,0.703125
1630059156093,0.640625,0.28125,0.6875
1630059156125,0.640625,0.28125,0.703125
1630059156156,0.65625,0.265625,0.6875
1630059156187,0.65625,0.265625,0.703125
1630059156218,0.65625,0.28125,0.703125
1630059156250,0.640625,0.28125,0.703125
1630059156281,0.65625,0.28125,0.703125
1630059156312,0.65625,0.28125,0.6875
1630059156343,0.65625,0.28125,0.6875
1630059156375,0.65625,0.28125,0.6875
1630059156406,0.65625,0.28125,0.6875
1630059156437,0.640625,0.28125,0.6875
1630059156468,0.65625,0.28125,0.703125
1630059156500,0.65625,0.28125,0.703125
1630059156531,0.640625,0.28125,0.703125
1630059156562,0.65625,0.265625,0.703125
1630059156593,0.65625,0.28125,0.703125
1630059156625,0.65625,0.28125,0.703125
1630059156656,0.640625,0.28125,0.6875
1630059156687,0.65625,0.28125,0.6875
1630059156718,0.65625,0.28125,0.6875
1630059156750,0.65625,0.28125,0.703125
1630059156781,0.65625,0.28125,0.6875
1630059156812,0.640625,0.28125,0.703125
1630059156843,0.65625,0.28125,0.703125
1630059156875,0.65625,0.28125,0.703125
1630059156906,0.65625,0.28125,0.703125
1630059156937,0.65625,0.28125,0.703125
1630059156968,0.65625,0.265625,0.703125
1630059157000,0.640625,0.265625,0.703125
1630059157031,0.65625,0.28125,0.6875
1630059157062,0.65625,0.265625,0.6875
1630059157093,0.65625,0.28125,0.6875
1630059157125,0.65625,0.28125,0.703125
1630059157156,0.65625,0.265625,0.6875
1630059157187,0.65625,0.28125,0.703125
1630059157218,0.65625,0.265625,0.703125
1630059157250,0.65625,0.28125,0.703125
1630059157281,0.65625,0.28125,0.6875
1630059157312,0.65625,0.265625,0.6875
1630059157343,0.65625,0.28125,0.6875
1630059157375,0.65625,0.28125,0.6875
1630059157406,0.65625,0.28125,0.6875
1630059157437,0.65625,0.28125,0.703125
1630059157468,0.65625,0.28125,0.703125
1630059157500,0.65625,0.28125,0.703125
1630059157531,0.65625,0.28125,0.6875
1630059157562,0.65625,0.265625,0.703125
1630059157593,0.640625,0.265625,0.703125
1630059157625,0.65625,0.28125,0.703125
1630059157656,0.65625,0.265625,0.703125
1630059157687,0.640625,0.265625,0.703125
1630059157718,0.65625,0.265625,0.703125
1630059157750,0.65625,0.28125,0.6875
1630059157781,0.65625,0.28125,0.6875
1630059157812,0.65625,0.28125,0.703125
1630059157843,0.65625,0.265625,0.703125
1630059157875,0.65625,0.28125,0.703125
1630059157906,0.65625,0.28125,0.703125
1630059157937,0.65625,0.28125,0.703125
1630059157968,0.65625,0.265625,0.703125
1630059158000,0.65625,0.265625,0.703125
1630059158031,0.65625,0.265625,0.703125
1630059158062,0.65625,0.265625,0.6875
1630059158093,0.65625,0.28125,0.6875
1630059158125,0.640625,0.265625,0.703125
1630059158156,0.65625,0.265625,0.703125
1630059158187,0.65625,0.28125,0.703125
1630059158218,0.65625,0.265625,0.703125
1630059158250,0.640625,0.265625,0.703125
1630059158281,0.640625,0.265625,0.703125
1630059158312,0.65625,0.265625,0.703125
1630059158343,0.65625,0.265625,0.703125
1630059158375,0.640625,0.265625,0.703125
1630059158406,0.65625,0.28125,0.703125
1630059158437,0.65625,0.265625,0.703125
1630059158468,0.65625,0.265625,0.703125
1630059158500,0.65625,0.28125,0.703125
1630059158531,0.65625,0.28125,0.6875
1630059158562,0.640625,0.265625,0.703125
1630059158593,0.640625,0.265625,0.6875
1630059158625,0.65625,0.265625,0.703125
1630059158656,0.65625,0.265625,0.703125
1630059158687,0.65625,0.265625,0.703125
1630059158718,0.65625,0.28125,0.703125
1630059158750,0.65625,0.265625,0.703125
1630059158781,0.65625,0.265625,0.6875
1630059158812,0.65625,0.265625,0.703125
1630059158843,0.65625,0.265625,0.703125
1630059158875,0.640625,0.265625,0.703125
1630059158906,0.65625,0.265625,0.703125
1630059158937,0.65625,0.265625,0.703125
1630059158968,0.65625,0.28125,0.703125
1630059159000,0.65625,0.28125,0.703125
1630059159031,0.65625,0.265625,0.703125
1630059159062,0.640625,0.265625,0.6875
1630059159093,0.640625,0.265625,0.6875
1630059159125,0.65625,0.265625,0.703125
1630059159156,0.65625,0.28125,0.703125
1630059159187,0.65625,0.265625,0.703125
1630059159218,0.65625,0.28125,0.6875
1630059159250,0.65625,0.28125,0.6875
1630059159281,0.640625,0.28125,0.6875
1630059159312,0.65625,0.28125,0.6875
1630059159343,0.65625,0.28125,0.703125
1630059159375,0.640625,0.265625,0.703125
1630059159406,0.65625,0.265625,0.703125
1630059159437,0.65625,0.265625,0.703125
1630059159468,0.65625,0.265625,0.703125
1630059159500,0.640625,0.265625,0.703125
1630059159531,0.640625,0.265625,0.703125
1630059159562,0.640625,0.28125,0.6875
1630059159593,0.640625,0.28125,0.703125
1630059159625,0.65625,0.28125,0.703125
1630059159656,0.640625,0.28125,0.703125
1630059159687,0.640625,0.265625,0.703125
1630059159718,0.640625,0.265625,0.703125
1630059159750,0.640625,0.28125,0.703125
1630059159781,0.640625,0.28125,0.703125
1630059159812,0.640625,0.265625,0.703125
1630059159843,0.640625,0.28125,0.703125
1630059159875,0.640625,0.265625,0.703125
1630059159906,0.640625,0.28125,0.703125
1630059159937,0.640625,0.28125,0.703125
1630059159968,0.640625,0.28125,0.703125
1630059160000,0.640625,0.28125,0.703125
1630059160031,0.640625,0.28125,0.703125
1630059160062,0.640625,0.28125,0.703125
1630059160093,0.640625,0.28125,0.703125
1630059160125,0.625,0.28125,0.703125
1630059160156,0.671875,0.28125,0.703125
1630059160187,0.640625,0.28125,0.703125
1630059160218,0.640625,0.28125,0.703125
1630059160250,0.65625,0.28125,0.703125
1630059160281,0.640625,0.28125,0.703125
1630059160312,0.640625,0.28125,0.703125
1630059160343,0.640625,0.28125,0.703125
1630059160375,0.640625,0.28125,0.703125
1630059160406,0.640625,0.28125,0.703125
1630059160437,0.640625,0.28125,0.703125
1630059160468,0.640625,0.28125,0.703125
1630059160500,0.640625,0.28125,0.703125
1630059160531,0.640625,0.28125,0.703125
1630059160562,0.65625,0.28125,0.703125
1630059160593,0.640625,0.28125,0.703125
1630059160625,0.640625,0.28125,0.703125
1630059160656,0.640625,0.28125,0.703125
1630059160687,0.640625,0.28125,0.703125
1630059160718,0.640625,0.28125,0.703125
1630059160750,0.640625,0.28125,0.703125
1630059160781,0.640625,0.28125,0.703125
1630059160812,0.640625,0.28125,0.703125
1630059160843,0.640625,0.28125,0.703125
1630059160875,0.640625,0.28125,0.703125
1630059160906,0.640625,0.28125,0.703125
1630059160937,0.640625,0.28125,0.703125
1630059160968,0.640625,0.28125,0.703125
1630059161000,0.640625,0.28125,0.6875
1630059161031,0.640625,0.28125,0.703125
1630059161062,0.640625,0.28125,0.703125
1630059161093,0.640625,0.28125,0.703125
1630059161125,0.640625,0.28125,0.703125
1630059161156,0.640625,0.28125,0.703125
1630059161187,0.640625,0.28125,0.703125
1630059161218,0.640625,0.28125,0.703125
1630059161250,0.640625,0.28125,0.703125
1630059161281,0.640625,0.28125,0.703125
1630059161312,0.640625,0.28125,0.703125
1630059161343,0.640625,0.28125,0.703125
1630059161375,0.65625,0.28125,0.703125
1630059161406,0.65625,0.28125,0.703125
1630059161437,0.640625,0.28125,0.703125
1630059161468,0.640625,0.28125,0.703125
1630059161500,0.640625,0.28125,0.6875
1630059161531,0.640625,0.28125,0.703125
1630059161562,0.640625,0.28125,0.703125
1630059161593,0.640625,0.28125,0.703125
1630059161625,0.640625,0.28125,0.703125
1630059161656,0.640625,0.28125,0.703125
1630059161687,0.640625,0.28125,0.703125
1630059161718,0.640625,0.28125,0.703125
1630059161750,0.640625,0.28125,0.703125
1630059161781,0.640625,0.28125,0.703125
1630059161812,0.640625,0.28125,0.703125
1630059161843,0.640625,0.28125,0.703125
1630059161875,0.640625,0.28125,0.703125
1630059161906,0.640625,0.28125,0.703125
1630059161937,0.640625,0.28125,0.703125
1630059161968,0.640625,0.28125,0.703125
1630059162000,0.640625,0.28125,0.703125
1630059162031,0.640625,0.28125,0.703125
1630059162062,0.640625,0.28125,0.703125
1630059162093,0.640625,0.28125,0.703125
1630059162125,0.640625,0.28125,0.703125
1630059162156,0.640625,0.28125,0.703125
1630059162187,0.640625,0.28125,0.703125
1630059162218,0.65625,0.28125,0.703125
1630059162250,0.640625,0.28125,0.703125
1630059162281,0.640625,0.28125,0.703125
1630059162312,0.640625,0.28125,0.703125
1630059162343,0.640625,0.28125,0.703125
1630059162375,0.640625,0.28125,0.703125
1630059162406,0.640625,0.28125,0.703125
1630059162437,0.640625,0.28125,0.703125
1630059162468,0.640625,0.28125,0.703125
1630059162500,0.640625,0.28125,0.703125
1630059162531,0.640625,0.28125,0.703125
1630059162562,0.640625,0.28125,0.703125
1630059162593,0.640625,0.28125,0.703125
1630059162625,0.640625,0.28125,0.703125
1630059162656,0.640625,0.28125,0.6875
1630059162687,0.640625,0.28125,0.703125
1630059162718,0.640625,0.28125,0.703125
1630059162750,0.640625,0.28125,0.703125
1630059162781,0.640625,0.28125,0.703125
1630059162812,0.640625,0.28125,0.703125
1630059162843,0.640625,0.28125,0.703125
1630059162875,0.640625,0.28125,0.703125
1630059162906,0.640625,0.28125,0.703125
1630059162937,0.640625,0.28125,0.703125
1630059162968,0.640625,0.28125,0.703125
1630059163000,0.640625,0.28125,0.703125
1630059163031,0.640625,0.28125,0.703125
1630059163062,0.640625,0.28125,0.703125
1630059163093,0.640625,0.28125,0.703125
1630059163125,0.640625,0.28125,0.703125
1630059163156,0.640625,0.28125,0.703125
1630059163187,0.640625,0.28125,0.703125
1630059163218,0.640625,0.28125,0.703125
1630059163250,0.65625,0.28125,0.703125
1630059163281,0.65625,0.28125,0.703125
1630059163312,0.640625,0.28125,0.703125
1630059163343,0.640625,0.28125,0.703125
1630059163375,0.640625,0.28125,0.703125
1630059163406,0.640625,0.28125,0.703125
1630059163437,0.640625,0.28125,0.703125
1630059163468,0.640625,0.28125,0.703125
1630059163500,0.640625,0.28125,0.703125
1630059163531,0.640625,0.28125,0.703125
1630059163562,0.640625,0.28125,0.703125
1630059163593,0.640625,0.28125,0.703125
1630059163625,0.640625,0.28125,0.703125
1630059163656,0.640625,0.28125,0.703125
1630059163687,0.640625,0.28125,0.703125
1630059163718,0.640625,0.28125,0.703125
1630059163750,0.640625,0.28125,0.703125
1630059163781,0.640625,0.28125,0.703125
1630059163812,0.640625,0.28125,0.703125
1630059163843,0.640625,0.28125,0.703125
1630059163875,0.640625,0.28125,0.703125
1630059163906,0.640625,0.28125,0.703125
1630059163937,0.640625,0.28125,0.703125
1630059163968,0.640625,0.28125,0.703125
1630059164000,0.640625,0.28125,0.703125
1630059164031,0.640625,0.28125,0.703125
1630059164062,0.640625,0.28125,0.703125
1630059164093,0.640625,0.28125,0.703125
1630059164125,0.640625,0.28125,0.703125
1630059164156,0.640625,0.28125,0.703125
1630059164187,0.640625,0.28125,0.703125
1630059164218,0.640625,0.28125,0.703125
1630059164250,0.640625,0.28125,0.703125
1630059164281,0.640625,0.28125,0.703125
1630059164312,0.640625,0.28125,0.703125
1630059164343,0.640625,0.28125,0.703125
1630059164375,0.640625,0.28125,0.703125
1630059164406,0.640625,0.28125,0.703125
1630059164437,0.640625,0.28125,0.703125
1630059164468,0.640625,0.28125,0.703125
1630059164500,0.640625,0.28125,0.703125
1630059164531,0.640625,0.28125,0.703125
1630059164562,0.640625,0.28125,0.703125
1630059164593,0.640625,0.28125,0.703125
1630059164625,0.640625,0.28125,0.703125
1630059164656,0.640625,0.28125,0.703125
1630059164687,0.640625,0.28125,0.703125
1630059164718,0.640625,0.28125,0.703125
1630059164750,0.640625,0.28125,0.703125
1630059164781,0.640625,0.28125,0.703125
1630059164812,0.640625,0.28125,0.703125
1630059164843,0.640625,0.28125,0.6875
1630059164875,0.640625,0.28125,0.703125
1630059164906,0.640625,0.28125,0.703125
1630059164937,0.640625,0.28125,0.703125
1630059164968,0.640625,0.28125,0.703125
1630059165000,0.640625,0.28125,0.703125
1630059165031,0.640625,0.28125,0.703125
1630059165062,0.640625,0.28125,0.703125
1630059165093,0.65625,0.28125,0.703125
1630059165125,0.640625,0.28125,0.703125
1630059165156,0.640625,0.28125,0.703125
1630059165187,0.640625,0.28125,0.703125
1630059165218,0.640625,0.28125,0.703125
1630059165250,0.640625,0.28125,0.703125
1630059165281,0.640625,0.28125,0.703125
1630059165312,0.640625,0.28125,0.703125
1630059165343,0.640625,0.28125,0.703125
1630059165375,0.640625,0.265625,0.703125
1630059165406,0.640625,0.265625,0.703125
1630059165437,0.640625,0.28125,0.703125
1630059165468,0.640625,0.28125,0.703125
1630059165500,0.640625,0.28125,0.703125
1630059165531,0.640625,0.28125,0.703125
1630059165562,0.640625,0.28125,0.703125
1630059165593,0.640625,0.28125,0.703125
1630059165625,0.640625,0.28125,0.703125
1630059165656,0.640625,0.28125,0.703125
1630059165687,0.640625,0.28125,0.703125
1630059165718,0.640625,0.28125,0.703125
1630059165750,0.640625,0.28125,0.703125
1630059165781,0.640625,0.28125,0.703125
1630059165812,0.640625,0.265625,0.703125
1630059165843,0.640625,0.28125,0.703125
1630059165875,0.65625,0.28125,0.703125
1630059165906,0.640625,0.28125,0.703125
1630059165937,0.640625,0.28125,0.703125
1630059165968,0.640625,0.28125,0.703125
1630059166000,0.640625,0.28125,0.703125
1630059166031,0.640625,0.28125,0.6875
1630059166062,0.640625,0.28125,0.703125
1630059166093,0.640625,0.28125,0.703125
1630059166125,0.640625,0.28125,0.703125
1630059166156,0.640625,0.28125,0.703125
1630059166187,0.640625,0.28125,0.703125
1630059166218,0.640625,0.28125,0.703125
1630059166250,0.640625,0.28125,0.703125
1630059166281,0.640625,0.28125,0.703125
1630059166312,0.640625,0.28125,0.703125
1630059166343,0.640625,0.28125,0.703125
1630059166375,0.640625,0.28125,0.703125
1630059166406,0.640625,0.28125,0.703125
1630059166437,0.640625,0.28125,0.703125
1630059166468,0.640625,0.28125,0.703125
1630059166500,0.640625,0.28125,0.703125
1630059166531,0.640625,0.265625,0.703125
1630059166562,0.640625,0.28125,0.703125
1630059166593,0.640625,0.28125,0.703125
1630059166625,0.640625,0.28125,0.703125
1630059166656,0.640625,0.28125,0.703125
1630059166687,0.640625,0.28125,0.703125
1630059166718,0.640625,0.28125,0.703125
1630059166750,0.640625,0.28125,0.703125
1630059166781,0.640625,0.28125,0.703125
1630059166812,0.640625,0.28125,0.703125
1630059166843,0.640625,0.28125,0.703125
1630059166875,0.65625,0.28125,0.703125
1630059166906,0.640625,0.28125,0.703125
1630059166937,0.640625,0.28125,0.703125
1630059166968,0.640625,0.28125,0.703125
1630059167000,0.640625,0.265625,0.703125
1630059167031,0.640625,0.28125,0.703125
1630059167062,0.640625,0.28125,0.703125
1630059167093,0.640625,0.28125,0.703125
1630059167125,0.640625,0.28125,0.703125
1630059167156,0.640625,0.28125,0.703125
1630059167187,0.640625,0.28125,0.703125
1630059167218,0.640625,0.28125,0.703125
1630059167250,0.640625,0.28125,0.703125
1630059167281,0.65625,0.28125,0.703125
1630059167312,0.65625,0.28125,0.703125
1630059167343,0.625,0.28125,0.703125
1630059167375,0.640625,0.28125,0.703125
1630059167406,0.640625,0.28125,0.703125
1630059167437,0.640625,0.28125,0.703125
1630059167468,0.640625,0.28125,0.703125
1630059167500,0.640625,0.28125,0.703125
1630059167531,0.640625,0.28125,0.703125
1630059167562,0.640625,0.28125,0.703125
1630059167593,0.640625,0.28125,0.703125
1630059167625,0.640625,0.28125,0.703125
1630059167656,0.640625,0.28125,0.703125
1630059167687,0.640625,0.28125,0.703125
1630059167718,0.640625,0.28125,0.703125
1630059167750,0.640625,0.28125,0.703125
1630059167781,0.640625,0.28125,0.703125
1630059167812,0.640625,0.28125,0.703125
1630059167843,0.640625,0.28125,0.703125
1630059167875,0.640625,0.28125,0.703125
1630059167906,0.640625,0.28125,0.703125
1630059167937,0.640625,0.28125,0.703125
1630059167968,0.640625,0.28125,0.703125
1630059168000,0.640625,0.28125,0.703125
1630059168031,0.640625,0.28125,0.703125
1630059168062,0.640625,0.28125,0.703125
1630059168093,0.640625,0.28125,0.703125
1630059168125,0.640625,0.28125,0.703125
1630059168156,0.640625,0.28125,0.703125
1630059168187,0.640625,0.28125,0.703125
1630059168218,0.640625,0.28125,0.703125
1630059168250,0.640625,0.28125,0.703125
1630059168281,0.640625,0.28125,0.703125
1630059168312,0.640625,0.28125,0.703125
1630059168343,0.640625,0.28125,0.703125
1630059168375,0.640625,0.28125,0.703125
1630059168406,0.640625,0.28125,0.703125
1630059168437,0.640625,0.28125,0.703125
1630059168468,0.640625,0.28125,0.703125
1630059168500,0.640625,0.28125,0.703125
1630059168531,0.640625,0.28125,0.703125
1630059168562,0.640625,0.28125,0.703125
1630059168593,0.640625,0.28125,0.703125
1630059168625,0.640625,0.28125,0.703125
1630059168656,0.640625,0.28125,0.703125
1630059168687,0.640625,0.28125,0.703125
1630059168718,0.640625,0.28125,0.703125
1630059168750,0.640625,0.28125,0.703125
1630059168781,0.640625,0.28125,0.703125
1630059168812,0.640625,0.28125,0.703125
1630059168843,0.640625,0.28125,0.703125
1630059168875,0.640625,0.28125,0.703125
1630059168906,0.640625,0.28125,0.703125
1630059168937,0.640625,0.28125,0.703125
1630059168968,0.640625,0.28125,0.703125
1630059169000,0.640625,0.28125,0.703125
1630059169031,0.640625,0.28125,0.703125
1630059169062,0.640625,0.28125,0.703125
1630059169093,0.640625,0.28125,0.703125
1630059169125,0.640625,0.28125,0.703125
1630059169156,0.640625,0.28125,0.703125
1630059169187,0.640625,0.28125,0.703125
1630059169218,0.640625,0.28125,0.703125
1630059169250,0.640625,0.28125,0.703125
1630059169281,0.640625,0.28125,0.703125
1630059169312,0.640625,0.28125,0.703125
1630059169343,0.640625,0.28125,0.703125
1630059169375,0.640625,0.28125,0.703125
1630059169406,0.640625,0.28125,0.703125
1630059169437,0.640625,0.28125,0.703125
1630059169468,0.640625,0.28125,0.703125
1630059169500,0.640625,0.28125,0.703125
1630059169531,0.640625,0.28125,0.703125
1630059169562,0.640625,0.28125,0.703125
1630059169593,0.640625,0.28125,0.703125
1630059169625,0.640625,0.28125,0.703125
1630059169656,0.640625,0.28125,0.703125
1630059169687,0.640625,0.28125,0.703125
1630059169718,0.640625,0.28125,0.703125
1630059169750,0.640625,0.28125,0.703125
1630059169781,0.640625,0.28125,0.703125
1630059169812,0.640625,0.28125,0.6875
1630059169843,0.640625,0.28125,0.703125
1630059169875,0.640625,0.28125,0.703125
1630059169906,0.640625,0.28125,0.703125
1630059169937,0.640625,0.28125,0.703125
1630059169968,0.640625,0.28125,0.703125
1630059170000,0.640625,0.28125,0.703125
1630059170031,0.640625,0.28125,0.703125
1630059170062,0.640625,0.28125,0.703125
1630059170093,0.640625,0.28125,0.703125
1630059170125,0.640625,0.28125,0.703125
1630059170156,0.640625,0.28125,0.703125
1630059170187,0.640625,0.28125,0.703125
1630059170218,0.640625,0.28125,0.703125
1630059170250,0.640625,0.28125,0.703125
1630059170281,0.640625,0.28125,0.703125
1630059170312,0.640625,0.28125,0.703125
1630059170343,0.640625,0.28125,0.703125
1630059170375,0.640625,0.28125,0.703125
1630059170406,0.640625,0.28125,0.703125
1630059170437,0.640625,0.28125,0.703125
1630059170468,0.640625,0.28125,0.703125
1630059170500,0.640625,0.28125,0.703125
1630059170531,0.640625,0.28125,0.703125
1630059170562,0.640625,0.28125,0.703125
1630059170593,0.640625,0.28125,0.703125
1630059170625,0.640625,0.28125,0.703125
1630059170656,0.640625,0.28125,0.703125
1630059170687,0.65625,0.28125,0.703125
1630059170718,0.640625,0.28125,0.703125
1630059170750,0.640625,0.28125,0.703125
1630059170781,0.640625,0.28125,0.703125
1630059170812,0.640625,0.28125,0.703125
1630059170843,0.640625,0.28125,0.703125
1630059170875,0.640625,0.28125,0.703125
1630059170906,0.640625,0.28125,0.703125
1630059170937,0.640625,0.28125,0.703125
1630059170968,0.640625,0.28125,0.703125
1630059171000,0.640625,0.28125,0.703125
1630059171031,0.640625,0.28125,0.703125
1630059171062,0.640625,0.28125,0.703125
1630059171093,0.640625,0.28125,0.703125
1630059171125,0.640625,0.28125,0.703125
1630059171156,0.640625,0.28125,0.703125
1630059171187,0.640625,0.28125,0.703125
1630059171218,0.640625,0.28125,0.703125
1630059171250,0.640625,0.28125,0.703125
1630059171281,0.640625,0.28125,0.703125
1630059171312,0.640625,0.28125,0.703125
1630059171343,0.640625,0.28125,0.703125
1630059171375,0.640625,0.28125,0.703125
1630059171406,0.640625,0.28125,0.703125
1630059171437,0.640625,0.28125,0.703125
1630059171468,0.640625,0.28125,0.703125
1630059171500,0.640625,0.28125,0.703125
1630059171531,0.640625,0.28125,0.703125
1630059171562,0.640625,0.28125,0.703125
1630059171593,0.640625,0.28125,0.703125
1630059171625,0.640625,0.28125,0.703125
1630059171656,0.640625,0.28125,0.703125
1630059171687,0.640625,0.28125,0.703125
1630059171718,0.640625,0.28125,0.703125
1630059171750,0.640625,0.28125,0.703125
1630059171781,0.640625,0.28125,0.703125
1630059171812,0.640625,0.28125,0.703125
1630059171843,0.640625,0.28125,0.703125
1630059171875,0.640625,0.28125,0.703125
1630059171906,0.640625,0.28125,0.703125
1630059171937,0.640625,0.28125,0.703125
1630059171968,0.640625,0.28125,0.703125
1630059172000,0.640625,0.28125,0.703125
1630059172031,0.640625,0.28125,0.703125
1630059172062,0.640625,0.28125,0.703125
1630059172093,0.640625,0.28125,0.703125
1630059172125,0.640625,0.28125,0.703125
1630059172156,0.640625,0.28125,0.703125
1630059172187,0.640625,0.28125,0.703125
1630059172218,0.640625,0.28125,0.703125
1630059172250,0.640625,0.28125,0.703125
1630059172281,0.640625,0.28125,0.703125
1630059172312,0.640625,0.28125,0.703125
1630059172343,0.640625,0.28125,0.703125
1630059172375,0.640625,0.28125,0.703125
1630059172406,0.640625,0.28125,0.703125
1630059172437,0.640625,0.28125,0.703125
1630059172468,0.640625,0.28125,0.703125
1630059172500,0.640625,0.28125,0.703125
1630059172531,0.640625,0.28125,0.703125
1630059172562,0.640625,0.28125,0.703125
1630059172593,0.640625,0.28125,0.703125
1630059172625,0.640625,0.28125,0.703125
1630059172656,0.640625,0.28125,0.703125
1630059172687,0.640625,0.28125,0.703125
1630059172718,0.640625,0.28125,0.703125
1630059172750,0.640625,0.28125,0.703125
1630059172781,0.640625,0.28125,0.703125
1630059172812,0.640625,0.28125,0.703125
1630059172843,0.640625,0.28125,0.703125
1630059172875,0.640625,0.28125,0.703125
1630059172906,0.640625,0.28125,0.703125
1630059172937,0.640625,0.28125,0.703125
1630059172968,0.640625,0.28125,0.703125
1630059173000,0.640625,0.28125,0.703125
1630059173031,0.640625,0.28125,0.703125
1630059173062,0.640625,0.28125,0.703125
1630059173093,0.640625,0.28125,0.703125
1630059173125,0.640625,0.28125,0.703125
1630059173156,0.65625,0.28125,0.703125
1630059173187,0.640625,0.28125,0.703125
1630059173218,0.640625,0.28125,0.703125
1630059173250,0.640625,0.28125,0.703125
1630059173281,0.65625,0.28125,0.703125
1630059173312,0.640625,0.28125,0.703125
1630059173343,0.640625,0.28125,0.703125
1630059173375,0.640625,0.28125,0.703125
1630059173406,0.640625,0.28125,0.703125
1630059173437,0.640625,0.28125,0.703125
1630059173468,0.640625,0.28125,0.703125
1630059173500,0.640625,0.28125,0.703125
1630059173531,0.640625,0.28125,0.703125
1630059173562,0.640625,0.28125,0.703125
1630059173593,0.640625,0.28125,0.703125
1630059173625,0.640625,0.28125,0.703125
1630059173656,0.640625,0.28125,0.703125
1630059173687,0.640625,0.28125,0.703125
1630059173718,0.640625,0.28125,0.703125
1630059173750,0.640625,0.28125,0.703125
1630059173781,0.640625,0.28125,0.703125
1630059173812,0.640625,0.28125,0.703125
1630059173843,0.640625,0.28125,0.703125
1630059173875,0.640625,0.28125,0.703125
1630059173906,0.640625,0.265625,0.703125
1630059173937,0.640625,0.28125,0.703125
1630059173968,0.640625,0.28125,0.703125
1630059174000,0.640625,0.28125,0.703125
1630059174031,0.640625,0.28125,0.703125
1630059174062,0.640625,0.28125,0.703125
1630059174093,0.640625,0.28125,0.703125
1630059174125,0.640625,0.28125,0.703125
1630059174156,0.640625,0.28125,0.703125
1630059174187,0.640625,0.28125,0.703125
1630059174218,0.640625,0.28125,0.703125
1630059174250,0.640625,0.28125,0.703125
1630059174281,0.640625,0.28125,0.703125
1630059174312,0.640625,0.28125,0.703125
1630059174343,0.640625,0.28125,0.703125
1630059174375,0.640625,0.28125,0.703125
1630059174406,0.640625,0.28125,0.703125
1630059174437,0.640625,0.28125,0.703125
1630059174468,0.640625,0.28125,0.703125
1630059174500,0.640625,0.28125,0.703125
1630059174531,0.640625,0.28125,0.703125
1630059174562,0.640625,0.28125,0.703125
1630059174593,0.640625,0.28125,0.703125
1630059174625,0.640625,0.28125,0.703125
1630059174656,0.640625,0.28125,0.703125
1630059174687,0.640625,0.28125,0.703125
1630059174718,0.640625,0.28125,0.703125
1630059174750,0.640625,0.28125,0.703125
1630059174781,0.640625,0.28125,0.703125
1630059174812,0.640625,0.28125,0.703125
1630059174843,0.640625,0.28125,0.703125
1630059174875,0.640625,0.28125,0.703125
1630059174906,0.640625,0.28125,0.703125
1630059174937,0.640625,0.28125,0.703125
1630059174968,0.640625,0.28125,0.703125
1630059175000,0.640625,0.28125,0.703125
1630059175031,0.640625,0.28125,0.703125
1630059175062,0.640625,0.28125,0.703125
1630059175093,0.640625,0.28125,0.703125
1630059175125,0.640625,0.28125,0.703125
1630059175156,0.640625,0.28125,0.703125
1630059175187,0.640625,0.28125,0.703125
1630059175218,0.640625,0.28125,0.703125
1630059175250,0.640625,0.28125,0.703125
1630059175281,0.640625,0.28125,0.703125
1630059175312,0.640625,0.28125,0.703125
1630059175343,0.640625,0.28125,0.703125
1630059175375,0.640625,0.28125,0.703125
1630059175406,0.640625,0.28125,0.703125
1630059175437,0.640625,0.28125,0.703125
1630059175468,0.640625,0.28125,0.703125
1630059175500,0.640625,0.28125,0.703125
1630059175531,0.640625,0.28125,0.703125
1630059175562,0.640625,0.28125,0.703125
1630059175593,0.640625,0.28125,0.703125
1630059175625,0.625,0.28125,0.703125
1630059175656,0.640625,0.28125,0.703125
1630059175687,0.640625,0.28125,0.703125
1630059175718,0.640625,0.28125,0.703125
1630059175750,0.640625,0.28125,0.703125
1630059175781,0.640625,0.28125,0.703125
1630059175812,0.640625,0.28125,0.703125
1630059175843,0.640625,0.28125,0.703125
1630059175875,0.640625,0.28125,0.703125
1630059175906,0.640625,0.28125,0.703125
1630059175937,0.640625,0.28125,0.703125
1630059175968,0.640625,0.28125,0.703125
1630059176000,0.640625,0.28125,0.703125
1630059176031,0.640625,0.28125,0.703125
1630059176062,0.640625,0.28125,0.703125
1630059176093,0.640625,0.28125,0.703125
1630059176125,0.640625,0.28125,0.703125
1630059176156,0.640625,0.28125,0.703125
1630059176187,0.640625,0.28125,0.703125
1630059176218,0.640625,0.28125,0.703125
1630059176250,0.640625,0.28125,0.703125
1630059176281,0.640625,0.28125,0.703125
1630059176312,0.640625,0.28125,0.703125
1630059176343,0.640625,0.28125,0.703125
1630059176375,0.640625,0.28125,0.703125
1630059176406,0.640625,0.28125,0.703125
1630059176437,0.640625,0.28125,0.703125
1630059176468,0.640625,0.28125,0.703125
1630059176500,0.640625,0.28125,0.703125
1630059176531,0.640625,0.28125,0.703125
1630059176562,0.640625,0.28125,0.703125
1630059176593,0.640625,0.28125,0.703125
1630059176625,0.640625,0.28125,0.703125
1630059176656,0.640625,0.28125,0.703125
1630059176687,0.640625,0.28125,0.703125
1630059176718,0.640625,0.28125,0.703125
1630059176750,0.640625,0.28125,0.703125
1630059176781,0.640625,0.28125,0.703125
1630059176812,0.640625,0.28125,0.703125
1630059176843,0.640625,0.28125,0.703125
1630059176875,0.640625,0.28125,0.703125
1630059176906,0.640625,0.28125,0.703125
1630059176937,0.640625,0.28125,0.703125
1630059176968,0.640625,0.28125,0.703125
1630059177000,0.640625,0.28125,0.703125
1630059177031,0.640625,0.28125,0.703125
1630059177062,0.640625,0.28125,0.703125
1630059177093,0.640625,0.28125,0.703125
1630059177125,0.640625,0.28125,0.703125
1630059177156,0.640625,0.28125,0.703125
1630059177187,0.640625,0.28125,0.703125
1630059177218,0.640625,0.28125,0.703125
1630059177250,0.640625,0.28125,0.703125
1630059177281,0.640625,0.265625,0.703125
1630059177312,0.640625,0.28125,0.703125
1630059177343,0.640625,0.28125,0.703125
1630059177375,0.640625,0.28125,0.703125
1630059177406,0.640625,0.28125,0.703125
1630059177437,0.640625,0.28125,0.703125
1630059177468,0.640625,0.28125,0.703125
1630059177500,0.640625,0.28125,0.703125
1630059177531,0.640625,0.28125,0.703125
1630059177562,0.640625,0.28125,0.703125
1630059177593,0.640625,0.28125,0.703125
1630059177625,0.640625,0.28125,0.703125
1630059177656,0.640625,0.28125,0.703125
1630059177687,0.640625,0.28125,0.703125
1630059177718,0.640625,0.28125,0.703125
1630059177750,0.640625,0.28125,0.703125
1630059177781,0.640625,0.28125,0.703125
1630059177812,0.640625,0.28125,0.703125
1630059177843,0.640625,0.28125,0.703125
1630059177875,0.640625,0.28125,0.703125
1630059177906,0.640625,0.28125,0.703125
1630059177937,0.640625,0.28125,0.703125
1630059177968,0.640625,0.28125,0.703125
1630059178000,0.640625,0.28125,0.703125
1630059178031,0.640625,0.28125,0.703125
1630059178062,0.640625,0.28125,0.703125
1630059178093,0.640625,0.28125,0.703125
1630059178125,0.640625,0.28125,0.703125
1630059178156,0.640625,0.28125,0.703125
1630059178187,0.640625,0.28125,0.703125
1630059178218,0.640625,0.28125,0.703125
1630059178250,0.640625,0.28125,0.703125
1630059178281,0.640625,0.28125,0.703125
1630059178312,0.640625,0.28125,0.703125
1630059178343,0.640625,0.28125,0.703125
1630059178375,0.640625,0.28125,0.703125
1630059178406,0.640625,0.28125,0.703125
1630059178437,0.640625,0.28125,0.703125
1630059178468,0.640625,0.28125,0.703125
1630059178500,0.640625,0.28125,0.703125
1630059178531,0.640625,0.28125,0.703125
1630059178562,0.640625,0.28125,0.703125
1630059178593,0.640625,0.28125,0.703125
1630059178625,0.640625,0.28125,0.703125
1630059178656,0.640625,0.28125,0.703125
1630059178687,0.640625,0.28125,0.703125
1630059178718,0.640625,0.28125,0.703125
1630059178750,0.640625,0.28125,0.703125
1630059178781,0.640625,0.28125,0.703125
1630059178812,0.640625,0.28125,0.703125
1630059178843,0.640625,0.28125,0.703125
1630059178875,0.640625,0.28125,0.703125
1630059178906,0.640625,0.28125,0.703125
1630059178937,0.640625,0.28125,0.703125
1630059178968,0.640625,0.28125,0.703125
1630059179000,0.640625,0.28125,0.703125
1630059179031,0.640625,0.28125,0.703125
1630059179062,0.640625,0.28125,0.703125
1630059179093,0.640625,0.28125,0.703125
1630059179125,0.640625,0.28125,0.703125
1630059179156,0.640625,0.28125,0.703125
1630059179187,0.640625,0.28125,0.703125
1630059179218,0.640625,0.28125,0.703125
1630059179250,0.640625,0.28125,0.703125
1630059179281,0.640625,0.28125,0.703125
1630059179312,0.640625,0.28125,0.703125
1630059179343,0.640625,0.28125,0.703125
1630059179375,0.640625,0.28125,0.703125
1630059179406,0.640625,0.28125,0.703125
1630059179437,0.640625,0.28125,0.703125
1630059179468,0.640625,0.28125,0.703125
1630059179500,0.640625,0.28125,0.703125
1630059179531,0.640625,0.28125,0.703125
1630059179562,0.640625,0.28125,0.703125
1630059179593,0.640625,0.28125,0.703125
1630059179625,0.640625,0.28125,0.703125
1630059179656,0.640625,0.28125,0.703125
1630059179687,0.640625,0.28125,0.703125
1630059179718,0.640625,0.28125,0.703125
1630059179750,0.640625,0.28125,0.703125
1630059179781,0.640625,0.28125,0.703125
1630059179812,0.640625,0.28125,0.703125
1630059179843,0.640625,0.28125,0.703125
1630059179875,0.640625,0.28125,0.703125
1630059179906,0.640625,0.28125,0.703125
1630059179937,0.640625,0.28125,0.703125
1630059179968,0.640625,0.28125,0.703125
1630059180000,0.640625,0.28125,0.703125
1630059180031,0.640625,0.28125,0.703125
1630059180062,0.640625,0.28125,0.703125
1630059180093,0.640625,0.28125,0.703125
1630059180125,0.640625,0.28125,0.703125
1630059180156,0.640625,0.28125,0.703125
1630059180187,0.640625,0.28125,0.703125
1630059180218,0.640625,0.28125,0.703125
1630059180250,0.640625,0.28125,0.703125
1630059180281,0.640625,0.28125,0.703125
1630059180312,0.640625,0.28125,0.703125
1630059180343,0.640625,0.28125,0.703125
1630059180375,0.640625,0.28125,0.703125
1630059180406,0.640625,0.28125,0.703125
1630059180437,0.640625,0.28125,0.703125
1630059180468,0.640625,0.28125,0.703125
1630059180500,0.640625,0.28125,0.703125
1630059180531,0.640625,0.28125,0.703125
1630059180562,0.640625,0.28125,0.703125
1630059180593,0.640625,0.28125,0.703125
1630059180625,0.640625,0.28125,0.703125
1630059180656,0.640625,0.28125,0.703125
1630059180687,0.640625,0.28125,0.703125
1630059180718,0.640625,0.28125,0.703125
1630059180750,0.640625,0.28125,0.703125
1630059180781,0.640625,0.28125,0.703125
