timestamp,ax,ay,az
1631118271000,-0.328125,-0.265625,0.890625
1631118271031,-0.328125,-0.265625,0.890625
1631118271062,-0.328125,-0.265625,0.890625
1631118271093,-0.328125,-0.265625,0.890625
1631118271125,-0.328125,-0.265625,0.890625
1631118271156,-0.328125,-0.265625,0.890625
1631118271187,-0.328125,-0.265625,0.890625
1631118271218,-0.328125,-0.265625,0.890625
1631118271250,-0.328125,-0.265625,0.890625
1631118271281,-0.328125,-0.265625,0.890625
1631118271312,-0.328125,-0.265625,0.890625
1631118271343,-0.328125,-0.265625,0.890625
1631118271375,-0.328125,-0.265625,0.890625
1631118271406,-0.328125,-0.28125,0.890625
1631118271437,-0.328125,-0.28125,0.890625
1631118271468,-0.328125,-0.265625,0.890625
1631118271500,-0.328125,-0.265625,0.890625
1631118271531,-0.328125,-0.28125,0.890625
1631118271562,-0.328125,-0.28125,0.890625
1631118271593,-0.328125,-0.28125,0.890625
1631118271625,-0.328125,-0.28125,0.890625
1631118271656,-0.328125,-0.28125,0.890625
1631118271687,-0.328125,-0.28125,0.890625
1631118271718,-0.328125,-0.28125,0.890625
1631118271750,-0.328125,-0.28125,0.890625
1631118271781,-0.328125,-0.265625,0.890625
1631118271812,-0.328125,-0.28125,0.890625
1631118271843,-0.328125,-0.28125,0.890625
1631118271875,-0.328125,-0.28125,0.890625
1631118271906,-0.328125,-0.28125,0.890625
1631118271937,-0.3125,-0.28125,0.890625
1631118271968,-0.328125,-0.28125,0.890625
1631118272000,-0.328125,-0.28125,0.890625
1631118272031,-0.328125,-0.28125,0.890625
1631118272062,-0.328125,-0.28125,0.890625
1631118272093,-0.328125,-0.28125,0.890625
1631118272125,-0.328125,-0.28125,0.890625
1631118272156,-0.328125,-0.28125,0.890625
1631118272187,-0.328125,-0.28125,0.890625
1631118272218,-0.328125,-0.265625,0.890625
1631118272250,-0.328125,-0.28125,0.890625
1631118272281,-0.328125,-0.28125,0.890625
1631118272312,-0.328125,-0.265625,0.890625
1631118272343,-0.328125,-0.28125,0.890625
1631118272375,-0.328125,-0.28125,0.890625
1631118272406,-0.328125,-0.28125,0.890625
1631118272437,-0.328125,-0.28125,0.890625
1631118272468,-0.328125,-0.265625,0.890625
1631118272500,-0.328125,-0.265625,0.890625
1631118272531,-0.328125,-0.28125,0.890625
1631118272562,-0.328125,-0.28125,0.890625
1631118272593,-0.328125,-0.28125,0.890625
1631118272625,-0.328125,-0.265625,0.890625
1631118272656,-0.328125,-0.265625,0.890625
1631118272687,-0.328125,-0.265625,0.890625
1631118272718,-0.328125,-0.265625,0.890625
1631118272750,-0.328125,-0.265625,0.890625
1631118272781,-0.328125,-0.265625,0.890625
1631118272812,-0.328125,-0.265625,0.890625
1631118272843,-0.328125,-0.265625,0.890625
1631118272875,-0.328125,-0.265625,0.890625
1631118272906,-0.328125,-0.265625,0.890625
1631118272937,-0.328125,-0.265625,0.890625
1631118272968,-0.328125,-0.265625,0.890625
1631118273000,-0.328125,-0.265625,0.890625
1631118273031,-0.328125,-0.265625,0.890625
1631118273062,-0.328125,-0.265625,0.890625
1631118273093,-0.328125,-0.265625,0.890625
1631118273125,-0.328125,-0.265625,0.890625
1631118273156,-0.328125,-0.265625,0.890625
1631118273187,-0.328125,-0.265625,0.890625
1631118273218,-0.328125,-0.265625,0.890625
1631118273250,-0.328125,-0.265625,0.890625
1631118273281,-0.328125,-0.265625,0.890625
1631118273312,-0.328125,-0.265625,0.890625
1631118273343,-0.328125,-0.265625,0.890625
1631118273375,-0.328125,-0.265625,0.890625
1631118273406,-0.328125,-0.265625,0.890625
1631118273437,-0.328125,-0.265625,0.890625
1631118273468,-0.328125,-0.265625,0.890625
1631118273500,-0.328125,-0.265625,0.890625
1631118273531,-0.328125,-0.265625,0.890625
1631118273562,-0.34375,-0.265625,0.875
1631118273593,-0.34375,-0.265625,0.890625
1631118273625,-0.34375,-0.265625,0.890625
1631118273656,-0.328125,-0.265625,0.890625
1631118273687,-0.328125,-0.265625,0.890625
1631118273718,-0.328125,-0.265625,0.890625
1631118273750,-0.328125,-0.265625,0.890625
1631118273781,-0.328125,-0.265625,0.890625
1631118273812,-0.328125,-0.265625,0.890625
1631118273843,-0.328125,-0.265625,0.890625
1631118273875,-0.328125,-0.265625,0.890625
1631118273906,-0.328125,-0.25,0.890625
1631118273937,-0.328125,-0.265625,0.890625
1631118273968,-0.328125,-0.265625,0.890625
1631118274000,-0.328125,-0.265625,0.890625
1631118274031,-0.328125,-0.265625,0.890625
1631118274062,-0.34375,-0.265625,0.890625
1631118274093,-0.328125,-0.265625,0.890625
1631118274125,-0.328125,-0.265625,0.890625
1631118274156,-0.328125,-0.265625,0.890625
1631118274187,-0.328125,-0.25,0.890625
1631118274218,-0.34375,-0.265625,0.90625
1631118274250,-0.34375,-0.25,0.90625
1631118274281,-0.375,-0.265625,0.875
1631118274312,-0.359375,-0.265625,0.875
1631118274343,-0.3125,-0.25,0.90625
1631118274375,-0.328125,-0.265625,0.921875
1631118274406,-0.328125,-0.265625,0.90625
1631118274437,-0.328125,-0.25,0.859375
1631118274468,-0.328125,-0.25,0.90625
1631118274500,-0.328125,-0.25,0.921875
1631118274531,-0.3125,-0.265625,0.890625
1631118274562,-0.3125,-0.265625,0.875
1631118274593,-0.34375,-0.265625,0.890625
1631118274625,-0.328125,-0.265625,0.890625
1631118274656,-0.34375,-0.265625,0.875
1631118274687,-0.328125,-0.265625,0.890625
1631118274718,-0.34375,-0.265625,0.890625
1631118274750,-0.3125,-0.265625,0.890625
1631118274781,-0.28125,-0.28125,0.890625
1631118274812,-0.28125,-0.28125,0.921875
1631118274843,-0.25,-0.28125,0.921875
1631118274875,-0.25,-0.28125,0.90625
1631118274906,-0.3125,-0.265625,0.890625
1631118274937,-0.34375,-0.296875,0.890625
1631118274968,-0.3125,-0.28125,0.859375
1631118275000,-0.265625,-0.296875,0.875
1631118275031,-0.28125,-0.28125,0.875
1631118275062,-0.3125,-0.28125,0.890625
1631118275093,-0.3125,-0.28125,0.90625
1631118275125,-0.296875,-0.28125,0.90625
1631118275156,-0.28125,-0.296875,0.921875
1631118275187,-0.265625,-0.3125,0.90625
1631118275218,-0.25,-0.3125,0.90625
1631118275250,-0.265625,-0.34375,0.90625
1631118275281,-0.25,-0.34375,0.890625
1631118275312,-0.234375,-0.359375,0.890625
1631118275343,-0.21875,-0.359375,0.875
1631118275375,-0.203125,-0.34375,0.921875
1631118275406,-0.203125,-0.3125,0.921875
1631118275437,-0.21875,-0.296875,0.90625
1631118275468,-0.21875,-0.28125,0.90625
1631118275500,-0.234375,-0.296875,0.875
1631118275531,-0.234375,-0.296875,0.859375
1631118275562,-0.296875,-0.3125,0.875
1631118275593,-0.328125,-0.3125,0.890625
1631118275625,-0.265625,-0.359375,0.890625
1631118275656,-0.265625,-0.375,0.921875
1631118275687,-0.359375,-0.375,0.859375
1631118275718,-0.359375,-0.359375,0.859375
1631118275750,-0.359375,-0.328125,0.875
1631118275781,-0.4375,-0.3125,0.78125
1631118275812,-0.375,-0.359375,0.828125
1631118275843,-0.375,-0.34375,0.78125
1631118275875,-0.453125,-0.375,0.859375
1631118275906,-0.484375,-0.390625,1.0
1631118275937,-0.484375,-0.375,0.9375
1631118275968,-0.5625,-0.296875,0.578125
1631118276000,-0.5625,-0.28125,0.609375
1631118276031,-0.578125,-0.28125,0.6875
1631118276062,-0.671875,-0.234375,0.796875
1631118276093,-0.6875,-0.25,0.71875
1631118276125,-0.734375,-0.203125,0.625
1631118276156,-0.75,-0.1875,0.609375
1631118276187,-0.75,-0.234375,0.640625
1631118276218,-0.65625,-0.25,0.625
1631118276250,-0.6875,-0.234375,0.640625
1631118276281,-0.65625,-0.25,0.71875
1631118276312,-0.625,-0.234375,0.703125
1631118276343,-0.640625,-0.265625,0.671875
1631118276375,-0.734375,-0.28125,0.640625
1631118276406,-0.75,-0.28125,0.640625
1631118276437,-0.75,-0.265625,0.5625
1631118276468,-0.796875,-0.234375,0.5625
1631118276500,-0.890625,-0.25,0.765625
1631118276531,-0.578125,-0.328125,0.6875
1631118276562,-0.390625,-0.203125,0.515625
1631118276593,-0.640625,-0.265625,0.65625
1631118276625,-0.78125,-0.203125,0.78125
1631118276656,-0.65625,-0.1875,0.71875
1631118276687,-0.609375,-0.15625,0.65625
1631118276718,-0.671875,-0.1875,0.640625
1631118276750,-0.875,-0.25,0.546875
1631118276781,-0.78125,-0.265625,0.625
1631118276812,-0.796875,-0.328125,0.625
1631118276843,-0.921875,-0.296875,0.578125
1631118276875,-0.859375,-0.28125,0.53125
1631118276906,-0.640625,-0.21875,0.5
1631118276937,-0.78125,-0.171875,0.640625
1631118276968,-0.71875,-0.171875,0.640625
1631118277000,-0.640625,-0.203125,0.640625
1631118277031,-0.703125,-0.203125,0.578125
1631118277062,-0.84375,-0.234375,0.546875
1631118277093,-0.828125,-0.28125,0.546875
1631118277125,-0.796875,-0.296875,0.546875
1631118277156,-0.796875,-0.28125,0.5625
1631118277187,-0.796875,-0.296875,0.578125
1631118277218,-0.78125,-0.28125,0.5625
1631118277250,-0.765625,-0.25,0.59375
1631118277281,-0.78125,-0.234375,0.578125
1631118277312,-0.828125,-0.21875,0.578125
1631118277343,-0.703125,-0.234375,0.65625
1631118277375,-0.640625,-0.25,0.671875
1631118277406,-0.8125,-0.234375,0.5625
1631118277437,-0.8125,-0.203125,0.578125
1631118277468,-0.734375,-0.25,0.75
1631118277500,-0.671875,-0.296875,0.71875
1631118277531,-0.609375,-0.296875,0.734375
1631118277562,-0.390625,-0.25,0.75
1631118277593,-0.484375,-0.3125,0.65625
1631118277625,-0.4375,-0.375,0.8125
1631118277656,-0.53125,-0.359375,0.75
1631118277687,-0.546875,-0.328125,0.671875
1631118277718,-0.578125,-0.3125,0.640625
1631118277750,-0.609375,-0.3125,0.6875
1631118277781,-0.703125,-0.296875,0.75
1631118277812,-0.734375,-0.265625,0.703125
1631118277843,-0.6875,-0.25,0.6875
1631118277875,-0.625,-0.265625,0.6875
1631118277906,-0.65625,-0.265625,0.71875
1631118277937,-0.671875,-0.28125,0.703125
1631118277968,-0.671875,-0.265625,0.6875
1631118278000,-0.65625,-0.265625,0.703125
1631118278031,-0.65625,-0.265625,0.71875
1631118278062,-0.640625,-0.265625,0.703125
1631118278093,-0.65625,-0.265625,0.6875
1631118278125,-0.640625,-0.28125,0.703125
1631118278156,-0.640625,-0.28125,0.703125
1631118278187,-0.640625,-0.28125,0.71875
1631118278218,-0.640625,-0.28125,0.703125
1631118278250,-0.640625,-0.28125,0.6875
1631118278281,-0.65625,-0.28125,0.703125
1631118278312,-0.640625,-0.28125,0.703125
1631118278343,-0.640625,-0.28125,0.703125
1631118278375,-0.65625,-0.28125,0.703125
1631118278406,-0.640625,-0.265625,0.703125
1631118278437,-0.640625,-0.28125,0.703125
1631118278468,-0.640625,-0.28125,0.703125
1631118278500,-0.640625,-0.28125,0.703125
1631118278531,-0.65625,-0.28125,0.703125
1631118278562,-0.640625,-0.28125,0.703125
1631118278593,-0.640625,-0.28125,0.703125
1631118278625,-0.640625,-0.28125,0.703125
1631118278656,-0.640625,-0.28125,0.703125
1631118278687,-0.640625,-0.28125,0.703125
1631118278718,-0.65625,-0.28125,0.703125
1631118278750,-0.640625,-0.28125,0.703125
1631118278781,-0.640625,-0.28125,0.703125
1631118278812,-0.65625,-0.28125,0.703125
1631118278843,-0.65625,-0.28125,0.703125
1631118278875,-0.65625,-0.265625,0.703125
1631118278906,-0.65625,-0.28125,0.703125
1631118278937,-0.65625,-0.265625,0.703125
1631118278968,-0.65625,-0.265625,0.703125
1631118279000,-0.65625,-0.265625,0.703125
1631118279031,-0.65625,-0.265625,0.703125
1631118279062,-0.65625,-0.28125,0.703125
1631118279093,-0.65625,-0.28125,0.703125
1631118279125,-0.65625,-0.265625,0.703125
1631118279156,-0.65625,-0.265625,0.703125
1631118279187,-0.65625,-0.265625,0.703125
1631118279218,-0.65625,-0.28125,0.703125
1631118279250,-0.65625,-0.265625,0.703125
1631118279281,-0.65625,-0.265625,0.6875
1631118279312,-0.65625,-0.265625,0.703125
1631118279343,-0.65625,-0.265625,0.703125
1631118279375,-0.65625,-0.265625,0.703125
1631118279406,-0.65625,-0.265625,0.6875
1631118279437,-0.65625,-0.265625,0.703125
1631118279468,-0.65625,-0.265625,0.6875
1631118279500,-0.65625,-0.265625,0.6875
1631118279531,-0.65625,-0.265625,0.703125
1631118279562,-0.65625,-0.265625,0.703125
1631118279593,-0.65625,-0.265625,0.703125
1631118279625,-0.65625,-0.265625,0.703125
1631118279656,-0.65625,-0.265625,0.6875
1631118279687,-0.65625,-0.265625,0.6875
1631118279718,-0.65625,-0.265625,0.6875
1631118279750,-0.65625,-0.265625,0.6875
1631118279781,-0.65625,-0.265625,0.6875
1631118279812,-0.65625,-0.265625,0.6875
1631118279843,-0.65625,-0.265625,0.6875
1631118279875,-0.65625,-0.265625,0.703125
1631118279906,-0.65625,-0.265625,0.703125
1631118279937,-0.65625,-0.265625,0.6875
1631118279968,-0.65625,-0.265625,0.6875
1631118280000,-0.65625,-0.265625,0.6875
1631118280031,-0.65625,-0.265625,0.703125
1631118280062,-0.671875,-0.265625,0.6875
1631118280093,-0.671875,-0.265625,0.6875
1631118280125,-0.65625,-0.265625,0.703125
1631118280156,-0.65625,-0.265625,0.703125
1631118280187,-0.65625,-0.265625,0.6875
1631118280218,-0.65625,-0.265625,0.6875
1631118280250,-0.65625,-0.265625,0.6875
1631118280281,-0.65625,-0.265625,0.703125
1631118280312,-0.65625,-0.265625,0.703125
1631118280343,-0.671875,-0.265625,0.6875
1631118280375,-0.65625,-0.265625,0.6875
1631118280406,-0.65625,-0.265625,0.703125
1631118280437,-0.65625,-0.265625,0.703125
1631118280468,-0.65625,-0.265625,0.6875
1631118280500,-0.671875,-0.265625,0.6875
1631118280531,-0.65625,-0.265625,0.703125
1631118280562,-0.65625,-0.265625,0.703125
1631118280593,-0.65625,-0.265625,0.703125
1631118280625,-0.65625,-0.265625,0.703125
1631118280656,-0.65625,-0.265625,0.6875
1631118280687,-0.65625,-0.265625,0.6875
1631118280718,-0.65625,-0.265625,0.6875
1631118280750,-0.65625,-0.265625,0.703125
1631118280781,-0.671875,-0.265625,0.6875
1631118280812,-0.671875,-0.265625,0.6875
1631118280843,-0.65625,-0.265625,0.6875
1631118280875,-0.671875,-0.265625,0.6875
1631118280906,-0.671875,-0.265625,0.703125
1631118280937,-0.65625,-0.265625,0.6875
1631118280968,-0.65625,-0.265625,0.6875
1631118281000,-0.65625,-0.265625,0.6875
1631118281031,-0.65625,-0.265625,0.6875
1631118281062,-0.671875,-0.265625,0.6875
1631118281093,-0.671875,-0.265625,0.6875
1631118281125,-0.65625,-0.265625,0.6875
1631118281156,-0.65625,-0.265625,0.703125
1631118281187,-0.65625,-0.265625,0.6875
1631118281218,-0.65625,-0.265625,0.6875
1631118281250,-0.671875,-0.265625,0.703125
1631118281281,-0.671875,-0.265625,0.6875
1631118281312,-0.65625,-0.265625,0.703125
1631118281343,-0.65625,-0.265625,0.703125
1631118281375,-0.65625,-0.265625,0.6875
1631118281406,-0.65625,-0.265625,0.6875
1631118281437,-0.65625,-0.265625,0.6875
1631118281468,-0.65625,-0.265625,0.6875
1631118281500,-0.65625,-0.265625,0.6875
1631118281531,-0.65625,-0.265625,0.6875
1631118281562,-0.65625,-0.265625,0.6875
1631118281593,-0.65625,-0.265625,0.6875
1631118281625,-0.65625,-0.265625,0.703125
1631118281656,-0.65625,-0.265625,0.703125
1631118281687,-0.65625,-0.265625,0.6875
1631118281718,-0.671875,-0.265625,0.6875
1631118281750,-0.671875,-0.265625,0.6875
1631118281781,-0.65625,-0.265625,0.703125
1631118281812,-0.65625,-0.265625,0.6875
1631118281843,-0.65625,-0.265625,0.6875
1631118281875,-0.65625,-0.265625,0.6875
1631118281906,-0.65625,-0.265625,0.703125
1631118281937,-0.65625,-0.265625,0.6875
1631118281968,-0.65625,-0.265625,0.6875
1631118282000,-0.65625,-0.265625,0.6875
1631118282031,-0.65625,-0.265625,0.6875
1631118282062,-0.65625,-0.265625,0.6875
1631118282093,-0.65625,-0.265625,0.6875
1631118282125,-0.65625,-0.265625,0.6875
1631118282156,-0.65625,-0.265625,0.703125
1631118282187,-0.65625,-0.265625,0.6875
1631118282218,-0.65625,-0.265625,0.703125
1631118282250,-0.65625,-0.265625,0.6875
1631118282281,-0.65625,-0.265625,0.6875
1631118282312,-0.65625,-0.265625,0.703125
1631118282343,-0.65625,-0.265625,0.6875
1631118282375,-0.65625,-0.265625,0.6875
1631118282406,-0.65625,-0.265625,0.6875
1631118282437,-0.65625,-0.265625,0.703125
1631118282468,-0.65625,-0.265625,0.703125
1631118282500,-0.65625,-0.265625,0.6875
1631118282531,-0.65625,-0.265625,0.6875
1631118282562,-0.65625,-0.28125,0.6875
1631118282593,-0.671875,-0.28125,0.703125
1631118282625,-0.65625,-0.28125,0.703125
1631118282656,-0.65625,-0.265625,0.6875
1631118282687,-0.65625,-0.28125,0.6875
1631118282718,-0.65625,-0.28125,0.6875
1631118282750,-0.65625,-0.28125,0.703125
1631118282781,-0.65625,-0.28125,0.6875
1631118282812,-0.65625,-0.265625,0.703125
1631118282843,-0.65625,-0.265625,0.6875
1631118282875,-0.65625,-0.265625,0.703125
1631118282906,-0.65625,-0.28125,0.6875
1631118282937,-0.65625,-0.265625,0.703125
1631118282968,-0.65625,-0.28125,0.6875
1631118283000,-0.65625,-0.265625,0.6875
1631118283031,-0.65625,-0.265625,0.6875
1631118283062,-0.65625,-0.265625,0.6875
1631118283093,-0.65625,-0.265625,0.6875
1631118283125,-0.65625,-0.265625,0.6875
1631118283156,-0.65625,-0.265625,0.703125
1631118283187,-0.65625,-0.265625,0.6875
1631118283218,-0.65625,-0.265625,0.6875
1631118283250,-0.65625,-0.265625,0.703125
1631118283281,-0.65625,-0.265625,0.6875
1631118283312,-0.65625,-0.265625,0.6875
1631118283343,-0.65625,-0.265625,0.703125
1631118283375,-0.65625,-0.265625,0.6875
1631118283406,-0.65625,-0.265625,0.703125
1631118283437,-0.671875,-0.265625,0.6875
1631118283468,-0.65625,-0.265625,0.6875
1631118283500,-0.65625,-0.265625,0.703125
1631118283531,-0.65625,-0.265625,0.6875
1631118283562,-0.65625,-0.265625,0.703125
1631118283593,-0.65625,-0.265625,0.6875
1631118283625,-0.65625,-0.265625,0.703125
1631118283656,-0.65625,-0.265625,0.6875
1631118283687,-0.65625,-0.265625,0.6875
1631118283718,-0.65625,-0.265625,0.6875
1631118283750,-0.65625,-0.265625,0.6875
1631118283781,-0.65625,-0.265625,0.703125
1631118283812,-0.65625,-0.265625,0.6875
1631118283843,-0.65625,-0.265625,0.6875
1631118283875,-0.65625,-0.265625,0.6875
1631118283906,-0.65625,-0.265625,0.6875
1631118283937,-0.65625,-0.265625,0.6875
1631118283968,-0.65625,-0.265625,0.6875
1631118284000,-0.65625,-0.265625,0.6875
1631118284031,-0.65625,-0.265625,0.6875
1631118284062,-0.671875,-0.265625,0.6875
1631118284093,-0.65625,-0.265625,0.6875
1631118284125,-0.65625,-0.265625,0.6875
1631118284156,-0.65625,-0.265625,0.6875
1631118284187,-0.65625,-0.265625,0.6875
1631118284218,-0.65625,-0.265625,0.6875
1631118284250,-0.65625,-0.265625,0.6875
1631118284281,-0.671875,-0.265625,0.6875
1631118284312,-0.671875,-0.265625,0.703125
1631118284343,-0.65625,-0.265625,0.6875
1631118284375,-0.65625,-0.265625,0.6875
1631118284406,-0.65625,-0.265625,0.6875
1631118284437,-0.65625,-0.265625,0.703125
1631118284468,-0.65625,-0.265625,0.6875
1631118284500,-0.671875,-0.265625,0.703125
1631118284531,-0.65625,-0.265625,0.6875
1631118284562,-0.671875,-0.265625,0.6875
1631118284593,-0.671875,-0.265625,0.703125
1631118284625,-0.671875,-0.265625,0.6875
1631118284656,-0.671875,-0.265625,0.6875
1631118284687,-0.671875,-0.265625,0.6875
1631118284718,-0.65625,-0.265625,0.6875
1631118284750,-0.671875,-0.265625,0.6875
1631118284781,-0.671875,-0.265625,0.6875
1631118284812,-0.671875,-0.265625,0.6875
1631118284843,-0.671875,-0.265625,0.6875
1631118284875,-0.65625,-0.265625,0.703125
1631118284906,-0.65625,-0.265625,0.703125
1631118284937,-0.65625,-0.265625,0.703125
1631118284968,-0.65625,-0.265625,0.6875
1631118285000,-0.65625,-0.265625,0.703125
1631118285031,-0.65625,-0.265625,0.6875
1631118285062,-0.671875,-0.265625,0.6875
1631118285093,-0.65625,-0.265625,0.6875
1631118285125,-0.65625,-0.265625,0.6875
1631118285156,-0.671875,-0.265625,0.6875
1631118285187,-0.671875,-0.265625,0.6875
1631118285218,-0.671875,-0.265625,0.6875
1631118285250,-0.65625,-0.265625,0.6875
1631118285281,-0.65625,-0.265625,0.703125
1631118285312,-0.671875,-0.265625,0.6875
1631118285343,-0.65625,-0.265625,0.6875
1631118285375,-0.671875,-0.265625,0.6875
1631118285406,-0.671875,-0.265625,0.703125
1631118285437,-0.65625,-0.265625,0.6875
1631118285468,-0.671875,-0.265625,0.6875
1631118285500,-0.671875,-0.265625,0.703125
1631118285531,-0.65625,-0.265625,0.6875
1631118285562,-0.671875,-0.265625,0.703125
1631118285593,-0.671875,-0.265625,0.6875
1631118285625,-0.671875,-0.265625,0.6875
1631118285656,-0.65625,-0.265625,0.6875
1631118285687,-0.65625,-0.265625,0.6875
1631118285718,-0.671875,-0.265625,0.6875
1631118285750,-0.671875,-0.265625,0.6875
1631118285781,-0.671875,-0.265625,0.6875
1631118285812,-0.65625,-0.265625,0.6875
1631118285843,-0.671875,-0.265625,0.6875
1631118285875,-0.671875,-0.265625,0.6875
1631118285906,-0.65625,-0.265625,0.6875
1631118285937,-0.65625,-0.265625,0.6875
1631118285968,-0.65625,-0.265625,0.6875
1631118286000,-0.65625,-0.265625,0.703125
1631118286031,-0.65625,-0.265625,0.703125
1631118286062,-0.671875,-0.265625,0.6875
1631118286093,-0.671875,-0.265625,0.703125
1631118286125,-0.65625,-0.265625,0.6875
1631118286156,-0.65625,-0.265625,0.6875
1631118286187,-0.65625,-0.265625,0.6875
1631118286218,-0.65625,-0.265625,0.6875
1631118286250,-0.65625,-0.265625,0.6875
1631118286281,-0.65625,-0.265625,0.6875
1631118286312,-0.65625,-0.265625,0.6875
1631118286343,-0.65625,-0.265625,0.6875
1631118286375,-0.65625,-0.265625,0.6875
1631118286406,-0.65625,-0.265625,0.703125
1631118286437,-0.65625,-0.265625,0.6875
1631118286468,-0.65625,-0.28125,0.6875
1631118286500,-0.65625,-0.265625,0.703125
1631118286531,-0.65625,-0.265625,0.6875
1631118286562,-0.65625,-0.265625,0.6875
1631118286593,-0.65625,-0.265625,0.6875
1631118286625,-0.671875,-0.265625,0.6875
1631118286656,-0.65625,-0.265625,0.6875
1631118286687,-0.65625,-0.265625,0.703125
1631118286718,-0.671875,-0.265625,0.6875
1631118286750,-0.65625,-0.265625,0.6875
1631118286781,-0.65625,-0.265625,0.6875
1631118286812,-0.65625,-0.265625,0.6875
1631118286843,-0.65625,-0.28125,0.6875
1631118286875,-0.65625,-0.265625,0.6875
1631118286906,-0.65625,-0.265625,0.6875
1631118286937,-0.671875,-0.265625,0.703125
1631118286968,-0.65625,-0.265625,0.6875
1631118287000,-0.65625,-0.265625,0.6875
1631118287031,-0.65625,-0.28125,0.6875
1631118287062,-0.65625,-0.28125,0.6875
1631118287093,-0.65625,-0.28125,0.6875
1631118287125,-0.65625,-0.28125,0.6875
1631118287156,-0.65625,-0.265625,0.6875
1631118287187,-0.65625,-0.265625,0.6875
1631118287218,-0.65625,-0.265625,0.6875
1631118287250,-0.65625,-0.265625,0.6875
1631118287281,-0.65625,-0.265625,0.6875
1631118287312,-0.65625,-0.265625,0.6875
1631118287343,-0.65625,-0.265625,0.6875
1631118287375,-0.65625,-0.265625,0.6875
1631118287406,-0.671875,-0.265625,0.6875
1631118287437,-0.65625,-0.265625,0.6875
1631118287468,-0.65625,-0.265625,0.6875
1631118287500,-0.65625,-0.265625,0.703125
1631118287531,-0.671875,-0.265625,0.6875
1631118287562,-0.671875,-0.265625,0.6875
1631118287593,-0.65625,-0.265625,0.6875
1631118287625,-0.65625,-0.265625,0.6875
1631118287656,-0.65625,-0.265625,0.6875
1631118287687,-0.65625,-0.265625,0.6875
1631118287718,-0.65625,-0.265625,0.6875
1631118287750,-0.671875,-0.265625,0.6875
1631118287781,-0.671875,-0.265625,0.6875
1631118287812,-0.65625,-0.265625,0.6875
1631118287843,-0.65625,-0.265625,0.6875
1631118287875,-0.671875,-0.265625,0.703125
1631118287906,-0.671875,-0.265625,0.6875
1631118287937,-0.65625,-0.265625,0.6875
1631118287968,-0.65625,-0.265625,0.6875
1631118288000,-0.671875,-0.265625,0.6875
1631118288031,-0.65625,-0.265625,0.703125
1631118288062,-0.65625,-0.265625,0.6875
1631118288093,-0.65625,-0.265625,0.6875
1631118288125,-0.65625,-0.265625,0.6875
1631118288156,-0.65625,-0.265625,0.6875
1631118288187,-0.671875,-0.265625,0.6875
1631118288218,-0.671875,-0.265625,0.6875
1631118288250,-0.65625,-0.265625,0.6875
1631118288281,-0.65625,-0.265625,0.6875
1631118288312,-0.671875,-0.265625,0.6875
1631118288343,-0.65625,-0.265625,0.6875
1631118288375,-0.65625,-0.265625,0.6875
1631118288406,-0.671875,-0.265625,0.6875
1631118288437,-0.671875,-0.265625,0.6875
1631118288468,-0.671875,-0.265625,0.703125
1631118288500,-0.671875,-0.265625,0.6875
1631118288531,-0.671875,-0.265625,0.6875
1631118288562,-0.671875,-0.265625,0.6875
1631118288593,-0.671875,-0.265625,0.6875
1631118288625,-0.671875,-0.265625,0.6875
1631118288656,-0.65625,-0.265625,0.703125
1631118288687,-0.65625,-0.265625,0.6875
1631118288718,-0.65625,-0.265625,0.6875
1631118288750,-0.671875,-0.265625,0.6875
1631118288781,-0.65625,-0.265625,0.6875
1631118288812,-0.671875,-0.265625,0.6875
1631118288843,-0.671875,-0.265625,0.6875
1631118288875,-0.65625,-0.265625,0.6875
1631118288906,-0.65625,-0.265625,0.6875
1631118288937,-0.671875,-0.265625,0.703125
1631118288968,-0.671875,-0.265625,0.6875
1631118289000,-0.671875,-0.265625,0.6875
1631118289031,-0.671875,-0.265625,0.6875
1631118289062,-0.65625,-0.265625,0.6875
1631118289093,-0.671875,-0.265625,0.6875
1631118289125,-0.671875,-0.265625,0.6875
1631118289156,-0.65625,-0.265625,0.6875
1631118289187,-0.671875,-0.265625,0.6875
1631118289218,-0.671875,-0.265625,0.6875
1631118289250,-0.671875,-0.265625,0.6875
1631118289281,-0.671875,-0.265625,0.703125
1631118289312,-0.65625,-0.265625,0.6875
1631118289343,-0.671875,-0.265625,0.6875
1631118289375,-0.671875,-0.265625,0.6875
1631118289406,-0.65625,-0.265625,0.6875
1631118289437,-0.671875,-0.265625,0.6875
1631118289468,-0.671875,-0.265625,0.6875
1631118289500,-0.671875,-0.265625,0.6875
1631118289531,-0.65625,-0.265625,0.6875
1631118289562,-0.671875,-0.265625,0.6875
1631118289593,-0.65625,-0.265625,0.6875
1631118289625,-0.671875,-0.265625,0.6875
1631118289656,-0.671875,-0.265625,0.6875
1631118289687,-0.65625,-0.265625,0.703125
1631118289718,-0.671875,-0.265625,0.6875
1631118289750,-0.671875,-0.265625,0.703125
1631118289781,-0.65625,-0.265625,0.6875
1631118289812,-0.65625,-0.265625,0.6875
1631118289843,-0.671875,-0.265625,0.6875
1631118289875,-0.671875,-0.265625,0.6875
1631118289906,-0.65625,-0.265625,0.6875
1631118289937,-0.65625,-0.265625,0.6875
1631118289968,-0.65625,-0.265625,0.6875
1631118290000,-0.671875,-0.265625,0.6875
1631118290031,-0.65625,-0.265625,0.6875
1631118290062,-0.671875,-0.265625,0.6875
1631118290093,-0.671875,-0.265625,0.6875
1631118290125,-0.671875,-0.265625,0.6875
1631118290156,-0.671875,-0.265625,0.703125
1631118290187,-0.65625,-0.265625,0.6875
1631118290218,-0.671875,-0.265625,0.703125
1631118290250,-0.65625,-0.265625,0.703125
1631118290281,-0.671875,-0.265625,0.703125
1631118290312,-0.671875,-0.265625,0.703125
1631118290343,-0.65625,-0.265625,0.6875
1631118290375,-0.65625,-0.265625,0.6875
1631118290406,-0.671875,-0.265625,0.6875
1631118290437,-0.65625,-0.265625,0.6875
1631118290468,-0.65625,-0.265625,0.703125
1631118290500,-0.671875,-0.265625,0.6875
1631118290531,-0.65625,-0.265625,0.6875
1631118290562,-0.65625,-0.265625,0.6875
1631118290593,-0.65625,-0.265625,0.6875
1631118290625,-0.65625,-0.265625,0.6875
1631118290656,-0.65625,-0.265625,0.6875
1631118290687,-0.65625,-0.265625,0.6875
1631118290718,-0.65625,-0.265625,0.6875
1631118290750,-0.65625,-0.265625,0.6875
1631118290781,-0.65625,-0.265625,0.6875
1631118290812,-0.65625,-0.265625,0.6875
1631118290843,-0.65625,-0.265625,0.6875
1631118290875,-0.65625,-0.265625,0.6875
1631118290906,-0.65625,-0.265625,0.6875
1631118290937,-0.65625,-0.265625,0.6875
1631118290968,-0.65625,-0.265625,0.703125
1631118291000,-0.65625,-0.265625,0.6875
1631118291031,-0.65625,-0.265625,0.6875
1631118291062,-0.65625,-0.265625,0.6875
1631118291093,-0.65625,-0.265625,0.6875
1631118291125,-0.671875,-0.265625,0.703125
1631118291156,-0.65625,-0.265625,0.6875
1631118291187,-0.65625,-0.265625,0.6875
1631118291218,-0.671875,-0.265625,0.6875
1631118291250,-0.65625,-0.265625,0.6875
1631118291281,-0.65625,-0.265625,0.6875
1631118291312,-0.671875,-0.265625,0.6875
1631118291343,-0.671875,-0.265625,0.6875
1631118291375,-0.671875,-0.265625,0.6875
1631118291406,-0.65625,-0.265625,0.703125
1631118291437,-0.65625,-0.265625,0.703125
1631118291468,-0.671875,-0.265625,0.6875
1631118291500,-0.65625,-0.265625,0.6875
1631118291531,-0.671875,-0.265625,0.6875
1631118291562,-0.671875,-0.265625,0.6875
1631118291593,-0.65625,-0.265625,0.6875
1631118291625,-0.65625,-0.265625,0.6875
1631118291656,-0.65625,-0.265625,0.703125
1631118291687,-0.671875,-0.265625,0.703125
1631118291718,-0.65625,-0.265625,0.6875
1631118291750,-0.65625,-0.265625,0.6875
1631118291781,-0.65625,-0.265625,0.6875
1631118291812,-0.65625,-0.265625,0.6875
1631118291843,-0.65625,-0.265625,0.6875
1631118291875,-0.671875,-0.265625,0.6875
1631118291906,-0.65625,-0.265625,0.703125
1631118291937,-0.671875,-0.265625,0.6875
1631118291968,-0.671875,-0.265625,0.6875
1631118292000,-0.65625,-0.265625,0.6875
1631118292031,-0.65625,-0.265625,0.703125
1631118292062,-0.671875,-0.265625,0.6875
1631118292093,-0.65625,-0.265625,0.6875
1631118292125,-0.671875,-0.265625,0.6875
1631118292156,-0.671875,-0.265625,0.6875
1631118292187,-0.65625,-0.265625,0.6875
1631118292218,-0.65625,-0.265625,0.6875
1631118292250,-0.671875,-0.265625,0.6875
1631118292281,-0.65625,-0.265625,0.703125
1631118292312,-0.671875,-0.265625,0.6875
1631118292343,-0.65625,-0.265625,0.6875
1631118292375,-0.671875,-0.265625,0.703125
1631118292406,-0.671875,-0.265625,0.6875
1631118292437,-0.671875,-0.265625,0.6875
1631118292468,-0.671875,-0.265625,0.6875
1631118292500,-0.671875,-0.265625,0.703125
1631118292531,-0.65625,-0.265625,0.6875
1631118292562,-0.671875,-0.265625,0.6875
1631118292593,-0.671875,-0.265625,0.6875
1631118292625,-0.671875,-0.265625,0.6875
1631118292656,-0.671875,-0.265625,0.6875
1631118292687,-0.671875,-0.265625,0.6875
1631118292718,-0.65625,-0.265625,0.6875
1631118292750,-0.65625,-0.265625,0.703125
1631118292781,-0.671875,-0.265625,0.6875
1631118292812,-0.671875,-0.25,0.6875
1631118292843,-0.65625,-0.265625,0.6875
1631118292875,-0.65625,-0.265625,0.6875
1631118292906,-0.65625,-0.265625,0.6875
1631118292937,-0.65625,-0.265625,0.6875
1631118292968,-0.671875,-0.265625,0.6875
1631118293000,-0.671875,-0.265625,0.6875
1631118293031,-0.671875,-0.265625,0.6875
1631118293062,-0.671875,-0.265625,0.6875
1631118293093,-0.671875,-0.265625,0.703125
1631118293125,-0.65625,-0.265625,0.6875
1631118293156,-0.671875,-0.265625,0.6875
1631118293187,-0.65625,-0.265625,0.6875
1631118293218,-0.671875,-0.265625,0.6875
1631118293250,-0.65625,-0.265625,0.6875
1631118293281,-0.65625,-0.265625,0.703125
1631118293312,-0.671875,-0.265625,0.6875
1631118293343,-0.65625,-0.265625,0.6875
1631118293375,-0.65625,-0.265625,0.6875
1631118293406,-0.671875,-0.265625,0.703125
1631118293437,-0.671875,-0.265625,0.6875
1631118293468,-0.65625,-0.265625,0.6875
1631118293500,-0.65625,-0.265625,0.6875
1631118293531,-0.65625,-0.265625,0.6875
1631118293562,-0.65625,-0.265625,0.6875
1631118293593,-0.65625,-0.265625,0.6875
1631118293625,-0.65625,-0.265625,0.6875
1631118293656,-0.671875,-0.265625,0.6875
1631118293687,-0.671875,-0.265625,0.6875
1631118293718,-0.65625,-0.265625,0.6875
1631118293750,-0.65625,-0.265625,0.6875
1631118293781,-0.65625,-0.265625,0.6875
1631118293812,-0.65625,-0.265625,0.6875
1631118293843,-0.671875,-0.265625,0.6875
1631118293875,-0.65625,-0.265625,0.6875
1631118293906,-0.65625,-0.265625,0.6875
1631118293937,-0.65625,-0.265625,0.6875
1631118293968,-0.65625,-0.265625,0.6875
1631118294000,-0.671875,-0.265625,0.6875
1631118294031,-0.671875,-0.265625,0.6875
1631118294062,-0.65625,-0.265625,0.6875
1631118294093,-0.65625,-0.265625,0.6875
1631118294125,-0.671875,-0.265625,0.6875
1631118294156,-0.65625,-0.265625,0.6875
1631118294187,-0.65625,-0.265625,0.6875
1631118294218,-0.65625,-0.265625,0.6875
1631118294250,-0.65625,-0.265625,0.6875
1631118294281,-0.65625,-0.265625,0.6875
1631118294312,-0.65625,-0.265625,0.6875
1631118294343,-0.65625,-0.265625,0.6875
1631118294375,-0.65625,-0.265625,0.6875
1631118294406,-0.65625,-0.265625,0.6875
1631118294437,-0.65625,-0.265625,0.6875
1631118294468,-0.65625,-0.265625,0.6875
1631118294500,-0.671875,-0.265625,0.6875
1631118294531,-0.65625,-0.265625,0.6875
1631118294562,-0.65625,-0.265625,0.6875
1631118294593,-0.65625,-0.265625,0.6875
1631118294625,-0.65625,-0.28125,0.6875
1631118294656,-0.65625,-0.265625,0.6875
1631118294687,-0.65625,-0.265625,0.6875
1631118294718,-0.65625,-0.265625,0.6875
1631118294750,-0.65625,-0.265625,0.703125
1631118294781,-0.65625,-0.265625,0.703125
1631118294812,-0.65625,-0.265625,0.703125
1631118294843,-0.65625,-0.265625,0.6875
1631118294875,-0.65625,-0.265625,0.6875
1631118294906,-0.65625,-0.265625,0.6875
1631118294937,-0.65625,-0.265625,0.6875
1631118294968,-0.65625,-0.265625,0.703125
1631118295000,-0.65625,-0.265625,0.6875
1631118295031,-0.65625,-0.265625,0.6875
1631118295062,-0.671875,-0.265625,0.703125
1631118295093,-0.65625,-0.265625,0.6875
1631118295125,-0.65625,-0.265625,0.6875
1631118295156,-0.65625,-0.265625,0.6875
1631118295187,-0.65625,-0.265625,0.703125
1631118295218,-0.65625,-0.265625,0.6875
1631118295250,-0.671875,-0.265625,0.703125
1631118295281,-0.65625,-0.265625,0.6875
1631118295312,-0.671875,-0.265625,0.6875
1631118295343,-0.671875,-0.265625,0.6875
1631118295375,-0.65625,-0.265625,0.6875
1631118295406,-0.65625,-0.265625,0.6875
1631118295437,-0.65625,-0.265625,0.6875
1631118295468,-0.65625,-0.265625,0.6875
1631118295500,-0.671875,-0.265625,0.703125
1631118295531,-0.65625,-0.265625,0.6875
1631118295562,-0.65625,-0.265625,0.703125
1631118295593,-0.65625,-0.265625,0.6875
1631118295625,-0.65625,-0.265625,0.6875
1631118295656,-0.671875,-0.265625,0.6875
1631118295687,-0.65625,-0.265625,0.6875
1631118295718,-0.65625,-0.265625,0.6875
1631118295750,-0.671875,-0.265625,0.6875
1631118295781,-0.65625,-0.265625,0.6875
1631118295812,-0.671875,-0.265625,0.6875
1631118295843,-0.65625,-0.265625,0.6875
1631118295875,-0.65625,-0.265625,0.703125
1631118295906,-0.65625,-0.265625,0.6875
1631118295937,-0.65625,-0.265625,0.6875
1631118295968,-0.671875,-0.265625,0.6875
1631118296000,-0.65625,-0.265625,0.6875
1631118296031,-0.65625,-0.265625,0.6875
1631118296062,-0.65625,-0.265625,0.703125
1631118296093,-0.671875,-0.265625,0.6875
1631118296125,-0.65625,-0.265625,0.6875
1631118296156,-0.671875,-0.265625,0.703125
1631118296187,-0.671875,-0.265625,0.703125
1631118296218,-0.671875,-0.265625,0.6875
1631118296250,-0.65625,-0.265625,0.6875
1631118296281,-0.671875,-0.265625,0.6875
1631118296312,-0.65625,-0.265625,0.6875
1631118296343,-0.671875,-0.265625,0.6875
1631118296375,-0.671875,-0.265625,0.6875
1631118296406,-0.671875,-0.265625,0.703125
1631118296437,-0.671875,-0.265625,0.6875
1631118296468,-0.65625,-0.265625,0.6875
1631118296500,-0.65625,-0.265625,0.6875
1631118296531,-0.671875,-0.265625,0.6875
1631118296562,-0.65625,-0.265625,0.6875
1631118296593,-0.65625,-0.265625,0.703125
1631118296625,-0.65625,-0.265625,0.6875
1631118296656,-0.65625,-0.265625,0.6875
1631118296687,-0.65625,-0.265625,0.6875
1631118296718,-0.65625,-0.265625,0.6875
1631118296750,-0.65625,-0.265625,0.703125
1631118296781,-0.65625,-0.265625,0.6875
1631118296812,-0.671875,-0.265625,0.6875
1631118296843,-0.671875,-0.265625,0.6875
1631118296875,-0.671875,-0.265625,0.6875
1631118296906,-0.65625,-0.265625,0.6875
1631118296937,-0.671875,-0.265625,0.6875
1631118296968,-0.671875,-0.265625,0.6875
1631118297000,-0.65625,-0.265625,0.6875
1631118297031,-0.671875,-0.265625,0.6875
1631118297062,-0.671875,-0.265625,0.6875
1631118297093,-0.671875,-0.265625,0.703125
1631118297125,-0.65625,-0.265625,0.6875
1631118297156,-0.65625,-0.265625,0.6875
1631118297187,-0.65625,-0.265625,0.6875
1631118297218,-0.671875,-0.265625,0.6875
1631118297250,-0.671875,-0.265625,0.6875
1631118297281,-0.671875,-0.265625,0.6875
1631118297312,-0.671875,-0.265625,0.6875
1631118297343,-0.671875,-0.265625,0.6875
1631118297375,-0.671875,-0.265625,0.6875
1631118297406,-0.671875,-0.265625,0.6875
1631118297437,-0.671875,-0.265625,0.6875
1631118297468,-0.65625,-0.265625,0.6875
1631118297500,-0.65625,-0.265625,0.6875
1631118297531,-0.65625,-0.265625,0.6875
1631118297562,-0.65625,-0.265625,0.6875
1631118297593,-0.65625,-0.265625,0.6875
1631118297625,-0.65625,-0.265625,0.6875
1631118297656,-0.65625,-0.265625,0.6875
1631118297687,-0.65625,-0.265625,0.703125
1631118297718,-0.65625,-0.265625,0.703125
1631118297750,-0.65625,-0.265625,0.703125
1631118297781,-0.65625,-0.265625,0.703125
1631118297812,-0.65625,-0.265625,0.6875
1631118297843,-0.65625,-0.265625,0.703125
1631118297875,-0.65625,-0.265625,0.6875
1631118297906,-0.65625,-0.265625,0.6875
1631118297937,-0.671875,-0.265625,0.703125
1631118297968,-0.65625,-0.265625,0.6875
1631118298000,-0.65625,-0.265625,0.6875
1631118298031,-0.671875,-0.265625,0.6875
1631118298062,-0.65625,-0.265625,0.6875
1631118298093,-0.65625,-0.265625,0.6875
1631118298125,-0.65625,-0.265625,0.6875
1631118298156,-0.671875,-0.265625,0.6875
1631118298187,-0.65625,-0.265625,0.6875
1631118298218,-0.65625,-0.265625,0.703125
1631118298250,-0.65625,-0.265625,0.6875
1631118298281,-0.65625,-0.265625,0.6875
1631118298312,-0.671875,-0.265625,0.6875
1631118298343,-0.65625,-0.265625,0.6875
1631118298375,-0.65625,-0.28125,0.703125
1631118298406,-0.65625,-0.265625,0.6875
1631118298437,-0.65625,-0.265625,0.6875
1631118298468,-0.65625,-0.265625,0.6875
1631118298500,-0.65625,-0.265625,0.703125
1631118298531,-0.65625,-0.265625,0.703125
1631118298562,-0.65625,-0.265625,0.6875
1631118298593,-0.65625,-0.265625,0.6875
1631118298625,-0.65625,-0.265625,0.6875
1631118298656,-0.65625,-0.265625,0.6875
1631118298687,-0.65625,-0.265625,0.6875
1631118298718,-0.65625,-0.265625,0.703125
1631118298750,-0.671875,-0.265625,0.6875
1631118298781,-0.671875,-0.265625,0.6875
1631118298812,-0.65625,-0.265625,0.6875
1631118298843,-0.65625,-0.265625,0.6875
1631118298875,-0.65625,-0.265625,0.6875
1631118298906,-0.65625,-0.28125,0.6875
1631118298937,-0.65625,-0.265625,0.6875
1631118298968,-0.65625,-0.265625,0.6875
1631118299000,-0.65625,-0.265625,0.703125
1631118299031,-0.65625,-0.265625,0.6875
1631118299062,-0.65625,-0.265625,0.6875
1631118299093,-0.65625,-0.265625,0.6875
1631118299125,-0.671875,-0.265625,0.6875
1631118299156,-0.65625,-0.265625,0.6875
1631118299187,-0.65625,-0.265625,0.6875
1631118299218,-0.65625,-0.265625,0.703125
1631118299250,-0.65625,-0.265625,0.6875
1631118299281,-0.65625,-0.265625,0.6875
1631118299312,-0.65625,-0.265625,0.6875
1631118299343,-0.671875,-0.265625,0.6875
1631118299375,-0.671875,-0.265625,0.6875
1631118299406,-0.65625,-0.265625,0.6875
1631118299437,-0.671875,-0.265625,0.6875
1631118299468,-0.65625,-0.265625,0.703125
1631118299500,-0.65625,-0.28125,0.6875
1631118299531,-0.65625,-0.265625,0.6875
1631118299562,-0.65625,-0.265625,0.6875
1631118299593,-0.671875,-0.265625,0.703125
1631118299625,-0.65625,-0.265625,0.6875
1631118299656,-0.65625,-0.265625,0.6875
1631118299687,-0.65625,-0.265625,0.6875
1631118299718,-0.671875,-0.265625,0.6875
1631118299750,-0.65625,-0.265625,0.6875
1631118299781,-0.65625,-0.265625,0.6875
1631118299812,-0.65625,-0.265625,0.703125
1631118299843,-0.65625,-0.265625,0.6875
1631118299875,-0.671875,-0.265625,0.6875
1631118299906,-0.671875,-0.265625,0.6875
1631118299937,-0.671875,-0.265625,0.6875
1631118299968,-0.671875,-0.265625,0.703125
1631118300000,-0.65625,-0.265625,0.6875
1631118300031,-0.671875,-0.265625,0.6875
1631118300062,-0.671875,-0.265625,0.6875
1631118300093,-0.65625,-0.265625,0.6875
1631118300125,-0.65625,-0.265625,0.6875
1631118300156,-0.671875,-0.265625,0.6875
1631118300187,-0.671875,-0.265625,0.703125
1631118300218,-0.671875,-0.265625,0.6875
1631118300250,-0.65625,-0.265625,0.6875
1631118300281,-0.65625,-0.265625,0.6875
1631118300312,-0.65625,-0.265625,0.6875
1631118300343,-0.671875,-0.265625,0.6875
1631118300375,-0.65625,-0.265625,0.6875
1631118300406,-0.671875,-0.265625,0.703125
1631118300437,-0.671875,-0.265625,0.6875
1631118300468,-0.671875,-0.265625,0.703125
1631118300500,-0.65625,-0.265625,0.6875
1631118300531,-0.65625,-0.265625,0.6875
1631118300562,-0.65625,-0.265625,0.6875
1631118300593,-0.65625,-0.265625,0.6875
1631118300625,-0.65625,-0.265625,0.6875
1631118300656,-0.671875,-0.265625,0.6875
1631118300687,-0.671875,-0.265625,0.703125
1631118300718,-0.65625,-0.265625,0.6875
1631118300750,-0.65625,-0.265625,0.6875
1631118300781,-0.671875,-0.265625,0.6875
1631118300812,-0.671875,-0.265625,0.6875
1631118300843,-0.65625,-0.265625,0.6875
1631118300875,-0.671875,-0.265625,0.6875
1631118300906,-0.671875,-0.265625,0.6875
1631118300937,-0.671875,-0.265625,0.6875
1631118300968,-0.671875,-0.265625,0.6875
1631118301000,-0.671875,-0.265625,0.6875
1631118301031,-0.671875,-0.265625,0.6875
1631118301062,-0.671875,-0.265625,0.6875
1631118301093,-0.671875,-0.265625,0.6875
1631118301125,-0.671875,-0.265625,0.6875
1631118301156,-0.671875,-0.265625,0.6875
1631118301187,-0.671875,-0.265625,0.6875
1631118301218,-0.671875,-0.265625,0.6875
1631118301250,-0.671875,-0.265625,0.6875
1631118301281,-0.671875,-0.265625,0.6875
1631118301312,-0.671875,-0.265625,0.6875
1631118301343,-0.671875,-0.265625,0.6875
1631118301375,-0.65625,-0.265625,0.6875
1631118301406,-0.671875,-0.265625,0.6875
1631118301437,-0.65625,-0.265625,0.6875
1631118301468,-0.671875,-0.265625,0.6875
1631118301500,-0.671875,-0.265625,0.6875
1631118301531,-0.671875,-0.265625,0.6875
1631118301562,-0.671875,-0.265625,0.6875
1631118301593,-0.671875,-0.265625,0.6875
1631118301625,-0.671875,-0.265625,0.703125
1631118301656,-0.671875,-0.265625,0.6875
1631118301687,-0.671875,-0.265625,0.6875
1631118301718,-0.671875,-0.265625,0.6875
1631118301750,-0.65625,-0.265625,0.6875
1631118301781,-0.671875,-0.265625,0.6875
1631118301812,-0.671875,-0.265625,0.6875
1631118301843,-0.671875,-0.265625,0.6875
1631118301875,-0.65625,-0.265625,0.6875
1631118301906,-0.671875,-0.265625,0.6875
1631118301937,-0.671875,-0.265625,0.6875
1631118301968,-0.671875,-0.265625,0.6875
1631118302000,-0.65625,-0.265625,0.703125
1631118302031,-0.65625,-0.265625,0.703125
1631118302062,-0.65625,-0.265625,0.6875
1631118302093,-0.65625,-0.265625,0.703125
1631118302125,-0.65625,-0.265625,0.703125
1631118302156,-0.671875,-0.265625,0.6875
1631118302187,-0.65625,-0.265625,0.6875
1631118302218,-0.65625,-0.265625,0.703125
1631118302250,-0.65625,-0.265625,0.6875
1631118302281,-0.65625,-0.265625,0.6875
1631118302312,-0.65625,-0.265625,0.6875
1631118302343,-0.65625,-0.265625,0.703125
1631118302375,-0.671875,-0.265625,0.6875
1631118302406,-0.671875,-0.265625,0.6875
1631118302437,-0.65625,-0.265625,0.6875
1631118302468,-0.671875,-0.265625,0.6875
1631118302500,-0.65625,-0.265625,0.6875
1631118302531,-0.65625,-0.265625,0.6875
1631118302562,-0.671875,-0.265625,0.6875
1631118302593,-0.65625,-0.265625,0.703125
1631118302625,-0.65625,-0.265625,0.703125
1631118302656,-0.65625,-0.265625,0.6875
1631118302687,-0.65625,-0.265625,0.6875
1631118302718,-0.65625,-0.265625,0.703125
1631118302750,-0.65625,-0.265625,0.6875
1631118302781,-0.65625,-0.265625,0.6875
1631118302812,-0.65625,-0.265625,0.6875
1631118302843,-0.65625,-0.265625,0.6875
1631118302875,-0.65625,-0.265625,0.703125
1631118302906,-0.671875,-0.265625,0.6875
1631118302937,-0.65625,-0.265625,0.6875
1631118302968,-0.65625,-0.265625,0.6875
1631118303000,-0.671875,-0.28125,0.703125
1631118303031,-0.65625,-0.28125,0.703125
1631118303062,-0.65625,-0.265625,0.6875
1631118303093,-0.65625,-0.28125,0.6875
1631118303125,-0.65625,-0.28125,0.703125
1631118303156,-0.65625,-0.28125,0.6875
1631118303187,-0.65625,-0.265625,0.6875
1631118303218,-0.65625,-0.265625,0.703125
1631118303250,-0.65625,-0.265625,0.703125
1631118303281,-0.65625,-0.265625,0.6875
1631118303312,-0.65625,-0.265625,0.6875
1631118303343,-0.65625,-0.265625,0.6875
1631118303375,-0.65625,-0.265625,0.6875
1631118303406,-0.65625,-0.265625,0.6875
1631118303437,-0.65625,-0.265625,0.703125
1631118303468,-0.65625,-0.265625,0.6875
1631118303500,-0.65625,-0.265625,0.703125
1631118303531,-0.65625,-0.265625,0.6875
1631118303562,-0.65625,-0.265625,0.6875
1631118303593,-0.65625,-0.265625,0.6875
1631118303625,-0.65625,-0.265625,0.6875
1631118303656,-0.65625,-0.265625,0.6875
1631118303687,-0.65625,-0.265625,0.703125
1631118303718,-0.65625,-0.265625,0.6875
1631118303750,-0.65625,-0.28125,0.6875
1631118303781,-0.65625,-0.265625,0.703125
1631118303812,-0.65625,-0.28125,0.6875
1631118303843,-0.671875,-0.28125,0.6875
1631118303875,-0.65625,-0.265625,0.6875
1631118303906,-0.65625,-0.265625,0.6875
1631118303937,-0.65625,-0.28125,0.6875
1631118303968,-0.65625,-0.265625,0.6875
1631118304000,-0.65625,-0.28125,0.6875
1631118304031,-0.65625,-0.265625,0.6875
1631118304062,-0.65625,-0.265625,0.6875
1631118304093,-0.65625,-0.265625,0.6875
1631118304125,-0.65625,-0.265625,0.6875
1631118304156,-0.65625,-0.265625,0.6875
1631118304187,-0.671875,-0.265625,0.6875
1631118304218,-0.671875,-0.28125,0.6875
1631118304250,-0.671875,-0.265625,0.6875
1631118304281,-0.65625,-0.28125,0.6875
1631118304312,-0.65625,-0.265625,0.6875
1631118304343,-0.65625,-0.28125,0.6875
1631118304375,-0.65625,-0.265625,0.6875
1631118304406,-0.65625,-0.265625,0.6875
1631118304437,-0.65625,-0.28125,0.6875
1631118304468,-0.65625,-0.265625,0.703125
1631118304500,-0.65625,-0.265625,0.6875
1631118304531,-0.65625,-0.265625,0.6875
1631118304562,-0.65625,-0.265625,0.6875
1631118304593,-0.65625,-0.265625,0.6875
1631118304625,-0.65625,-0.265625,0.6875
1631118304656,-0.671875,-0.265625,0.6875
1631118304687,-0.671875,-0.265625,0.703125
1631118304718,-0.671875,-0.265625,0.6875
1631118304750,-0.671875,-0.265625,0.6875
1631118304781,-0.65625,-0.265625,0.6875
1631118304812,-0.65625,-0.265625,0.703125
1631118304843,-0.65625,-0.265625,0.6875
1631118304875,-0.671875,-0.265625,0.6875
1631118304906,-0.65625,-0.265625,0.6875
1631118304937,-0.65625,-0.265625,0.6875
1631118304968,-0.65625,-0.265625,0.6875
1631118305000,-0.65625,-0.265625,0.6875
1631118305031,-0.671875,-0.265625,0.6875
1631118305062,-0.671875,-0.265625,0.6875
1631118305093,-0.671875,-0.265625,0.6875
1631118305125,-0.65625,-0.265625,0.6875
1631118305156,-0.65625,-0.265625,0.6875
1631118305187,-0.671875,-0.265625,0.703125
1631118305218,-0.65625,-0.265625,0.6875
1631118305250,-0.671875,-0.265625,0.6875
1631118305281,-0.65625,-0.265625,0.6875
1631118305312,-0.65625,-0.265625,0.6875
1631118305343,-0.65625,-0.265625,0.703125
1631118305375,-0.65625,-0.265625,0.6875
1631118305406,-0.671875,-0.265625,0.6875
1631118305437,-0.65625,-0.265625,0.6875
1631118305468,-0.65625,-0.265625,0.6875
1631118305500,-0.671875,-0.265625,0.6875
1631118305531,-0.671875,-0.265625,0.6875
1631118305562,-0.65625,-0.265625,0.6875
1631118305593,-0.65625,-0.265625,0.6875
1631118305625,-0.65625,-0.265625,0.6875
1631118305656,-0.65625,-0.265625,0.6875
1631118305687,-0.671875,-0.265625,0.6875
1631118305718,-0.671875,-0.265625,0.6875
1631118305750,-0.65625,-0.265625,0.6875
1631118305781,-0.65625,-0.265625,0.6875
1631118305812,-0.671875,-0.265625,0.6875
1631118305843,-0.65625,-0.265625,0.703125
1631118305875,-0.671875,-0.265625,0.6875
1631118305906,-0.671875,-0.265625,0.6875
1631118305937,-0.671875,-0.265625,0.6875
1631118305968,-0.671875,-0.265625,0.6875
1631118306000,-0.65625,-0.265625,0.6875
1631118306031,-0.671875,-0.265625,0.6875
1631118306062,-0.65625,-0.265625,0.6875
1631118306093,-0.65625,-0.265625,0.6875
1631118306125,-0.65625,-0.265625,0.6875
1631118306156,-0.65625,-0.265625,0.6875
1631118306187,-0.65625,-0.265625,0.703125
1631118306218,-0.65625,-0.265625,0.6875
1631118306250,-0.65625,-0.265625,0.6875
1631118306281,-0.65625,-0.265625,0.6875
1631118306312,-0.65625,-0.265625,0.6875
1631118306343,-0.671875,-0.265625,0.6875
1631118306375,-0.671875,-0.265625,0.703125
1631118306406,-0.65625,-0.265625,0.6875
1631118306437,-0.65625,-0.265625,0.6875
1631118306468,-0.671875,-0.265625,0.6875
1631118306500,-0.65625,-0.265625,0.6875
1631118306531,-0.671875,-0.265625,0.6875
1631118306562,-0.671875,-0.265625,0.6875
1631118306593,-0.671875,-0.265625,0.6875
1631118306625,-0.671875,-0.265625,0.6875
1631118306656,-0.671875,-0.265625,0.6875
1631118306687,-0.671875,-0.265625,0.703125
1631118306718,-0.671875,-0.265625,0.6875
1631118306750,-0.671875,-0.265625,0.6875
1631118306781,-0.671875,-0.265625,0.6875
1631118306812,-0.671875,-0.265625,0.6875
1631118306843,-0.671875,-0.265625,0.6875
1631118306875,-0.65625,-0.265625,0.6875
1631118306906,-0.65625,-0.265625,0.6875
1631118306937,-0.65625,-0.265625,0.6875
1631118306968,-0.671875,-0.265625,0.6875
1631118307000,-0.671875,-0.265625,0.6875
1631118307031,-0.671875,-0.265625,0.6875
1631118307062,-0.671875,-0.265625,0.703125
1631118307093,-0.65625,-0.265625,0.6875
1631118307125,-0.65625,-0.265625,0.6875
1631118307156,-0.671875,-0.265625,0.6875
1631118307187,-0.65625,-0.265625,0.703125
1631118307218,-0.671875,-0.265625,0.6875
1631118307250,-0.671875,-0.265625,0.703125
1631118307281,-0.65625,-0.265625,0.703125
1631118307312,-0.65625,-0.265625,0.6875
1631118307343,-0.65625,-0.265625,0.6875
1631118307375,-0.65625,-0.265625,0.6875
1631118307406,-0.65625,-0.265625,0.6875
1631118307437,-0.65625,-0.265625,0.6875
1631118307468,-0.65625,-0.265625,0.6875
1631118307500,-0.671875,-0.265625,0.6875
1631118307531,-0.65625,-0.265625,0.6875
1631118307562,-0.65625,-0.265625,0.6875
1631118307593,-0.65625,-0.265625,0.6875
1631118307625,-0.65625,-0.265625,0.6875
1631118307656,-0.671875,-0.265625,0.6875
1631118307687,-0.65625,-0.265625,0.6875
1631118307718,-0.65625,-0.265625,0.6875
1631118307750,-0.65625,-0.265625,0.6875
1631118307781,-0.65625,-0.265625,0.6875
1631118307812,-0.65625,-0.265625,0.6875
1631118307843,-0.65625,-0.265625,0.6875
1631118307875,-0.65625,-0.265625,0.6875
1631118307906,-0.65625,-0.265625,0.6875
1631118307937,-0.65625,-0.265625,0.6875
1631118307968,-0.65625,-0.28125,0.703125
1631118308000,-0.65625,-0.265625,0.6875
1631118308031,-0.65625,-0.265625,0.6875
1631118308062,-0.65625,-0.265625,0.6875
1631118308093,-0.671875,-0.265625,0.6875
1631118308125,-0.671875,-0.265625,0.703125
1631118308156,-0.65625,-0.265625,0.6875
1631118308187,-0.65625,-0.265625,0.6875
1631118308218,-0.65625,-0.265625,0.703125
1631118308250,-0.65625,-0.28125,0.6875
1631118308281,-0.671875,-0.28125,0.6875
1631118308312,-0.671875,-0.265625,0.6875
1631118308343,-0.65625,-0.265625,0.6875
1631118308375,-0.65625,-0.265625,0.6875
1631118308406,-0.65625,-0.265625,0.6875
1631118308437,-0.671875,-0.265625,0.6875
1631118308468,-0.65625,-0.265625,0.6875
1631118308500,-0.65625,-0.265625,0.703125
1631118308531,-0.65625,-0.265625,0.6875
1631118308562,-0.65625,-0.265625,0.6875
1631118308593,-0.65625,-0.265625,0.6875
1631118308625,-0.65625,-0.265625,0.6875
1631118308656,-0.65625,-0.265625,0.6875
1631118308687,-0.65625,-0.265625,0.6875
1631118308718,-0.65625,-0.265625,0.703125
1631118308750,-0.65625,-0.265625,0.6875
1631118308781,-0.65625,-0.265625,0.6875
1631118308812,-0.671875,-0.28125,0.6875
1631118308843,-0.65625,-0.265625,0.6875
1631118308875,-0.65625,-0.265625,0.6875
1631118308906,-0.671875,-0.265625,0.703125
1631118308937,-0.671875,-0.265625,0.703125
1631118308968,-0.65625,-0.265625,0.6875
1631118309000,-0.65625,-0.265625,0.6875
1631118309031,-0.671875,-0.265625,0.6875
1631118309062,-0.65625,-0.265625,0.6875
1631118309093,-0.65625,-0.265625,0.6875
1631118309125,-0.671875,-0.265625,0.6875
1631118309156,-0.671875,-0.265625,0.6875
1631118309187,-0.671875,-0.265625,0.6875
1631118309218,-0.65625,-0.265625,0.703125
1631118309250,-0.65625,-0.265625,0.6875
1631118309281,-0.671875,-0.265625,0.6875
1631118309312,-0.65625,-0.265625,0.6875
1631118309343,-0.65625,-0.265625,0.6875
1631118309375,-0.65625,-0.28125,0.6875
1631118309406,-0.65625,-0.265625,0.6875
1631118309437,-0.65625,-0.265625,0.6875
1631118309468,-0.65625,-0.265625,0.6875
1631118309500,-0.65625,-0.265625,0.6875
1631118309531,-0.671875,-0.265625,0.6875
1631118309562,-0.65625,-0.265625,0.6875
1631118309593,-0.65625,-0.265625,0.6875
1631118309625,-0.65625,-0.265625,0.6875
1631118309656,-0.671875,-0.265625,0.6875
1631118309687,-0.65625,-0.265625,0.6875
1631118309718,-0.65625,-0.265625,0.703125
1631118309750,-0.671875,-0.265625,0.6875
1631118309781,-0.671875,-0.265625,0.6875
1631118309812,-0.65625,-0.265625,0.6875
1631118309843,-0.65625,-0.265625,0.6875
1631118309875,-0.65625,-0.265625,0.6875
1631118309906,-0.65625,-0.265625,0.6875
1631118309937,-0.65625,-0.265625,0.6875
1631118309968,-0.671875,-0.265625,0.6875
1631118310000,-0.671875,-0.265625,0.703125
1631118310031,-0.671875,-0.265625,0.6875
1631118310062,-0.65625,-0.265625,0.703125
1631118310093,-0.65625,-0.265625,0.6875
1631118310125,-0.65625,-0.28125,0.6875
1631118310156,-0.65625,-0.265625,0.6875
1631118310187,-0.65625,-0.265625,0.6875
1631118310218,-0.65625,-0.265625,0.6875
1631118310250,-0.65625,-0.265625,0.6875
1631118310281,-0.671875,-0.265625,0.6875
1631118310312,-0.65625,-0.265625,0.703125
1631118310343,-0.671875,-0.265625,0.6875
1631118310375,-0.65625,-0.265625,0.703125
1631118310406,-0.671875,-0.265625,0.6875
1631118310437,-0.65625,-0.265625,0.6875
1631118310468,-0.65625,-0.265625,0.6875
1631118310500,-0.65625,-0.265625,0.6875
1631118310531,-0.671875,-0.265625,0.6875
1631118310562,-0.65625,-0.265625,0.6875
1631118310593,-0.671875,-0.265625,0.6875
1631118310625,-0.671875,-0.265625,0.6875
1631118310656,-0.65625,-0.265625,0.6875
1631118310687,-0.65625,-0.265625,0.6875
1631118310718,-0.65625,-0.265625,0.6875
1631118310750,-0.671875,-0.265625,0.6875
1631118310781,-0.671875,-0.265625,0.6875
1631118310812,-0.65625,-0.265625,0.6875
1631118310843,-0.65625,-0.265625,0.6875
1631118310875,-0.65625,-0.265625,0.6875
1631118310906,-0.65625,-0.265625,0.703125
1631118310937,-0.671875,-0.265625,0.6875
1631118310968,-0.671875,-0.265625,0.6875
1631118311000,-0.65625,-0.265625,0.6875
1631118311031,-0.65625,-0.265625,0.6875
1631118311062,-0.65625,-0.265625,0.6875
1631118311093,-0.671875,-0.265625,0.6875
1631118311125,-0.65625,-0.265625,0.6875
1631118311156,-0.65625,-0.265625,0.6875
1631118311187,-0.671875,-0.265625,0.6875
1631118311218,-0.65625,-0.265625,0.6875
1631118311250,-0.65625,-0.265625,0.6875
1631118311281,-0.65625,-0.265625,0.6875
1631118311312,-0.65625,-0.265625,0.6875
1631118311343,-0.65625,-0.265625,0.6875
1631118311375,-0.65625,-0.265625,0.6875
1631118311406,-0.671875,-0.265625,0.6875
1631118311437,-0.671875,-0.265625,0.703125
1631118311468,-0.65625,-0.265625,0.6875
1631118311500,-0.65625,-0.265625,0.6875
1631118311531,-0.65625,-0.265625,0.6875
1631118311562,-0.65625,-0.265625,0.6875
1631118311593,-0.65625,-0.265625,0.6875
1631118311625,-0.65625,-0.265625,0.6875
1631118311656,-0.65625,-0.265625,0.703125
1631118311687,-0.671875,-0.265625,0.703125
1631118311718,-0.65625,-0.265625,0.6875
1631118311750,-0.65625,-0.265625,0.6875
1631118311781,-0.671875,-0.265625,0.6875
1631118311812,-0.671875,-0.265625,0.6875
1631118311843,-0.65625,-0.265625,0.6875
1631118311875,-0.65625,-0.265625,0.703125
1631118311906,-0.65625,-0.265625,0.6875
1631118311937,-0.65625,-0.265625,0.6875
1631118311968,-0.65625,-0.265625,0.6875
1631118312000,-0.671875,-0.265625,0.703125
1631118312031,-0.671875,-0.265625,0.6875
1631118312062,-0.65625,-0.265625,0.6875
1631118312093,-0.65625,-0.265625,0.6875
1631118312125,-0.671875,-0.265625,0.6875
1631118312156,-0.671875,-0.265625,0.6875
1631118312187,-0.65625,-0.28125,0.6875
1631118312218,-0.671875,-0.265625,0.6875
1631118312250,-0.65625,-0.265625,0.703125
1631118312281,-0.65625,-0.265625,0.6875
1631118312312,-0.65625,-0.28125,0.6875
1631118312343,-0.65625,-0.28125,0.6875
1631118312375,-0.65625,-0.265625,0.6875
1631118312406,-0.65625,-0.28125,0.6875
1631118312437,-0.65625,-0.265625,0.703125
1631118312468,-0.65625,-0.265625,0.6875
1631118312500,-0.65625,-0.265625,0.703125
1631118312531,-0.65625,-0.265625,0.6875
1631118312562,-0.65625,-0.265625,0.6875
1631118312593,-0.671875,-0.265625,0.6875
1631118312625,-0.65625,-0.265625,0.6875
1631118312656,-0.65625,-0.265625,0.703125
1631118312687,-0.65625,-0.265625,0.6875
1631118312718,-0.671875,-0.265625,0.6875
1631118312750,-0.65625,-0.265625,0.6875
1631118312781,-0.65625,-0.265625,0.6875
1631118312812,-0.671875,-0.265625,0.6875
1631118312843,-0.671875,-0.265625,0.6875
1631118312875,-0.671875,-0.265625,0.6875
1631118312906,-0.65625,-0.265625,0.6875
1631118312937,-0.671875,-0.265625,0.6875
1631118312968,-0.65625,-0.265625,0.6875
1631118313000,-0.65625,-0.265625,0.6875
1631118313031,-0.671875,-0.265625,0.6875
1631118313062,-0.65625,-0.265625,0.6875
1631118313093,-0.65625,-0.265625,0.6875
1631118313125,-0.65625,-0.28125,0.6875
1631118313156,-0.65625,-0.28125,0.6875
1631118313187,-0.65625,-0.28125,0.6875
1631118313218,-0.671875,-0.265625,0.6875
1631118313250,-0.671875,-0.28125,0.6875
1631118313281,-0.671875,-0.265625,0.6875
1631118313312,-0.65625,-0.265625,0.6875
1631118313343,-0.65625,-0.265625,0.6875
1631118313375,-0.65625,-0.265625,0.703125
1631118313406,-0.65625,-0.265625,0.6875
1631118313437,-0.65625,-0.265625,0.6875
1631118313468,-0.65625,-0.265625,0.703125
1631118313500,-0.65625,-0.265625,0.6875
1631118313531,-0.65625,-0.265625,0.703125
1631118313562,-0.65625,-0.265625,0.6875
1631118313593,-0.65625,-0.265625,0.703125
1631118313625,-0.65625,-0.28125,0.6875
1631118313656,-0.65625,-0.265625,0.6875
1631118313687,-0.65625,-0.265625,0.6875
1631118313718,-0.65625,-0.265625,0.6875
1631118313750,-0.65625,-0.265625,0.6875
1631118313781,-0.65625,-0.265625,0.6875
1631118313812,-0.65625,-0.265625,0.6875
1631118313843,-0.671875,-0.265625,0.6875
1631118313875,-0.671875,-0.265625,0.6875
1631118313906,-0.65625,-0.265625,0.6875
1631118313937,-0.671875,-0.265625,0.6875
1631118313968,-0.671875,-0.265625,0.6875
1631118314000,-0.65625,-0.28125,0.6875
1631118314031,-0.65625,-0.265625,0.703125
1631118314062,-0.671875,-0.265625,0.6875
1631118314093,-0.671875,-0.265625,0.6875
1631118314125,-0.65625,-0.265625,0.6875
1631118314156,-0.671875,-0.265625,0.6875
1631118314187,-0.65625,-0.265625,0.6875
1631118314218,-0.671875,-0.265625,0.6875
1631118314250,-0.671875,-0.265625,0.6875
1631118314281,-0.671875,-0.265625,0.6875
1631118314312,-0.65625,-0.265625,0.6875
1631118314343,-0.671875,-0.265625,0.6875
1631118314375,-0.671875,-0.265625,0.6875
1631118314406,-0.65625,-0.265625,0.6875
1631118314437,-0.671875,-0.265625,0.6875
1631118314468,-0.671875,-0.265625,0.6875
1631118314500,-0.65625,-0.265625,0.703125
1631118314531,-0.65625,-0.265625,0.6875
1631118314562,-0.671875,-0.265625,0.6875
1631118314593,-0.671875,-0.265625,0.6875
1631118314625,-0.65625,-0.265625,0.6875
1631118314656,-0.671875,-0.265625,0.703125
1631118314687,-0.65625,-0.265625,0.6875
1631118314718,-0.65625,-0.28125,0.6875
1631118314750,-0.65625,-0.265625,0.6875
1631118314781,-0.65625,-0.265625,0.6875
1631118314812,-0.65625,-0.265625,0.6875
1631118314843,-0.671875,-0.28125,0.6875
1631118314875,-0.65625,-0.265625,0.6875
1631118314906,-0.65625,-0.265625,0.6875
1631118314937,-0.65625,-0.265625,0.6875
1631118314968,-0.65625,-0.265625,0.6875
1631118315000,-0.65625,-0.28125,0.6875
1631118315031,-0.65625,-0.28125,0.703125
1631118315062,-0.65625,-0.265625,0.703125
1631118315093,-0.65625,-0.28125,0.703125
1631118315125,-0.671875,-0.28125,0.6875
1631118315156,-0.65625,-0.28125,0.6875
1631118315187,-0.671875,-0.265625,0.6875
1631118315218,-0.65625,-0.265625,0.6875
1631118315250,-0.65625,-0.265625,0.6875
1631118315281,-0.65625,-0.28125,0.703125
1631118315312,-0.671875,-0.28125,0.6875
1631118315343,-0.671875,-0.28125,0.6875
1631118315375,-0.65625,-0.265625,0.6875
1631118315406,-0.65625,-0.28125,0.6875
1631118315437,-0.671875,-0.28125,0.6875
1631118315468,-0.65625,-0.28125,0.6875
1631118315500,-0.65625,-0.265625,0.6875
1631118315531,-0.65625,-0.265625,0.6875
1631118315562,-0.65625,-0.265625,0.6875
1631118315593,-0.65625,-0.28125,0.6875
1631118315625,-0.671875,-0.28125,0.6875
1631118315656,-0.65625,-0.265625,0.6875
1631118315687,-0.671875,-0.265625,0.6875
1631118315718,-0.671875,-0.265625,0.6875
1631118315750,-0.65625,-0.265625,0.6875
1631118315781,-0.671875,-0.265625,0.6875
1631118315812,-0.671875,-0.265625,0.6875
1631118315843,-0.65625,-0.28125,0.6875
1631118315875,-0.65625,-0.265625,0.6875
1631118315906,-0.671875,-0.265625,0.6875
1631118315937,-0.65625,-0.265625,0.6875
1631118315968,-0.65625,-0.265625,0.6875
1631118316000,-0.65625,-0.265625,0.6875
1631118316031,-0.65625,-0.28125,0.6875
1631118316062,-0.65625,-0.265625,0.6875
1631118316093,-0.65625,-0.265625,0.6875
1631118316125,-0.65625,-0.265625,0.703125
1631118316156,-0.65625,-0.265625,0.6875
1631118316187,-0.65625,-0.265625,0.6875
1631118316218,-0.65625,-0.265625,0.6875
1631118316250,-0.671875,-0.265625,0.6875
1631118316281,-0.671875,-0.265625,0.6875
1631118316312,-0.65625,-0.265625,0.6875
1631118316343,-0.671875,-0.28125,0.6875
1631118316375,-0.65625,-0.28125,0.6875
1631118316406,-0.65625,-0.265625,0.6875
1631118316437,-0.671875,-0.28125,0.6875
1631118316468,-0.65625,-0.265625,0.6875
1631118316500,-0.671875,-0.265625,0.6875
1631118316531,-0.671875,-0.265625,0.6875
1631118316562,-0.65625,-0.265625,0.6875
1631118316593,-0.671875,-0.265625,0.6875
1631118316625,-0.65625,-0.265625,0.6875
1631118316656,-0.671875,-0.28125,0.703125
1631118316687,-0.65625,-0.265625,0.6875
1631118316718,-0.65625,-0.265625,0.6875
1631118316750,-0.65625,-0.28125,0.6875
1631118316781,-0.65625,-0.265625,0.6875
1631118316812,-0.671875,-0.265625,0.703125
1631118316843,-0.65625,-0.265625,0.6875
1631118316875,-0.65625,-0.265625,0.6875
1631118316906,-0.65625,-0.265625,0.6875
1631118316937,-0.671875,-0.265625,0.6875
1631118316968,-0.65625,-0.265625,0.6875
1631118317000,-0.671875,-0.265625,0.6875
1631118317031,-0.65625,-0.28125,0.703125
1631118317062,-0.671875,-0.265625,0.6875
1631118317093,-0.671875,-0.265625,0.6875
1631118317125,-0.65625,-0.265625,0.6875
1631118317156,-0.65625,-0.265625,0.6875
1631118317187,-0.65625,-0.28125,0.6875
1631118317218,-0.65625,-0.265625,0.6875
1631118317250,-0.671875,-0.265625,0.6875
1631118317281,-0.671875,-0.265625,0.6875
1631118317312,-0.671875,-0.265625,0.6875
1631118317343,-0.65625,-0.265625,0.6875
1631118317375,-0.65625,-0.265625,0.6875
1631118317406,-0.671875,-0.265625,0.6875
1631118317437,-0.65625,-0.265625,0.6875
1631118317468,-0.671875,-0.265625,0.6875
1631118317500,-0.671875,-0.265625,0.6875
1631118317531,-0.65625,-0.265625,0.6875
1631118317562,-0.65625,-0.265625,0.6875
1631118317593,-0.671875,-0.265625,0.6875
1631118317625,-0.65625,-0.265625,0.703125
1631118317656,-0.65625,-0.265625,0.6875
1631118317687,-0.671875,-0.265625,0.6875
1631118317718,-0.671875,-0.265625,0.6875
1631118317750,-0.65625,-0.265625,0.6875
1631118317781,-0.65625,-0.265625,0.6875
1631118317812,-0.671875,-0.265625,0.6875
1631118317843,-0.65625,-0.28125,0.6875
1631118317875,-0.65625,-0.265625,0.6875
1631118317906,-0.671875,-0.265625,0.6875
1631118317937,-0.65625,-0.265625,0.703125
1631118317968,-0.65625,-0.265625,0.6875
1631118318000,-0.671875,-0.265625,0.6875
1631118318031,-0.671875,-0.28125,0.6875
1631118318062,-0.65625,-0.265625,0.6875
1631118318093,-0.65625,-0.265625,0.6875
1631118318125,-0.65625,-0.265625,0.6875
1631118318156,-0.65625,-0.265625,0.703125
1631118318187,-0.671875,-0.265625,0.6875
1631118318218,-0.65625,-0.265625,0.6875
1631118318250,-0.65625,-0.265625,0.6875
1631118318281,-0.65625,-0.265625,0.6875
1631118318312,-0.671875,-0.265625,0.6875
1631118318343,-0.65625,-0.28125,0.6875
1631118318375,-0.65625,-0.265625,0.6875
1631118318406,-0.65625,-0.28125,0.6875
1631118318437,-0.65625,-0.265625,0.6875
1631118318468,-0.65625,-0.28125,0.6875
1631118318500,-0.65625,-0.28125,0.6875
1631118318531,-0.671875,-0.265625,0.6875
1631118318562,-0.65625,-0.28125,0.6875
1631118318593,-0.65625,-0.265625,0.6875
1631118318625,-0.65625,-0.265625,0.6875
1631118318656,-0.671875,-0.265625,0.6875
1631118318687,-0.65625,-0.265625,0.6875
1631118318718,-0.65625,-0.28125,0.6875
1631118318750,-0.671875,-0.28125,0.703125
1631118318781,-0.65625,-0.28125,0.6875
1631118318812,-0.65625,-0.265625,0.6875
1631118318843,-0.65625,-0.28125,0.6875
1631118318875,-0.65625,-0.28125,0.6875
1631118318906,-0.65625,-0.28125,0.6875
1631118318937,-0.671875,-0.265625,0.6875
1631118318968,-0.65625,-0.265625,0.6875
1631118319000,-0.65625,-0.265625,0.6875
1631118319031,-0.65625,-0.265625,0.6875
1631118319062,-0.65625,-0.28125,0.6875
1631118319093,-0.671875,-0.28125,0.6875
1631118319125,-0.65625,-0.265625,0.6875
1631118319156,-0.65625,-0.265625,0.6875
1631118319187,-0.65625,-0.265625,0.6875
1631118319218,-0.65625,-0.265625,0.6875
1631118319250,-0.65625,-0.265625,0.6875
1631118319281,-0.65625,-0.28125,0.6875
1631118319312,-0.65625,-0.265625,0.6875
1631118319343,-0.65625,-0.265625,0.703125
1631118319375,-0.671875,-0.265625,0.6875
1631118319406,-0.65625,-0.265625,0.6875
1631118319437,-0.65625,-0.265625,0.6875
1631118319468,-0.671875,-0.28125,0.6875
1631118319500,-0.65625,-0.265625,0.6875
1631118319531,-0.65625,-0.28125,0.6875
1631118319562,-0.671875,-0.265625,0.6875
1631118319593,-0.671875,-0.28125,0.703125
1631118319625,-0.65625,-0.265625,0.6875
1631118319656,-0.65625,-0.265625,0.6875
1631118319687,-0.671875,-0.265625,0.6875
1631118319718,-0.65625,-0.28125,0.6875
1631118319750,-0.671875,-0.265625,0.6875
1631118319781,-0.671875,-0.265625,0.6875
1631118319812,-0.671875,-0.265625,0.6875
1631118319843,-0.671875,-0.265625,0.703125
1631118319875,-0.65625,-0.28125,0.6875
1631118319906,-0.65625,-0.265625,0.6875
1631118319937,-0.65625,-0.28125,0.6875
1631118319968,-0.65625,-0.265625,0.6875
1631118320000,-0.65625,-0.28125,0.6875
1631118320031,-0.671875,-0.28125,0.6875
1631118320062,-0.65625,-0.28125,0.6875
1631118320093,-0.65625,-0.28125,0.6875
1631118320125,-0.65625,-0.28125,0.6875
1631118320156,-0.65625,-0.28125,0.6875
1631118320187,-0.65625,-0.265625,0.6875
1631118320218,-0.65625,-0.265625,0.6875
1631118320250,-0.65625,-0.265625,0.6875
1631118320281,-0.65625,-0.28125,0.6875
1631118320312,-0.671875,-0.28125,0.6875
1631118320343,-0.65625,-0.28125,0.6875
1631118320375,-0.65625,-0.28125,0.6875
1631118320406,-0.671875,-0.28125,0.6875
1631118320437,-0.671875,-0.28125,0.6875
1631118320468,-0.65625,-0.28125,0.6875
1631118320500,-0.65625,-0.28125,0.6875
1631118320531,-0.65625,-0.28125,0.6875
1631118320562,-0.65625,-0.28125,0.6875
1631118320593,-0.65625,-0.28125,0.6875
1631118320625,-0.65625,-0.28125,0.6875
1631118320656,-0.671875,-0.265625,0.6875
1631118320687,-0.65625,-0.265625,0.6875
1631118320718,-0.65625,-0.265625,0.6875
1631118320750,-0.65625,-0.265625,0.6875
1631118320781,-0.671875,-0.265625,0.6875
1631118320812,-0.65625,-0.265625,0.703125
1631118320843,-0.65625,-0.265625,0.703125
1631118320875,-0.65625,-0.265625,0.703125
1631118320906,-0.671875,-0.265625,0.703125
1631118320937,-0.671875,-0.265625,0.6875
1631118320968,-0.65625,-0.265625,0.6875
1631118321000,-0.671875,-0.265625,0.6875
1631118321031,-0.671875,-0.28125,0.703125
1631118321062,-0.65625,-0.265625,0.65625
1631118321093,-0.640625,-0.25,0.65625
1631118321125,-0.6875,-0.265625,0.703125
1631118321156,-0.671875,-0.265625,0.703125
1631118321187,-0.65625,-0.25,0.671875
1631118321218,-0.703125,-0.265625,0.671875
1631118321250,-0.703125,-0.28125,0.6875
1631118321281,-0.640625,-0.28125,0.703125
1631118321312,-0.640625,-0.28125,0.671875
1631118321343,-0.6875,-0.28125,0.671875
1631118321375,-0.65625,-0.28125,0.6875
1631118321406,-0.65625,-0.265625,0.671875
1631118321437,-0.71875,-0.265625,0.640625
1631118321468,-0.71875,-0.265625,0.640625
1631118321500,-0.6875,-0.265625,0.65625
1631118321531,-0.703125,-0.25,0.625
1631118321562,-0.71875,-0.25,0.625
1631118321593,-0.734375,-0.25,0.625
1631118321625,-0.75,-0.25,0.640625
1631118321656,-0.75,-0.265625,0.71875
1631118321687,-0.640625,-0.28125,0.625
1631118321718,-0.6875,-0.3125,0.6875
1631118321750,-0.765625,-0.34375,0.71875
1631118321781,-0.609375,-0.234375,0.578125
1631118321812,-0.65625,-0.28125,0.59375
1631118321843,-0.765625,-0.28125,0.734375
1631118321875,-0.75,-0.265625,0.6875
1631118321906,-0.703125,-0.265625,0.578125
1631118321937,-0.734375,-0.21875,0.59375
1631118321968,-0.671875,-0.203125,0.609375
1631118322000,-0.578125,-0.203125,0.65625
1631118322031,-0.609375,-0.171875,0.671875
1631118322062,-0.59375,-0.1875,0.6875
1631118322093,-0.640625,-0.234375,0.671875
1631118322125,-0.765625,-0.296875,0.734375
1631118322156,-0.875,-0.265625,0.8125
1631118322187,-0.796875,-0.1875,0.78125
1631118322218,-0.484375,-0.1875,0.578125
1631118322250,-0.75,-0.1875,0.65625
1631118322281,-0.75,-0.234375,0.703125
1631118322312,-0.671875,-0.234375,0.6875
1631118322343,-0.6875,-0.25,0.671875
1631118322375,-0.71875,-0.21875,0.640625
1631118322406,-0.625,-0.25,0.640625
1631118322437,-0.6875,-0.296875,0.640625
1631118322468,-0.765625,-0.328125,0.640625
1631118322500,-0.6875,-0.3125,0.59375
1631118322531,-0.671875,-0.34375,0.578125
1631118322562,-0.71875,-0.390625,0.59375
1631118322593,-0.765625,-0.375,0.625
1631118322625,-0.765625,-0.328125,0.640625
1631118322656,-0.78125,-0.234375,0.65625
1631118322687,-0.65625,-0.203125,0.625
1631118322718,-0.734375,-0.203125,0.65625
1631118322750,-0.6875,-0.25,0.6875
1631118322781,-0.703125,-0.296875,0.578125
1631118322812,-0.703125,-0.359375,0.546875
1631118322843,-0.6875,-0.375,0.546875
1631118322875,-0.75,-0.40625,0.5
1631118322906,-0.78125,-0.421875,0.484375
1631118322937,-0.90625,-0.40625,0.515625
1631118322968,-0.71875,-0.390625,0.515625
1631118323000,-0.78125,-0.390625,0.5
1631118323031,-0.828125,-0.375,0.5625
1631118323062,-0.734375,-0.359375,0.6875
1631118323093,-0.671875,-0.328125,0.6875
1631118323125,-0.703125,-0.3125,0.578125
1631118323156,-0.71875,-0.3125,0.578125
1631118323187,-0.703125,-0.34375,0.546875
1631118323218,-0.734375,-0.359375,0.578125
1631118323250,-0.75,-0.359375,0.578125
1631118323281,-0.71875,-0.34375,0.609375
1631118323312,-0.703125,-0.328125,0.625
1631118323343,-0.671875,-0.296875,0.6875
1631118323375,-0.65625,-0.28125,0.6875
1631118323406,-0.65625,-0.265625,0.703125
1631118323437,-0.640625,-0.265625,0.703125
1631118323468,-0.640625,-0.28125,0.6875
1631118323500,-0.65625,-0.296875,0.6875
1631118323531,-0.671875,-0.3125,0.671875
1631118323562,-0.65625,-0.296875,0.671875
1631118323593,-0.671875,-0.3125,0.6875
1631118323625,-0.671875,-0.328125,0.6875
1631118323656,-0.65625,-0.328125,0.671875
1631118323687,-0.671875,-0.328125,0.65625
1631118323718,-0.671875,-0.328125,0.671875
1631118323750,-0.65625,-0.3125,0.671875
1631118323781,-0.671875,-0.328125,0.65625
1631118323812,-0.6875,-0.34375,0.671875
1631118323843,-0.640625,-0.328125,0.6875
1631118323875,-0.625,-0.3125,0.703125
1631118323906,-0.625,-0.28125,0.703125
1631118323937,-0.65625,-0.28125,0.703125
1631118323968,-0.65625,-0.28125,0.703125
1631118324000,-0.640625,-0.296875,0.71875
1631118324031,-0.625,-0.296875,0.703125
1631118324062,-0.609375,-0.296875,0.6875
1631118324093,-0.609375,-0.3125,0.703125
1631118324125,-0.625,-0.3125,0.6875
1631118324156,-0.640625,-0.3125,0.6875
1631118324187,-0.640625,-0.3125,0.6875
1631118324218,-0.640625,-0.3125,0.6875
1631118324250,-0.671875,-0.3125,0.6875
1631118324281,-0.6875,-0.296875,0.6875
1631118324312,-0.625,-0.296875,0.71875
1631118324343,-0.609375,-0.3125,0.703125
1631118324375,-0.640625,-0.34375,0.671875
1631118324406,-0.640625,-0.34375,0.671875
1631118324437,-0.640625,-0.328125,0.671875
1631118324468,-0.625,-0.328125,0.6875
1631118324500,-0.640625,-0.328125,0.703125
1631118324531,-0.671875,-0.3125,0.6875
1631118324562,-0.671875,-0.28125,0.703125
1631118324593,-0.625,-0.28125,0.71875
1631118324625,-0.640625,-0.28125,0.6875
1631118324656,-0.640625,-0.3125,0.6875
1631118324687,-0.640625,-0.3125,0.6875
1631118324718,-0.625,-0.328125,0.671875
1631118324750,-0.640625,-0.328125,0.6875
1631118324781,-0.65625,-0.3125,0.703125
1631118324812,-0.640625,-0.3125,0.71875
1631118324843,-0.640625,-0.296875,0.71875
1631118324875,-0.640625,-0.296875,0.703125
1631118324906,-0.640625,-0.296875,0.703125
1631118324937,-0.640625,-0.296875,0.703125
1631118324968,-0.65625,-0.28125,0.6875
1631118325000,-0.65625,-0.296875,0.6875
1631118325031,-0.640625,-0.3125,0.6875
1631118325062,-0.640625,-0.3125,0.6875
1631118325093,-0.65625,-0.3125,0.6875
1631118325125,-0.65625,-0.296875,0.6875
1631118325156,-0.640625,-0.296875,0.703125
1631118325187,-0.640625,-0.3125,0.703125
1631118325218,-0.640625,-0.3125,0.6875
1631118325250,-0.65625,-0.296875,0.6875
1631118325281,-0.640625,-0.296875,0.6875
1631118325312,-0.65625,-0.296875,0.6875
1631118325343,-0.640625,-0.296875,0.703125
1631118325375,-0.640625,-0.3125,0.6875
1631118325406,-0.640625,-0.3125,0.703125
1631118325437,-0.640625,-0.3125,0.703125
1631118325468,-0.640625,-0.3125,0.703125
1631118325500,-0.640625,-0.3125,0.6875
1631118325531,-0.640625,-0.3125,0.703125
1631118325562,-0.640625,-0.3125,0.703125
1631118325593,-0.640625,-0.3125,0.703125
1631118325625,-0.640625,-0.3125,0.6875
1631118325656,-0.640625,-0.3125,0.6875
1631118325687,-0.625,-0.3125,0.703125
1631118325718,-0.625,-0.3125,0.703125
1631118325750,-0.640625,-0.3125,0.6875
1631118325781,-0.640625,-0.3125,0.703125
1631118325812,-0.625,-0.3125,0.703125
1631118325843,-0.640625,-0.296875,0.6875
1631118325875,-0.640625,-0.296875,0.703125
1631118325906,-0.640625,-0.296875,0.703125
1631118325937,-0.640625,-0.3125,0.703125
1631118325968,-0.640625,-0.3125,0.703125
1631118326000,-0.640625,-0.3125,0.6875
1631118326031,-0.640625,-0.3125,0.703125
1631118326062,-0.640625,-0.3125,0.703125
1631118326093,-0.640625,-0.3125,0.703125
1631118326125,-0.640625,-0.3125,0.703125
1631118326156,-0.640625,-0.3125,0.703125
1631118326187,-0.640625,-0.3125,0.6875
1631118326218,-0.640625,-0.296875,0.703125
1631118326250,-0.640625,-0.3125,0.703125
1631118326281,-0.640625,-0.3125,0.703125
1631118326312,-0.640625,-0.296875,0.703125
1631118326343,-0.640625,-0.296875,0.703125
1631118326375,-0.640625,-0.3125,0.703125
1631118326406,-0.640625,-0.3125,0.703125
1631118326437,-0.625,-0.3125,0.703125
1631118326468,-0.625,-0.296875,0.703125
1631118326500,-0.640625,-0.296875,0.703125
1631118326531,-0.640625,-0.296875,0.703125
1631118326562,-0.640625,-0.296875,0.703125
1631118326593,-0.625,-0.296875,0.703125
1631118326625,-0.640625,-0.296875,0.703125
1631118326656,-0.625,-0.296875,0.703125
1631118326687,-0.625,-0.3125,0.703125
1631118326718,-0.640625,-0.3125,0.703125
1631118326750,-0.640625,-0.3125,0.703125
1631118326781,-0.640625,-0.296875,0.703125
1631118326812,-0.640625,-0.296875,0.703125
1631118326843,-0.640625,-0.296875,0.703125
1631118326875,-0.625,-0.296875,0.703125
1631118326906,-0.640625,-0.296875,0.703125
1631118326937,-0.640625,-0.296875,0.703125
1631118326968,-0.640625,-0.296875,0.703125
1631118327000,-0.640625,-0.296875,0.703125
1631118327031,-0.640625,-0.296875,0.703125
1631118327062,-0.640625,-0.296875,0.703125
1631118327093,-0.625,-0.296875,0.703125
1631118327125,-0.640625,-0.3125,0.703125
1631118327156,-0.640625,-0.296875,0.703125
1631118327187,-0.640625,-0.3125,0.703125
1631118327218,-0.640625,-0.296875,0.703125
1631118327250,-0.640625,-0.296875,0.703125
1631118327281,-0.640625,-0.296875,0.703125
1631118327312,-0.640625,-0.296875,0.703125
1631118327343,-0.625,-0.296875,0.703125
1631118327375,-0.640625,-0.296875,0.703125
1631118327406,-0.640625,-0.3125,0.703125
1631118327437,-0.640625,-0.3125,0.703125
1631118327468,-0.640625,-0.296875,0.703125
1631118327500,-0.640625,-0.296875,0.703125
1631118327531,-0.625,-0.296875,0.703125
1631118327562,-0.640625,-0.296875,0.703125
1631118327593,-0.640625,-0.296875,0.703125
1631118327625,-0.625,-0.296875,0.703125
1631118327656,-0.640625,-0.296875,0.703125
1631118327687,-0.625,-0.296875,0.703125
1631118327718,-0.625,-0.296875,0.703125
1631118327750,-0.640625,-0.296875,0.703125
1631118327781,-0.625,-0.296875,0.703125
1631118327812,-0.640625,-0.296875,0.703125
1631118327843,-0.640625,-0.296875,0.703125
1631118327875,-0.640625,-0.296875,0.703125
1631118327906,-0.640625,-0.296875,0.703125
1631118327937,-0.625,-0.296875,0.703125
1631118327968,-0.625,-0.3125,0.703125
1631118328000,-0.625,-0.296875,0.703125
1631118328031,-0.625,-0.296875,0.703125
1631118328062,-0.640625,-0.296875,0.703125
1631118328093,-0.640625,-0.296875,0.703125
1631118328125,-0.625,-0.296875,0.703125
1631118328156,-0.625,-0.296875,0.71875
1631118328187,-0.625,-0.296875,0.703125
1631118328218,-0.625,-0.3125,0.703125
1631118328250,-0.640625,-0.3125,0.6875
1631118328281,-0.640625,-0.3125,0.703125
1631118328312,-0.640625,-0.3125,0.703125
1631118328343,-0.640625,-0.296875,0.6875
1631118328375,-0.640625,-0.3125,0.703125
1631118328406,-0.640625,-0.3125,0.703125
1631118328437,-0.625,-0.3125,0.703125
1631118328468,-0.640625,-0.3125,0.703125
1631118328500,-0.640625,-0.3125,0.6875
1631118328531,-0.625,-0.3125,0.703125
1631118328562,-0.625,-0.3125,0.703125
1631118328593,-0.640625,-0.3125,0.703125
1631118328625,-0.625,-0.3125,0.703125
1631118328656,-0.625,-0.3125,0.703125
1631118328687,-0.625,-0.3125,0.703125
1631118328718,-0.640625,-0.3125,0.703125
1631118328750,-0.640625,-0.3125,0.703125
1631118328781,-0.625,-0.3125,0.703125
1631118328812,-0.625,-0.3125,0.703125
1631118328843,-0.625,-0.3125,0.703125
1631118328875,-0.640625,-0.3125,0.703125
1631118328906,-0.640625,-0.3125,0.703125
1631118328937,-0.625,-0.3125,0.703125
1631118328968,-0.625,-0.3125,0.703125
1631118329000,-0.625,-0.3125,0.703125
1631118329031,-0.625,-0.3125,0.703125
1631118329062,-0.625,-0.3125,0.703125
1631118329093,-0.625,-0.3125,0.703125
1631118329125,-0.625,-0.3125,0.703125
1631118329156,-0.625,-0.3125,0.703125
1631118329187,-0.625,-0.3125,0.703125
1631118329218,-0.625,-0.3125,0.703125
1631118329250,-0.625,-0.3125,0.703125
1631118329281,-0.625,-0.3125,0.703125
1631118329312,-0.625,-0.3125,0.703125
1631118329343,-0.625,-0.3125,0.703125
1631118329375,-0.625,-0.3125,0.703125
1631118329406,-0.625,-0.3125,0.703125
1631118329437,-0.625,-0.3125,0.703125
1631118329468,-0.625,-0.3125,0.703125
1631118329500,-0.625,-0.3125,0.703125
1631118329531,-0.625,-0.3125,0.703125
1631118329562,-0.625,-0.3125,0.703125
1631118329593,-0.625,-0.3125,0.703125
1631118329625,-0.625,-0.3125,0.703125
1631118329656,-0.625,-0.3125,0.703125
1631118329687,-0.625,-0.3125,0.703125
1631118329718,-0.625,-0.3125,0.703125
1631118329750,-0.625,-0.3125,0.703125
1631118329781,-0.625,-0.3125,0.703125
1631118329812,-0.625,-0.3125,0.703125
1631118329843,-0.625,-0.3125,0.703125
1631118329875,-0.625,-0.3125,0.703125
1631118329906,-0.625,-0.3125,0.703125
1631118329937,-0.625,-0.3125,0.703125
1631118329968,-0.625,-0.3125,0.703125
1631118330000,-0.625,-0.3125,0.703125
1631118330031,-0.625,-0.3125,0.703125
1631118330062,-0.625,-0.3125,0.703125
1631118330093,-0.625,-0.3125,0.703125
1631118330125,-0.625,-0.3125,0.703125
1631118330156,-0.625,-0.3125,0.703125
1631118330187,-0.625,-0.3125,0.703125
1631118330218,-0.625,-0.3125,0.703125
1631118330250,-0.625,-0.3125,0.703125
1631118330281,-0.625,-0.3125,0.703125
1631118330312,-0.625,-0.3125,0.703125
1631118330343,-0.625,-0.296875,0.703125
1631118330375,-0.625,-0.3125,0.703125
1631118330406,-0.625,-0.3125,0.703125
1631118330437,-0.625,-0.3125,0.703125
1631118330468,-0.625,-0.3125,0.703125
1631118330500,-0.625,-0.3125,0.703125
1631118330531,-0.625,-0.3125,0.703125
1631118330562,-0.625,-0.3125,0.703125
1631118330593,-0.625,-0.3125,0.703125
1631118330625,-0.625,-0.3125,0.71875
1631118330656,-0.625,-0.3125,0.703125
1631118330687,-0.625,-0.3125,0.703125
1631118330718,-0.625,-0.3125,0.703125
1631118330750,-0.625,-0.3125,0.703125
1631118330781,-0.625,-0.296875,0.703125
1631118330812,-0.625,-0.3125,0.703125
1631118330843,-0.625,-0.296875,0.703125
1631118330875,-0.625,-0.3125,0.703125
1631118330906,-0.625,-0.3125,0.703125
1631118330937,-0.625,-0.3125,0.703125
1631118330968,-0.625,-0.296875,0.703125
1631118331000,-0.625,-0.3125,0.703125
1631118331031,-0.625,-0.3125,0.703125
1631118331062,-0.625,-0.3125,0.703125
1631118331093,-0.625,-0.3125,0.703125
1631118331125,-0.625,-0.296875,0.703125
1631118331156,-0.625,-0.3125,0.703125
1631118331187,-0.625,-0.3125,0.703125
1631118331218,-0.625,-0.3125,0.703125
1631118331250,-0.625,-0.3125,0.703125
1631118331281,-0.625,-0.3125,0.703125
1631118331312,-0.625,-0.3125,0.703125
1631118331343,-0.625,-0.3125,0.703125
1631118331375,-0.625,-0.3125,0.703125
1631118331406,-0.625,-0.296875,0.703125
1631118331437,-0.625,-0.3125,0.703125
1631118331468,-0.625,-0.296875,0.703125
1631118331500,-0.625,-0.3125,0.703125
1631118331531,-0.625,-0.296875,0.703125
1631118331562,-0.625,-0.3125,0.703125
1631118331593,-0.625,-0.3125,0.703125
1631118331625,-0.625,-0.3125,0.703125
1631118331656,-0.625,-0.3125,0.703125
1631118331687,-0.625,-0.3125,0.703125
1631118331718,-0.625,-0.296875,0.703125
1631118331750,-0.625,-0.3125,0.703125
1631118331781,-0.625,-0.3125,0.703125
1631118331812,-0.625,-0.3125,0.703125
1631118331843,-0.625,-0.3125,0.703125
1631118331875,-0.625,-0.3125,0.703125
1631118331906,-0.625,-0.3125,0.703125
1631118331937,-0.625,-0.3125,0.703125
1631118331968,-0.625,-0.3125,0.71875
1631118332000,-0.625,-0.3125,0.703125
1631118332031,-0.625,-0.3125,0.703125
1631118332062,-0.625,-0.3125,0.703125
1631118332093,-0.625,-0.3125,0.703125
1631118332125,-0.625,-0.3125,0.703125
1631118332156,-0.625,-0.3125,0.703125
1631118332187,-0.625,-0.3125,0.703125
1631118332218,-0.625,-0.3125,0.703125
1631118332250,-0.625,-0.3125,0.703125
1631118332281,-0.625,-0.3125,0.703125
1631118332312,-0.625,-0.3125,0.703125
1631118332343,-0.625,-0.3125,0.703125
1631118332375,-0.625,-0.3125,0.703125
1631118332406,-0.625,-0.3125,0.703125
1631118332437,-0.609375,-0.3125,0.71875
1631118332468,-0.625,-0.3125,0.703125
1631118332500,-0.625,-0.3125,0.703125
1631118332531,-0.625,-0.3125,0.703125
1631118332562,-0.625,-0.3125,0.703125
1631118332593,-0.625,-0.3125,0.703125
1631118332625,-0.625,-0.3125,0.703125
1631118332656,-0.625,-0.3125,0.703125
1631118332687,-0.625,-0.3125,0.703125
1631118332718,-0.625,-0.3125,0.703125
1631118332750,-0.625,-0.3125,0.703125
1631118332781,-0.625,-0.3125,0.703125
1631118332812,-0.625,-0.3125,0.703125
1631118332843,-0.625,-0.3125,0.703125
1631118332875,-0.625,-0.3125,0.703125
1631118332906,-0.625,-0.3125,0.71875
1631118332937,-0.625,-0.3125,0.703125
1631118332968,-0.625,-0.3125,0.703125
1631118333000,-0.625,-0.3125,0.703125
1631118333031,-0.625,-0.3125,0.703125
1631118333062,-0.625,-0.3125,0.703125
1631118333093,-0.625,-0.3125,0.703125
1631118333125,-0.625,-0.3125,0.703125
1631118333156,-0.625,-0.3125,0.703125
1631118333187,-0.625,-0.3125,0.703125
1631118333218,-0.625,-0.3125,0.703125
1631118333250,-0.625,-0.3125,0.703125
1631118333281,-0.625,-0.3125,0.703125
1631118333312,-0.625,-0.3125,0.703125
1631118333343,-0.625,-0.3125,0.703125
1631118333375,-0.625,-0.3125,0.703125
1631118333406,-0.625,-0.3125,0.703125
1631118333437,-0.625,-0.3125,0.71875
1631118333468,-0.625,-0.3125,0.71875
1631118333500,-0.625,-0.3125,0.703125
1631118333531,-0.625,-0.3125,0.71875
1631118333562,-0.625,-0.3125,0.703125
1631118333593,-0.625,-0.3125,0.703125
1631118333625,-0.625,-0.3125,0.703125
1631118333656,-0.625,-0.3125,0.703125
1631118333687,-0.625,-0.3125,0.703125
1631118333718,-0.625,-0.3125,0.703125
1631118333750,-0.625,-0.3125,0.703125
1631118333781,-0.625,-0.3125,0.71875
1631118333812,-0.625,-0.3125,0.71875
1631118333843,-0.625,-0.3125,0.703125
1631118333875,-0.625,-0.3125,0.71875
1631118333906,-0.625,-0.3125,0.703125
1631118333937,-0.625,-0.3125,0.71875
1631118333968,-0.625,-0.3125,0.71875
1631118334000,-0.625,-0.3125,0.703125
1631118334031,-0.625,-0.3125,0.703125
1631118334062,-0.625,-0.3125,0.71875
1631118334093,-0.625,-0.3125,0.71875
1631118334125,-0.625,-0.296875,0.71875
1631118334156,-0.609375,-0.3125,0.703125
1631118334187,-0.625,-0.3125,0.703125
1631118334218,-0.625,-0.3125,0.703125
1631118334250,-0.625,-0.3125,0.703125
1631118334281,-0.625,-0.3125,0.703125
1631118334312,-0.625,-0.3125,0.703125
1631118334343,-0.625,-0.3125,0.703125
1631118334375,-0.625,-0.3125,0.71875
1631118334406,-0.609375,-0.3125,0.71875
1631118334437,-0.59375,-0.296875,0.734375
1631118334468,-0.640625,-0.3125,0.71875
1631118334500,-0.671875,-0.28125,0.671875
1631118334531,-0.625,-0.28125,0.6875
1631118334562,-0.53125,-0.3125,0.78125
1631118334593,-0.609375,-0.3125,0.75
1631118334625,-0.671875,-0.328125,0.6875
1631118334656,-0.609375,-0.328125,0.6875
1631118334687,-0.609375,-0.328125,0.71875
1631118334718,-0.625,-0.3125,0.734375
1631118334750,-0.609375,-0.3125,0.71875
1631118334781,-0.59375,-0.328125,0.71875
1631118334812,-0.59375,-0.34375,0.71875
1631118334843,-0.609375,-0.34375,0.71875
1631118334875,-0.609375,-0.328125,0.703125
1631118334906,-0.609375,-0.3125,0.703125
1631118334937,-0.609375,-0.3125,0.71875
1631118334968,-0.609375,-0.3125,0.71875
1631118335000,-0.609375,-0.3125,0.71875
1631118335031,-0.609375,-0.328125,0.71875
1631118335062,-0.609375,-0.328125,0.71875
1631118335093,-0.609375,-0.328125,0.71875
1631118335125,-0.609375,-0.3125,0.71875
1631118335156,-0.609375,-0.3125,0.734375
1631118335187,-0.609375,-0.3125,0.71875
1631118335218,-0.609375,-0.3125,0.71875
1631118335250,-0.609375,-0.3125,0.71875
1631118335281,-0.609375,-0.3125,0.71875
1631118335312,-0.609375,-0.3125,0.71875
1631118335343,-0.609375,-0.3125,0.71875
1631118335375,-0.609375,-0.3125,0.71875
1631118335406,-0.609375,-0.328125,0.71875
1631118335437,-0.609375,-0.328125,0.71875
1631118335468,-0.609375,-0.328125,0.71875
1631118335500,-0.609375,-0.328125,0.71875
1631118335531,-0.59375,-0.328125,0.71875
1631118335562,-0.59375,-0.328125,0.71875
1631118335593,-0.59375,-0.328125,0.71875
1631118335625,-0.609375,-0.328125,0.71875
1631118335656,-0.609375,-0.3125,0.71875
1631118335687,-0.59375,-0.3125,0.71875
1631118335718,-0.59375,-0.328125,0.71875
1631118335750,-0.609375,-0.3125,0.71875
1631118335781,-0.609375,-0.328125,0.71875
1631118335812,-0.59375,-0.328125,0.734375
1631118335843,-0.59375,-0.328125,0.71875
1631118335875,-0.59375,-0.328125,0.71875
1631118335906,-0.59375,-0.328125,0.71875
1631118335937,-0.59375,-0.328125,0.71875
1631118335968,-0.59375,-0.328125,0.71875
1631118336000,-0.609375,-0.328125,0.71875
1631118336031,-0.609375,-0.3125,0.71875
1631118336062,-0.59375,-0.3125,0.71875
1631118336093,-0.609375,-0.3125,0.71875
1631118336125,-0.609375,-0.328125,0.71875
1631118336156,-0.59375,-0.328125,0.71875
1631118336187,-0.609375,-0.3125,0.71875
1631118336218,-0.609375,-0.3125,0.71875
1631118336250,-0.59375,-0.3125,0.734375
1631118336281,-0.59375,-0.328125,0.71875
1631118336312,-0.59375,-0.328125,0.71875
1631118336343,-0.578125,-0.3125,0.71875
1631118336375,-0.6875,-0.34375,0.671875
1631118336406,-0.546875,-0.296875,0.765625
1631118336437,-0.671875,-0.3125,0.640625
1631118336468,-0.484375,-0.359375,0.828125
1631118336500,-0.5,-0.34375,0.796875
1631118336531,-0.578125,-0.296875,0.734375
1631118336562,-0.609375,-0.296875,0.703125
1631118336593,-0.59375,-0.3125,0.734375
1631118336625,-0.578125,-0.328125,0.734375
1631118336656,-0.578125,-0.34375,0.71875
1631118336687,-0.59375,-0.328125,0.734375
1631118336718,-0.578125,-0.3125,0.75
1631118336750,-0.578125,-0.3125,0.75
1631118336781,-0.578125,-0.3125,0.734375
1631118336812,-0.59375,-0.3125,0.734375
1631118336843,-0.578125,-0.3125,0.734375
1631118336875,-0.578125,-0.3125,0.734375
1631118336906,-0.578125,-0.3125,0.734375
1631118336937,-0.578125,-0.3125,0.734375
1631118336968,-0.59375,-0.3125,0.734375
1631118337000,-0.578125,-0.3125,0.734375
1631118337031,-0.578125,-0.3125,0.734375
1631118337062,-0.578125,-0.3125,0.734375
1631118337093,-0.578125,-0.3125,0.734375
1631118337125,-0.578125,-0.3125,0.734375
1631118337156,-0.578125,-0.3125,0.75
1631118337187,-0.578125,-0.3125,0.734375
1631118337218,-0.578125,-0.3125,0.734375
1631118337250,-0.578125,-0.3125,0.734375
1631118337281,-0.578125,-0.3125,0.734375
1631118337312,-0.578125,-0.3125,0.734375
1631118337343,-0.578125,-0.3125,0.734375
1631118337375,-0.578125,-0.3125,0.734375
1631118337406,-0.578125,-0.3125,0.734375
1631118337437,-0.59375,-0.3125,0.734375
1631118337468,-0.578125,-0.3125,0.734375
1631118337500,-0.578125,-0.3125,0.734375
1631118337531,-0.578125,-0.3125,0.734375
1631118337562,-0.578125,-0.3125,0.734375
1631118337593,-0.578125,-0.328125,0.734375
1631118337625,-0.59375,-0.3125,0.734375
1631118337656,-0.578125,-0.3125,0.734375
1631118337687,-0.578125,-0.3125,0.734375
1631118337718,-0.578125,-0.3125,0.734375
1631118337750,-0.578125,-0.3125,0.734375
1631118337781,-0.578125,-0.3125,0.734375
1631118337812,-0.578125,-0.3125,0.734375
1631118337843,-0.578125,-0.3125,0.734375
1631118337875,-0.578125,-0.3125,0.734375
1631118337906,-0.578125,-0.328125,0.734375
1631118337937,-0.578125,-0.3125,0.734375
1631118337968,-0.578125,-0.3125,0.734375
1631118338000,-0.578125,-0.3125,0.734375
1631118338031,-0.578125,-0.3125,0.734375
1631118338062,-0.578125,-0.328125,0.734375
1631118338093,-0.578125,-0.328125,0.734375
1631118338125,-0.578125,-0.328125,0.734375
1631118338156,-0.578125,-0.328125,0.734375
1631118338187,-0.578125,-0.328125,0.734375
1631118338218,-0.578125,-0.328125,0.75
1631118338250,-0.578125,-0.328125,0.734375
1631118338281,-0.578125,-0.328125,0.75
1631118338312,-0.578125,-0.328125,0.734375
1631118338343,-0.578125,-0.328125,0.734375
1631118338375,-0.578125,-0.328125,0.734375
1631118338406,-0.578125,-0.328125,0.734375
1631118338437,-0.578125,-0.328125,0.734375
1631118338468,-0.578125,-0.328125,0.734375
1631118338500,-0.578125,-0.328125,0.75
1631118338531,-0.578125,-0.328125,0.734375
1631118338562,-0.578125,-0.328125,0.734375
1631118338593,-0.578125,-0.328125,0.75
1631118338625,-0.578125,-0.328125,0.75
1631118338656,-0.578125,-0.328125,0.734375
1631118338687,-0.5625,-0.328125,0.734375
1631118338718,-0.578125,-0.328125,0.734375
1631118338750,-0.578125,-0.328125,0.734375
1631118338781,-0.5625,-0.328125,0.734375
1631118338812,-0.578125,-0.328125,0.734375
1631118338843,-0.578125,-0.328125,0.734375
1631118338875,-0.578125,-0.328125,0.734375
1631118338906,-0.578125,-0.328125,0.734375
1631118338937,-0.578125,-0.328125,0.734375
1631118338968,-0.578125,-0.328125,0.734375
1631118339000,-0.578125,-0.328125,0.734375
1631118339031,-0.5625,-0.328125,0.734375
1631118339062,-0.5625,-0.328125,0.734375
1631118339093,-0.578125,-0.328125,0.734375
1631118339125,-0.578125,-0.328125,0.75
1631118339156,-0.578125,-0.328125,0.734375
1631118339187,-0.578125,-0.328125,0.734375
1631118339218,-0.578125,-0.328125,0.75
1631118339250,-0.578125,-0.328125,0.75
1631118339281,-0.578125,-0.328125,0.734375
1631118339312,-0.578125,-0.328125,0.734375
1631118339343,-0.578125,-0.328125,0.75
1631118339375,-0.578125,-0.328125,0.734375
1631118339406,-0.578125,-0.328125,0.75
1631118339437,-0.578125,-0.328125,0.75
1631118339468,-0.578125,-0.328125,0.75
1631118339500,-0.578125,-0.328125,0.734375
1631118339531,-0.578125,-0.328125,0.734375
1631118339562,-0.578125,-0.328125,0.734375
1631118339593,-0.578125,-0.328125,0.75
1631118339625,-0.578125,-0.328125,0.734375
1631118339656,-0.5625,-0.328125,0.75
1631118339687,-0.578125,-0.328125,0.734375
1631118339718,-0.578125,-0.328125,0.734375
1631118339750,-0.578125,-0.328125,0.734375
1631118339781,-0.578125,-0.328125,0.75
1631118339812,-0.578125,-0.328125,0.734375
1631118339843,-0.578125,-0.3125,0.734375
1631118339875,-0.578125,-0.328125,0.75
1631118339906,-0.578125,-0.328125,0.734375
1631118339937,-0.578125,-0.328125,0.734375
1631118339968,-0.578125,-0.328125,0.75
1631118340000,-0.578125,-0.3125,0.75
1631118340031,-0.578125,-0.328125,0.75
1631118340062,-0.578125,-0.328125,0.734375
1631118340093,-0.578125,-0.328125,0.75
1631118340125,-0.578125,-0.328125,0.734375
1631118340156,-0.578125,-0.328125,0.734375
1631118340187,-0.578125,-0.328125,0.734375
1631118340218,-0.578125,-0.328125,0.734375
1631118340250,-0.578125,-0.3125,0.734375
1631118340281,-0.578125,-0.328125,0.75
1631118340312,-0.578125,-0.328125,0.734375
1631118340343,-0.578125,-0.328125,0.734375
1631118340375,-0.578125,-0.3125,0.734375
1631118340406,-0.578125,-0.3125,0.734375
1631118340437,-0.578125,-0.3125,0.75
1631118340468,-0.578125,-0.328125,0.734375
1631118340500,-0.578125,-0.3125,0.734375
1631118340531,-0.578125,-0.3125,0.75
1631118340562,-0.578125,-0.3125,0.75
1631118340593,-0.578125,-0.3125,0.734375
1631118340625,-0.578125,-0.3125,0.75
1631118340656,-0.578125,-0.3125,0.734375
1631118340687,-0.578125,-0.3125,0.734375
1631118340718,-0.578125,-0.328125,0.734375
1631118340750,-0.578125,-0.328125,0.734375
1631118340781,-0.578125,-0.3125,0.734375
1631118340812,-0.578125,-0.3125,0.75
1631118340843,-0.578125,-0.3125,0.734375
1631118340875,-0.578125,-0.3125,0.75
1631118340906,-0.578125,-0.3125,0.734375
1631118340937,-0.578125,-0.3125,0.734375
1631118340968,-0.578125,-0.3125,0.75
1631118341000,-0.578125,-0.3125,0.75
1631118341031,-0.578125,-0.3125,0.75
1631118341062,-0.5625,-0.3125,0.734375
1631118341093,-0.578125,-0.3125,0.734375
1631118341125,-0.578125,-0.3125,0.734375
1631118341156,-0.578125,-0.3125,0.734375
1631118341187,-0.578125,-0.3125,0.734375
1631118341218,-0.578125,-0.3125,0.75
1631118341250,-0.578125,-0.3125,0.75
1631118341281,-0.578125,-0.3125,0.734375
1631118341312,-0.578125,-0.3125,0.734375
1631118341343,-0.578125,-0.3125,0.75
1631118341375,-0.578125,-0.3125,0.75
1631118341406,-0.578125,-0.3125,0.734375
1631118341437,-0.578125,-0.3125,0.734375
1631118341468,-0.578125,-0.3125,0.734375
1631118341500,-0.578125,-0.328125,0.734375
1631118341531,-0.578125,-0.328125,0.734375
1631118341562,-0.578125,-0.328125,0.75
1631118341593,-0.578125,-0.328125,0.734375
1631118341625,-0.578125,-0.328125,0.734375
1631118341656,-0.578125,-0.328125,0.75
1631118341687,-0.578125,-0.3125,0.75
1631118341718,-0.5625,-0.3125,0.75
1631118341750,-0.578125,-0.328125,0.734375
1631118341781,-0.578125,-0.328125,0.734375
1631118341812,-0.578125,-0.328125,0.734375
1631118341843,-0.578125,-0.328125,0.734375
1631118341875,-0.578125,-0.328125,0.75
1631118341906,-0.5625,-0.328125,0.734375
1631118341937,-0.578125,-0.328125,0.75
1631118341968,-0.578125,-0.328125,0.75
1631118342000,-0.578125,-0.328125,0.734375
1631118342031,-0.5625,-0.328125,0.75
1631118342062,-0.578125,-0.328125,0.75
1631118342093,-0.578125,-0.328125,0.75
1631118342125,-0.578125,-0.328125,0.75
1631118342156,-0.578125,-0.328125,0.75
1631118342187,-0.578125,-0.328125,0.75
1631118342218,-0.5625,-0.328125,0.734375
1631118342250,-0.578125,-0.328125,0.734375
1631118342281,-0.578125,-0.328125,0.734375
1631118342312,-0.5625,-0.328125,0.75
1631118342343,-0.5625,-0.328125,0.75
1631118342375,-0.578125,-0.328125,0.734375
1631118342406,-0.5625,-0.328125,0.734375
1631118342437,-0.5625,-0.328125,0.75
1631118342468,-0.578125,-0.3125,0.75
1631118342500,-0.5625,-0.328125,0.734375
1631118342531,-0.578125,-0.328125,0.734375
1631118342562,-0.5625,-0.328125,0.75
1631118342593,-0.5625,-0.328125,0.75
1631118342625,-0.578125,-0.328125,0.75
1631118342656,-0.578125,-0.328125,0.75
1631118342687,-0.578125,-0.328125,0.75
1631118342718,-0.578125,-0.328125,0.75
1631118342750,-0.578125,-0.328125,0.75
1631118342781,-0.578125,-0.328125,0.734375
1631118342812,-0.578125,-0.328125,0.75
1631118342843,-0.5625,-0.328125,0.75
1631118342875,-0.578125,-0.328125,0.734375
1631118342906,-0.578125,-0.328125,0.75
1631118342937,-0.578125,-0.328125,0.75
1631118342968,-0.578125,-0.328125,0.734375
1631118343000,-0.578125,-0.328125,0.75
1631118343031,-0.578125,-0.3125,0.734375
1631118343062,-0.578125,-0.328125,0.734375
1631118343093,-0.578125,-0.328125,0.75
1631118343125,-0.578125,-0.328125,0.734375
1631118343156,-0.5625,-0.328125,0.75
1631118343187,-0.578125,-0.328125,0.75
1631118343218,-0.578125,-0.3125,0.734375
1631118343250,-0.578125,-0.3125,0.75
1631118343281,-0.578125,-0.3125,0.75
1631118343312,-0.578125,-0.3125,0.75
1631118343343,-0.578125,-0.328125,0.75
1631118343375,-0.578125,-0.328125,0.75
1631118343406,-0.578125,-0.328125,0.75
1631118343437,-0.578125,-0.328125,0.734375
1631118343468,-0.578125,-0.3125,0.734375
1631118343500,-0.578125,-0.3125,0.734375
1631118343531,-0.578125,-0.328125,0.734375
1631118343562,-0.578125,-0.328125,0.734375
1631118343593,-0.578125,-0.328125,0.734375
1631118343625,-0.578125,-0.328125,0.734375
1631118343656,-0.578125,-0.3125,0.75
1631118343687,-0.578125,-0.3125,0.734375
1631118343718,-0.578125,-0.3125,0.75
1631118343750,-0.578125,-0.328125,0.734375
1631118343781,-0.578125,-0.3125,0.734375
1631118343812,-0.578125,-0.328125,0.75
1631118343843,-0.578125,-0.3125,0.75
1631118343875,-0.578125,-0.3125,0.734375
1631118343906,-0.578125,-0.3125,0.75
1631118343937,-0.578125,-0.3125,0.75
1631118343968,-0.578125,-0.328125,0.734375
1631118344000,-0.578125,-0.328125,0.734375
1631118344031,-0.578125,-0.328125,0.734375
1631118344062,-0.578125,-0.3125,0.734375
1631118344093,-0.578125,-0.328125,0.75
1631118344125,-0.5625,-0.3125,0.734375
1631118344156,-0.578125,-0.3125,0.734375
1631118344187,-0.578125,-0.3125,0.734375
1631118344218,-0.578125,-0.328125,0.75
1631118344250,-0.578125,-0.3125,0.75
1631118344281,-0.578125,-0.328125,0.734375
1631118344312,-0.578125,-0.3125,0.734375
1631118344343,-0.578125,-0.3125,0.734375
1631118344375,-0.578125,-0.328125,0.75
1631118344406,-0.578125,-0.3125,0.75
1631118344437,-0.578125,-0.328125,0.734375
1631118344468,-0.578125,-0.3125,0.75
1631118344500,-0.578125,-0.3125,0.734375
1631118344531,-0.578125,-0.3125,0.734375
1631118344562,-0.578125,-0.3125,0.75
1631118344593,-0.578125,-0.328125,0.734375
1631118344625,-0.578125,-0.3125,0.734375
1631118344656,-0.578125,-0.3125,0.75
1631118344687,-0.578125,-0.3125,0.75
1631118344718,-0.578125,-0.328125,0.734375
1631118344750,-0.578125,-0.3125,0.75
1631118344781,-0.578125,-0.328125,0.75
1631118344812,-0.578125,-0.3125,0.75
1631118344843,-0.578125,-0.328125,0.734375
1631118344875,-0.578125,-0.328125,0.734375
1631118344906,-0.578125,-0.328125,0.734375
1631118344937,-0.578125,-0.328125,0.75
1631118344968,-0.5625,-0.328125,0.734375
1631118345000,-0.578125,-0.328125,0.734375
1631118345031,-0.578125,-0.328125,0.734375
1631118345062,-0.5625,-0.328125,0.75
1631118345093,-0.578125,-0.328125,0.75
1631118345125,-0.578125,-0.328125,0.75
1631118345156,-0.5625,-0.328125,0.734375
1631118345187,-0.578125,-0.328125,0.734375
1631118345218,-0.578125,-0.328125,0.734375
1631118345250,-0.578125,-0.328125,0.734375
1631118345281,-0.578125,-0.328125,0.75
1631118345312,-0.578125,-0.328125,0.734375
1631118345343,-0.578125,-0.328125,0.75
1631118345375,-0.578125,-0.328125,0.734375
1631118345406,-0.578125,-0.328125,0.734375
1631118345437,-0.578125,-0.328125,0.734375
1631118345468,-0.578125,-0.328125,0.75
1631118345500,-0.578125,-0.328125,0.75
1631118345531,-0.578125,-0.328125,0.734375
1631118345562,-0.578125,-0.328125,0.734375
1631118345593,-0.578125,-0.328125,0.75
1631118345625,-0.578125,-0.328125,0.75
1631118345656,-0.578125,-0.328125,0.75
1631118345687,-0.578125,-0.328125,0.734375
1631118345718,-0.5625,-0.328125,0.75
1631118345750,-0.5625,-0.328125,0.734375
1631118345781,-0.578125,-0.328125,0.734375
1631118345812,-0.5625,-0.328125,0.75
1631118345843,-0.578125,-0.328125,0.75
1631118345875,-0.578125,-0.328125,0.734375
1631118345906,-0.578125,-0.328125,0.75
1631118345937,-0.578125,-0.328125,0.734375
1631118345968,-0.578125,-0.328125,0.75
1631118346000,-0.578125,-0.328125,0.734375
1631118346031,-0.578125,-0.328125,0.734375
1631118346062,-0.578125,-0.328125,0.734375
1631118346093,-0.578125,-0.328125,0.734375
1631118346125,-0.578125,-0.3125,0.75
1631118346156,-0.578125,-0.328125,0.734375
1631118346187,-0.578125,-0.328125,0.734375
1631118346218,-0.578125,-0.328125,0.75
1631118346250,-0.578125,-0.328125,0.75
1631118346281,-0.578125,-0.3125,0.75
1631118346312,-0.578125,-0.328125,0.75
1631118346343,-0.578125,-0.328125,0.734375
1631118346375,-0.578125,-0.328125,0.734375
1631118346406,-0.578125,-0.328125,0.75
1631118346437,-0.578125,-0.328125,0.75
1631118346468,-0.578125,-0.328125,0.734375
1631118346500,-0.578125,-0.328125,0.734375
1631118346531,-0.578125,-0.328125,0.734375
1631118346562,-0.578125,-0.328125,0.75
1631118346593,-0.578125,-0.328125,0.75
1631118346625,-0.578125,-0.328125,0.75
1631118346656,-0.5625,-0.3125,0.734375
1631118346687,-0.578125,-0.328125,0.734375
1631118346718,-0.5625,-0.328125,0.75
1631118346750,-0.578125,-0.328125,0.734375
1631118346781,-0.578125,-0.328125,0.734375
1631118346812,-0.578125,-0.3125,0.75
1631118346843,-0.578125,-0.328125,0.75
1631118346875,-0.578125,-0.328125,0.75
1631118346906,-0.578125,-0.3125,0.734375
1631118346937,-0.578125,-0.328125,0.734375
1631118346968,-0.578125,-0.328125,0.734375
1631118347000,-0.578125,-0.328125,0.734375
1631118347031,-0.578125,-0.3125,0.734375
1631118347062,-0.578125,-0.3125,0.734375
1631118347093,-0.578125,-0.328125,0.734375
1631118347125,-0.578125,-0.3125,0.75
1631118347156,-0.578125,-0.328125,0.75
1631118347187,-0.578125,-0.3125,0.734375
1631118347218,-0.578125,-0.3125,0.734375
1631118347250,-0.578125,-0.328125,0.75
1631118347281,-0.578125,-0.328125,0.75
1631118347312,-0.578125,-0.3125,0.75
1631118347343,-0.578125,-0.3125,0.734375
1631118347375,-0.578125,-0.3125,0.75
1631118347406,-0.578125,-0.328125,0.75
1631118347437,-0.578125,-0.3125,0.75
1631118347468,-0.578125,-0.3125,0.75
1631118347500,-0.578125,-0.3125,0.75
1631118347531,-0.578125,-0.328125,0.75
1631118347562,-0.5625,-0.328125,0.75
1631118347593,-0.578125,-0.328125,0.734375
1631118347625,-0.578125,-0.328125,0.734375
1631118347656,-0.578125,-0.328125,0.734375
1631118347687,-0.578125,-0.328125,0.734375
1631118347718,-0.578125,-0.328125,0.75
1631118347750,-0.578125,-0.328125,0.75
1631118347781,-0.578125,-0.3125,0.75
1631118347812,-0.578125,-0.3125,0.75
1631118347843,-0.578125,-0.3125,0.734375
1631118347875,-0.578125,-0.328125,0.734375
1631118347906,-0.578125,-0.328125,0.75
1631118347937,-0.578125,-0.3125,0.734375
1631118347968,-0.578125,-0.328125,0.734375
1631118348000,-0.578125,-0.328125,0.734375
1631118348031,-0.578125,-0.328125,0.734375
1631118348062,-0.578125,-0.328125,0.75
1631118348093,-0.578125,-0.328125,0.734375
1631118348125,-0.578125,-0.328125,0.75
1631118348156,-0.578125,-0.328125,0.734375
1631118348187,-0.578125,-0.328125,0.734375
1631118348218,-0.578125,-0.328125,0.75
1631118348250,-0.578125,-0.328125,0.734375
1631118348281,-0.578125,-0.328125,0.75
1631118348312,-0.578125,-0.328125,0.75
1631118348343,-0.578125,-0.328125,0.734375
1631118348375,-0.578125,-0.328125,0.734375
1631118348406,-0.578125,-0.328125,0.75
1631118348437,-0.5625,-0.328125,0.75
1631118348468,-0.578125,-0.328125,0.734375
1631118348500,-0.578125,-0.328125,0.75
1631118348531,-0.5625,-0.328125,0.75
1631118348562,-0.5625,-0.328125,0.734375
1631118348593,-0.578125,-0.328125,0.734375
1631118348625,-0.578125,-0.328125,0.75
1631118348656,-0.578125,-0.328125,0.75
1631118348687,-0.5625,-0.328125,0.75
1631118348718,-0.578125,-0.328125,0.734375
1631118348750,-0.578125,-0.328125,0.734375
1631118348781,-0.5625,-0.328125,0.734375
1631118348812,-0.5625,-0.328125,0.734375
1631118348843,-0.578125,-0.328125,0.75
1631118348875,-0.578125,-0.328125,0.734375
1631118348906,-0.578125,-0.328125,0.734375
1631118348937,-0.578125,-0.328125,0.75
1631118348968,-0.578125,-0.3125,0.734375
1631118349000,-0.5625,-0.328125,0.75
1631118349031,-0.5625,-0.3125,0.75
1631118349062,-0.5625,-0.328125,0.734375
1631118349093,-0.5625,-0.328125,0.734375
1631118349125,-0.5625,-0.328125,0.75
1631118349156,-0.578125,-0.328125,0.734375
1631118349187,-0.578125,-0.328125,0.734375
1631118349218,-0.5625,-0.328125,0.75
1631118349250,-0.578125,-0.328125,0.75
1631118349281,-0.578125,-0.3125,0.75
1631118349312,-0.5625,-0.328125,0.734375
1631118349343,-0.578125,-0.328125,0.734375
1631118349375,-0.578125,-0.328125,0.734375
1631118349406,-0.5625,-0.328125,0.75
1631118349437,-0.578125,-0.328125,0.75
1631118349468,-0.578125,-0.328125,0.75
1631118349500,-0.578125,-0.328125,0.75
1631118349531,-0.578125,-0.328125,0.75
1631118349562,-0.578125,-0.328125,0.734375
1631118349593,-0.578125,-0.3125,0.734375
1631118349625,-0.578125,-0.3125,0.75
1631118349656,-0.578125,-0.328125,0.734375
1631118349687,-0.578125,-0.3125,0.75
1631118349718,-0.578125,-0.328125,0.75
1631118349750,-0.578125,-0.3125,0.75
1631118349781,-0.578125,-0.3125,0.734375
1631118349812,-0.578125,-0.328125,0.734375
1631118349843,-0.578125,-0.328125,0.734375
1631118349875,-0.578125,-0.3125,0.75
1631118349906,-0.578125,-0.3125,0.734375
1631118349937,-0.578125,-0.3125,0.734375
1631118349968,-0.578125,-0.3125,0.75
1631118350000,-0.578125,-0.328125,0.734375
1631118350031,-0.578125,-0.328125,0.75
1631118350062,-0.578125,-0.3125,0.734375
1631118350093,-0.578125,-0.328125,0.75
1631118350125,-0.578125,-0.3125,0.734375
1631118350156,-0.578125,-0.3125,0.75
1631118350187,-0.578125,-0.3125,0.75
1631118350218,-0.578125,-0.3125,0.734375
1631118350250,-0.578125,-0.328125,0.734375
1631118350281,-0.5625,-0.3125,0.734375
1631118350312,-0.578125,-0.3125,0.75
1631118350343,-0.578125,-0.3125,0.734375
1631118350375,-0.578125,-0.3125,0.75
1631118350406,-0.578125,-0.3125,0.734375
1631118350437,-0.578125,-0.328125,0.75
1631118350468,-0.578125,-0.3125,0.75
1631118350500,-0.578125,-0.3125,0.734375
1631118350531,-0.578125,-0.328125,0.75
1631118350562,-0.578125,-0.3125,0.75
1631118350593,-0.578125,-0.3125,0.75
1631118350625,-0.578125,-0.328125,0.75
1631118350656,-0.578125,-0.3125,0.734375
1631118350687,-0.578125,-0.3125,0.75
1631118350718,-0.578125,-0.3125,0.75
1631118350750,-0.578125,-0.3125,0.75
1631118350781,-0.578125,-0.3125,0.75
1631118350812,-0.5625,-0.3125,0.75
1631118350843,-0.578125,-0.3125,0.75
1631118350875,-0.578125,-0.3125,0.75
1631118350906,-0.578125,-0.3125,0.75
1631118350937,-0.578125,-0.328125,0.75
1631118350968,-0.5625,-0.3125,0.75
1631118351000,-0.578125,-0.328125,0.75
1631118351031,-0.5625,-0.3125,0.75
1631118351062,-0.5625,-0.3125,0.75
1631118351093,-0.578125,-0.328125,0.75
1631118351125,-0.578125,-0.328125,0.75
1631118351156,-0.5625,-0.328125,0.734375
1631118351187,-0.5625,-0.328125,0.75
1631118351218,-0.578125,-0.328125,0.75
1631118351250,-0.5625,-0.328125,0.75
1631118351281,-0.5625,-0.328125,0.75
1631118351312,-0.5625,-0.328125,0.75
1631118351343,-0.5625,-0.328125,0.75
1631118351375,-0.5625,-0.328125,0.75
1631118351406,-0.5625,-0.328125,0.734375
1631118351437,-0.5625,-0.328125,0.75
1631118351468,-0.5625,-0.328125,0.75
1631118351500,-0.5625,-0.328125,0.75
1631118351531,-0.5625,-0.328125,0.75
1631118351562,-0.5625,-0.328125,0.75
1631118351593,-0.5625,-0.328125,0.75
1631118351625,-0.5625,-0.328125,0.75
1631118351656,-0.578125,-0.328125,0.75
1631118351687,-0.5625,-0.328125,0.75
1631118351718,-0.5625,-0.328125,0.75
1631118351750,-0.5625,-0.328125,0.75
1631118351781,-0.5625,-0.328125,0.734375
1631118351812,-0.5625,-0.328125,0.75
1631118351843,-0.5625,-0.328125,0.75
1631118351875,-0.5625,-0.328125,0.75
1631118351906,-0.5625,-0.328125,0.75
1631118351937,-0.5625,-0.328125,0.734375
1631118351968,-0.5625,-0.328125,0.75
1631118352000,-0.5625,-0.328125,0.75
1631118352031,-0.5625,-0.328125,0.75
1631118352062,-0.5625,-0.328125,0.75
1631118352093,-0.5625,-0.328125,0.75
1631118352125,-0.5625,-0.328125,0.75
1631118352156,-0.5625,-0.328125,0.75
1631118352187,-0.5625,-0.328125,0.75
1631118352218,-0.5625,-0.328125,0.75
1631118352250,-0.5625,-0.328125,0.75
1631118352281,-0.5625,-0.328125,0.75
1631118352312,-0.5625,-0.328125,0.75
1631118352343,-0.5625,-0.328125,0.75
1631118352375,-0.5625,-0.328125,0.75
1631118352406,-0.5625,-0.328125,0.75
1631118352437,-0.5625,-0.328125,0.75
1631118352468,-0.5625,-0.328125,0.75
1631118352500,-0.5625,-0.328125,0.734375
1631118352531,-0.5625,-0.328125,0.75
1631118352562,-0.5625,-0.328125,0.75
1631118352593,-0.5625,-0.328125,0.75
1631118352625,-0.578125,-0.328125,0.734375
1631118352656,-0.578125,-0.328125,0.734375
1631118352687,-0.5625,-0.328125,0.75
1631118352718,-0.5625,-0.328125,0.734375
1631118352750,-0.5625,-0.328125,0.734375
1631118352781,-0.5625,-0.328125,0.75
1631118352812,-0.5625,-0.328125,0.75
1631118352843,-0.578125,-0.328125,0.75
1631118352875,-0.5625,-0.328125,0.75
1631118352906,-0.5625,-0.328125,0.75
1631118352937,-0.5625,-0.328125,0.75
1631118352968,-0.5625,-0.3125,0.75
1631118353000,-0.5625,-0.328125,0.75
1631118353031,-0.578125,-0.328125,0.75
1631118353062,-0.5625,-0.328125,0.75
1631118353093,-0.5625,-0.328125,0.75
1631118353125,-0.5625,-0.328125,0.75
1631118353156,-0.5625,-0.328125,0.75
1631118353187,-0.5625,-0.328125,0.75
1631118353218,-0.5625,-0.328125,0.75
1631118353250,-0.5625,-0.328125,0.75
1631118353281,-0.5625,-0.3125,0.75
1631118353312,-0.5625,-0.328125,0.75
1631118353343,-0.5625,-0.328125,0.75
1631118353375,-0.5625,-0.328125,0.75
1631118353406,-0.5625,-0.328125,0.75
1631118353437,-0.5625,-0.328125,0.75
1631118353468,-0.5625,-0.3125,0.75
1631118353500,-0.578125,-0.328125,0.75
1631118353531,-0.578125,-0.3125,0.75
1631118353562,-0.5625,-0.3125,0.75
1631118353593,-0.5625,-0.3125,0.734375
1631118353625,-0.578125,-0.328125,0.75
1631118353656,-0.5625,-0.328125,0.75
1631118353687,-0.578125,-0.328125,0.75
1631118353718,-0.578125,-0.3125,0.75
1631118353750,-0.5625,-0.3125,0.734375
1631118353781,-0.5625,-0.3125,0.75
1631118353812,-0.578125,-0.3125,0.75
1631118353843,-0.5625,-0.3125,0.75
1631118353875,-0.578125,-0.328125,0.75
1631118353906,-0.578125,-0.3125,0.75
1631118353937,-0.578125,-0.3125,0.75
1631118353968,-0.578125,-0.3125,0.75
1631118354000,-0.578125,-0.3125,0.75
1631118354031,-0.5625,-0.3125,0.75
1631118354062,-0.5625,-0.3125,0.75
1631118354093,-0.578125,-0.3125,0.734375
1631118354125,-0.578125,-0.328125,0.734375
1631118354156,-0.5625,-0.3125,0.75
1631118354187,-0.578125,-0.3125,0.75
1631118354218,-0.5625,-0.3125,0.75
1631118354250,-0.5625,-0.3125,0.75
1631118354281,-0.5625,-0.3125,0.75
1631118354312,-0.5625,-0.3125,0.75
1631118354343,-0.578125,-0.3125,0.75
1631118354375,-0.578125,-0.3125,0.75
1631118354406,-0.5625,-0.3125,0.734375
1631118354437,-0.578125,-0.328125,0.75
1631118354468,-0.578125,-0.328125,0.75
1631118354500,-0.5625,-0.3125,0.75
1631118354531,-0.578125,-0.3125,0.75
1631118354562,-0.578125,-0.3125,0.75
1631118354593,-0.5625,-0.3125,0.75
1631118354625,-0.578125,-0.3125,0.75
1631118354656,-0.578125,-0.3125,0.75
1631118354687,-0.578125,-0.3125,0.75
1631118354718,-0.5625,-0.3125,0.75
1631118354750,-0.578125,-0.328125,0.75
1631118354781,-0.5625,-0.3125,0.75
1631118354812,-0.5625,-0.3125,0.75
1631118354843,-0.5625,-0.328125,0.75
1631118354875,-0.5625,-0.3125,0.75
1631118354906,-0.5625,-0.328125,0.75
1631118354937,-0.5625,-0.328125,0.75
1631118354968,-0.5625,-0.328125,0.75
1631118355000,-0.5625,-0.328125,0.75
1631118355031,-0.5625,-0.328125,0.75
1631118355062,-0.5625,-0.328125,0.75
1631118355093,-0.5625,-0.328125,0.75
1631118355125,-0.5625,-0.328125,0.75
1631118355156,-0.5625,-0.328125,0.75
1631118355187,-0.5625,-0.328125,0.75
1631118355218,-0.578125,-0.328125,0.75
1631118355250,-0.5625,-0.328125,0.75
1631118355281,-0.5625,-0.328125,0.75
1631118355312,-0.5625,-0.328125,0.75
1631118355343,-0.5625,-0.328125,0.75
1631118355375,-0.5625,-0.328125,0.75
1631118355406,-0.5625,-0.328125,0.75
1631118355437,-0.5625,-0.328125,0.75
1631118355468,-0.5625,-0.328125,0.75
1631118355500,-0.5625,-0.328125,0.75
1631118355531,-0.5625,-0.328125,0.75
1631118355562,-0.5625,-0.328125,0.75
1631118355593,-0.5625,-0.328125,0.734375
1631118355625,-0.5625,-0.328125,0.75
1631118355656,-0.5625,-0.328125,0.75
1631118355687,-0.5625,-0.328125,0.734375
1631118355718,-0.5625,-0.328125,0.75
1631118355750,-0.5625,-0.328125,0.75
1631118355781,-0.5625,-0.328125,0.75
1631118355812,-0.5625,-0.328125,0.75
1631118355843,-0.5625,-0.328125,0.75
1631118355875,-0.5625,-0.328125,0.75
1631118355906,-0.5625,-0.328125,0.75
1631118355937,-0.5625,-0.328125,0.75
1631118355968,-0.5625,-0.328125,0.75
1631118356000,-0.5625,-0.328125,0.75
1631118356031,-0.5625,-0.328125,0.75
1631118356062,-0.5625,-0.328125,0.75
1631118356093,-0.5625,-0.328125,0.75
1631118356125,-0.5625,-0.328125,0.75
1631118356156,-0.5625,-0.328125,0.75
1631118356187,-0.5625,-0.328125,0.75
1631118356218,-0.5625,-0.328125,0.75
1631118356250,-0.5625,-0.328125,0.75
1631118356281,-0.5625,-0.328125,0.75
1631118356312,-0.5625,-0.328125,0.75
1631118356343,-0.5625,-0.328125,0.75
1631118356375,-0.5625,-0.328125,0.75
1631118356406,-0.5625,-0.328125,0.75
1631118356437,-0.5625,-0.328125,0.75
1631118356468,-0.5625,-0.328125,0.75
1631118356500,-0.5625,-0.328125,0.75
1631118356531,-0.5625,-0.328125,0.75
1631118356562,-0.5625,-0.328125,0.75
1631118356593,-0.5625,-0.328125,0.75
1631118356625,-0.5625,-0.328125,0.734375
1631118356656,-0.5625,-0.328125,0.75
1631118356687,-0.5625,-0.328125,0.75
1631118356718,-0.5625,-0.328125,0.75
1631118356750,-0.5625,-0.328125,0.75
1631118356781,-0.5625,-0.328125,0.75
1631118356812,-0.5625,-0.328125,0.75
1631118356843,-0.5625,-0.328125,0.75
1631118356875,-0.5625,-0.328125,0.75
1631118356906,-0.578125,-0.328125,0.75
1631118356937,-0.5625,-0.328125,0.75
1631118356968,-0.5625,-0.328125,0.75
1631118357000,-0.5625,-0.328125,0.75
1631118357031,-0.5625,-0.328125,0.75
1631118357062,-0.5625,-0.328125,0.75
1631118357093,-0.5625,-0.328125,0.75
1631118357125,-0.5625,-0.328125,0.75
1631118357156,-0.5625,-0.3125,0.75
1631118357187,-0.5625,-0.328125,0.75
1631118357218,-0.5625,-0.3125,0.75
1631118357250,-0.5625,-0.328125,0.75
1631118357281,-0.5625,-0.3125,0.75
1631118357312,-0.5625,-0.328125,0.75
1631118357343,-0.5625,-0.328125,0.75
1631118357375,-0.5625,-0.3125,0.75
1631118357406,-0.5625,-0.3125,0.75
1631118357437,-0.5625,-0.328125,0.75
1631118357468,-0.5625,-0.3125,0.75
1631118357500,-0.5625,-0.328125,0.75
1631118357531,-0.5625,-0.328125,0.75
1631118357562,-0.5625,-0.328125,0.75
1631118357593,-0.5625,-0.328125,0.75
1631118357625,-0.5625,-0.328125,0.75
1631118357656,-0.5625,-0.3125,0.75
1631118357687,-0.578125,-0.3125,0.734375
1631118357718,-0.5625,-0.3125,0.75
1631118357750,-0.5625,-0.328125,0.75
1631118357781,-0.5625,-0.328125,0.75
1631118357812,-0.578125,-0.3125,0.75
1631118357843,-0.5625,-0.328125,0.734375
1631118357875,-0.5625,-0.3125,0.75
1631118357906,-0.5625,-0.328125,0.75
1631118357937,-0.5625,-0.3125,0.75
1631118357968,-0.5625,-0.328125,0.75
1631118358000,-0.578125,-0.3125,0.75
1631118358031,-0.5625,-0.3125,0.75
1631118358062,-0.5625,-0.3125,0.75
1631118358093,-0.578125,-0.328125,0.75
1631118358125,-0.5625,-0.3125,0.75
1631118358156,-0.5625,-0.3125,0.75
1631118358187,-0.5625,-0.3125,0.75
1631118358218,-0.5625,-0.3125,0.75
1631118358250,-0.5625,-0.3125,0.75
1631118358281,-0.5625,-0.328125,0.75
1631118358312,-0.5625,-0.3125,0.75
1631118358343,-0.578125,-0.3125,0.75
1631118358375,-0.5625,-0.328125,0.75
1631118358406,-0.5625,-0.328125,0.75
1631118358437,-0.5625,-0.3125,0.75
1631118358468,-0.5625,-0.3125,0.75
1631118358500,-0.5625,-0.3125,0.75
1631118358531,-0.5625,-0.328125,0.75
1631118358562,-0.5625,-0.3125,0.75
1631118358593,-0.578125,-0.3125,0.75
1631118358625,-0.5625,-0.3125,0.75
1631118358656,-0.5625,-0.3125,0.75
1631118358687,-0.578125,-0.328125,0.75
1631118358718,-0.578125,-0.328125,0.75
1631118358750,-0.5625,-0.328125,0.75
1631118358781,-0.5625,-0.328125,0.75
1631118358812,-0.578125,-0.328125,0.75
1631118358843,-0.5625,-0.3125,0.75
1631118358875,-0.578125,-0.328125,0.75
1631118358906,-0.5625,-0.328125,0.75
1631118358937,-0.5625,-0.328125,0.75
1631118358968,-0.578125,-0.3125,0.75
1631118359000,-0.5625,-0.328125,0.75
1631118359031,-0.5625,-0.328125,0.75
1631118359062,-0.5625,-0.328125,0.75
1631118359093,-0.5625,-0.328125,0.75
1631118359125,-0.5625,-0.328125,0.75
1631118359156,-0.5625,-0.328125,0.75
1631118359187,-0.5625,-0.328125,0.75
1631118359218,-0.5625,-0.328125,0.75
1631118359250,-0.5625,-0.328125,0.75
1631118359281,-0.5625,-0.328125,0.75
1631118359312,-0.5625,-0.328125,0.75
1631118359343,-0.5625,-0.328125,0.75
1631118359375,-0.5625,-0.328125,0.75
1631118359406,-0.5625,-0.328125,0.75
1631118359437,-0.5625,-0.328125,0.75
1631118359468,-0.5625,-0.328125,0.75
1631118359500,-0.5625,-0.328125,0.75
1631118359531,-0.5625,-0.328125,0.734375
1631118359562,-0.5625,-0.328125,0.75
1631118359593,-0.5625,-0.328125,0.75
1631118359625,-0.5625,-0.328125,0.75
1631118359656,-0.546875,-0.328125,0.75
1631118359687,-0.5625,-0.328125,0.75
1631118359718,-0.5625,-0.328125,0.75
1631118359750,-0.5625,-0.328125,0.75
1631118359781,-0.5625,-0.328125,0.75
1631118359812,-0.5625,-0.328125,0.734375
1631118359843,-0.5625,-0.328125,0.75
1631118359875,-0.5625,-0.328125,0.75
1631118359906,-0.5625,-0.328125,0.75
1631118359937,-0.5625,-0.328125,0.75
1631118359968,-0.5625,-0.328125,0.75
1631118360000,-0.5625,-0.328125,0.75
1631118360031,-0.5625,-0.328125,0.75
1631118360062,-0.5625,-0.328125,0.75
1631118360093,-0.5625,-0.328125,0.75
1631118360125,-0.5625,-0.328125,0.75
1631118360156,-0.5625,-0.328125,0.75
1631118360187,-0.578125,-0.328125,0.734375
1631118360218,-0.5625,-0.328125,0.75
1631118360250,-0.5625,-0.328125,0.75
1631118360281,-0.5625,-0.328125,0.75
1631118360312,-0.5625,-0.328125,0.75
1631118360343,-0.5625,-0.328125,0.75
1631118360375,-0.5625,-0.328125,0.75
1631118360406,-0.5625,-0.328125,0.75
1631118360437,-0.5625,-0.328125,0.75
1631118360468,-0.5625,-0.328125,0.75
1631118360500,-0.5625,-0.328125,0.75
1631118360531,-0.5625,-0.328125,0.75
1631118360562,-0.5625,-0.328125,0.75
1631118360593,-0.5625,-0.328125,0.75
1631118360625,-0.5625,-0.328125,0.75
1631118360656,-0.578125,-0.328125,0.75
1631118360687,-0.5625,-0.3125,0.75
1631118360718,-0.5625,-0.328125,0.75
1631118360750,-0.5625,-0.328125,0.75
1631118360781,-0.5625,-0.328125,0.75
1631118360812,-0.546875,-0.328125,0.765625
1631118360843,-0.578125,-0.328125,0.734375
1631118360875,-0.578125,-0.328125,0.75
1631118360906,-0.5625,-0.328125,0.75
1631118360937,-0.5625,-0.328125,0.75
1631118360968,-0.5625,-0.328125,0.75
1631118361000,-0.5625,-0.328125,0.75
1631118361031,-0.5625,-0.328125,0.75
1631118361062,-0.5625,-0.328125,0.75
1631118361093,-0.5625,-0.328125,0.75
1631118361125,-0.5625,-0.328125,0.75
1631118361156,-0.5625,-0.328125,0.75
1631118361187,-0.5625,-0.328125,0.75
1631118361218,-0.5625,-0.328125,0.75
1631118361250,-0.5625,-0.328125,0.75
1631118361281,-0.5625,-0.328125,0.75
1631118361312,-0.5625,-0.328125,0.75
1631118361343,-0.5625,-0.3125,0.75
1631118361375,-0.5625,-0.328125,0.75
1631118361406,-0.5625,-0.328125,0.75
1631118361437,-0.5625,-0.328125,0.75
1631118361468,-0.5625,-0.328125,0.75
1631118361500,-0.5625,-0.328125,0.734375
1631118361531,-0.5625,-0.328125,0.75
1631118361562,-0.5625,-0.328125,0.75
1631118361593,-0.5625,-0.328125,0.75
1631118361625,-0.578125,-0.3125,0.75
1631118361656,-0.5625,-0.3125,0.75
1631118361687,-0.5625,-0.328125,0.75
1631118361718,-0.5625,-0.328125,0.75
1631118361750,-0.5625,-0.3125,0.75
1631118361781,-0.578125,-0.328125,0.75
1631118361812,-0.578125,-0.3125,0.75
1631118361843,-0.5625,-0.3125,0.75
1631118361875,-0.5625,-0.3125,0.75
1631118361906,-0.578125,-0.328125,0.75
1631118361937,-0.5625,-0.3125,0.75
1631118361968,-0.5625,-0.3125,0.75
1631118362000,-0.5625,-0.328125,0.75
1631118362031,-0.5625,-0.3125,0.75
1631118362062,-0.5625,-0.3125,0.75
1631118362093,-0.5625,-0.3125,0.75
1631118362125,-0.5625,-0.328125,0.75
1631118362156,-0.5625,-0.3125,0.75
1631118362187,-0.5625,-0.3125,0.75
1631118362218,-0.578125,-0.328125,0.75
1631118362250,-0.578125,-0.3125,0.75
1631118362281,-0.5625,-0.3125,0.75
1631118362312,-0.5625,-0.3125,0.734375
1631118362343,-0.5625,-0.328125,0.75
1631118362375,-0.5625,-0.328125,0.75
1631118362406,-0.5625,-0.328125,0.75
1631118362437,-0.5625,-0.328125,0.75
1631118362468,-0.5625,-0.328125,0.75
1631118362500,-0.5625,-0.3125,0.75
1631118362531,-0.5625,-0.3125,0.75
1631118362562,-0.5625,-0.328125,0.75
1631118362593,-0.5625,-0.328125,0.75
1631118362625,-0.5625,-0.328125,0.75
1631118362656,-0.5625,-0.328125,0.75
1631118362687,-0.5625,-0.328125,0.75
1631118362718,-0.5625,-0.328125,0.75
1631118362750,-0.5625,-0.328125,0.75
1631118362781,-0.5625,-0.328125,0.75
1631118362812,-0.5625,-0.328125,0.75
1631118362843,-0.5625,-0.328125,0.75
1631118362875,-0.5625,-0.328125,0.75
1631118362906,-0.546875,-0.328125,0.75
1631118362937,-0.546875,-0.328125,0.75
1631118362968,-0.546875,-0.328125,0.75
1631118363000,-0.578125,-0.328125,0.75
1631118363031,-0.546875,-0.328125,0.75
1631118363062,-0.5625,-0.328125,0.75
1631118363093,-0.578125,-0.328125,0.734375
1631118363125,-0.5625,-0.328125,0.75
1631118363156,-0.5625,-0.328125,0.75
1631118363187,-0.5625,-0.328125,0.734375
1631118363218,-0.5625,-0.328125,0.75
1631118363250,-0.5625,-0.328125,0.75
1631118363281,-0.5625,-0.328125,0.75
1631118363312,-0.5625,-0.328125,0.75
1631118363343,-0.5625,-0.328125,0.75
1631118363375,-0.5625,-0.328125,0.75
1631118363406,-0.5625,-0.328125,0.75
1631118363437,-0.5625,-0.328125,0.75
1631118363468,-0.5625,-0.328125,0.75
1631118363500,-0.5625,-0.328125,0.75
1631118363531,-0.5625,-0.328125,0.75
1631118363562,-0.5625,-0.328125,0.75
1631118363593,-0.5625,-0.328125,0.75
1631118363625,-0.5625,-0.328125,0.75
1631118363656,-0.546875,-0.328125,0.75
1631118363687,-0.5625,-0.328125,0.75
1631118363718,-0.5625,-0.328125,0.75
1631118363750,-0.5625,-0.328125,0.75
1631118363781,-0.5625,-0.328125,0.75
1631118363812,-0.5625,-0.328125,0.75
1631118363843,-0.5625,-0.328125,0.75
1631118363875,-0.5625,-0.328125,0.75
1631118363906,-0.5625,-0.328125,0.75
1631118363937,-0.5625,-0.328125,0.75
1631118363968,-0.5625,-0.328125,0.75
1631118364000,-0.5625,-0.328125,0.75
1631118364031,-0.546875,-0.328125,0.75
1631118364062,-0.5625,-0.328125,0.75
1631118364093,-0.5625,-0.328125,0.734375
1631118364125,-0.5625,-0.328125,0.75
1631118364156,-0.5625,-0.328125,0.75
1631118364187,-0.5625,-0.328125,0.75
1631118364218,-0.5625,-0.328125,0.75
1631118364250,-0.5625,-0.328125,0.75
1631118364281,-0.5625,-0.328125,0.75
1631118364312,-0.578125,-0.328125,0.734375
1631118364343,-0.5625,-0.328125,0.75
1631118364375,-0.5625,-0.328125,0.75
1631118364406,-0.5625,-0.328125,0.75
1631118364437,-0.5625,-0.328125,0.765625
1631118364468,-0.5625,-0.328125,0.75
1631118364500,-0.5625,-0.328125,0.75
1631118364531,-0.5625,-0.328125,0.75
1631118364562,-0.5625,-0.328125,0.75
1631118364593,-0.546875,-0.328125,0.75
1631118364625,-0.5625,-0.328125,0.75
1631118364656,-0.5625,-0.3125,0.734375
1631118364687,-0.5625,-0.328125,0.75
1631118364718,-0.5625,-0.328125,0.75
1631118364750,-0.5625,-0.328125,0.75
1631118364781,-0.5625,-0.328125,0.75
