timestamp,ax,ay,az
1629795340000,-1.0,0.171875,0.015625
1629795340031,-0.984375,0.15625,0.015625
1629795340062,-0.984375,0.15625,0.015625
1629795340093,-0.984375,0.171875,0.015625
1629795340125,-0.984375,0.15625,0.015625
1629795340156,-0.984375,0.15625,0.03125
1629795340187,-0.984375,0.171875,0.03125
1629795340218,-0.984375,0.171875,0.015625
1629795340250,-0.984375,0.15625,0.015625
1629795340281,-0.984375,0.15625,0.03125
1629795340312,-0.984375,0.171875,0.015625
1629795340343,-0.984375,0.171875,0.015625
1629795340375,-0.984375,0.171875,0.015625
1629795340406,-0.984375,0.171875,0.015625
1629795340437,-0.984375,0.171875,0.015625
1629795340468,-0.984375,0.171875,0.015625
1629795340500,-0.984375,0.171875,0.015625
1629795340531,-0.984375,0.171875,0.015625
1629795340562,-0.984375,0.171875,0.015625
1629795340593,-0.984375,0.171875,0.015625
1629795340625,-1.0,0.171875,0.015625
1629795340656,-0.984375,0.171875,0.015625
1629795340687,-1.0,0.171875,0.015625
1629795340718,-0.96875,0.15625,0.0
1629795340750,-0.984375,0.15625,0.0
1629795340781,-1.0,0.15625,-0.015625
1629795340812,-1.0,0.15625,-0.015625
1629795340843,-0.984375,0.15625,0.0
1629795340875,-0.984375,0.15625,-0.015625
1629795340906,-0.984375,0.15625,-0.015625
1629795340937,-0.984375,0.15625,-0.015625
1629795340968,-1.0,0.15625,-0.015625
1629795341000,-0.984375,0.171875,-0.015625
1629795341031,-0.984375,0.171875,0.0
1629795341062,-0.984375,0.171875,-0.015625
1629795341093,-0.984375,0.171875,0.0
1629795341125,-0.984375,0.171875,-0.015625
1629795341156,-0.984375,0.171875,0.0
1629795341187,-0.984375,0.171875,-0.015625
1629795341218,-0.984375,0.171875,-0.015625
1629795341250,-0.984375,0.171875,-0.015625
1629795341281,-0.984375,0.171875,-0.015625
1629795341312,-0.984375,0.171875,-0.015625
1629795341343,-0.984375,0.171875,-0.015625
1629795341375,-0.984375,0.171875,0.0
1629795341406,-0.984375,0.171875,-0.015625
1629795341437,-0.984375,0.171875,-0.015625
1629795341468,-0.984375,0.171875,-0.015625
1629795341500,-0.984375,0.171875,0.0
1629795341531,-0.984375,0.171875,-0.015625
1629795341562,-0.984375,0.171875,0.0
1629795341593,-0.984375,0.171875,-0.015625
1629795341625,-0.984375,0.171875,-0.015625
1629795341656,-1.0,0.171875,-0.015625
1629795341687,-0.984375,0.171875,-0.015625
1629795341718,-0.984375,0.171875,-0.015625
1629795341750,-1.0,0.171875,-0.015625
1629795341781,-0.984375,0.171875,0.0
1629795341812,-0.984375,0.15625,-0.015625
1629795341843,-0.984375,0.15625,0.0
1629795341875,-0.984375,0.15625,-0.015625
1629795341906,-0.984375,0.15625,-0.03125
1629795341937,-0.984375,0.140625,-0.03125
1629795341968,-1.0,0.15625,-0.03125
1629795342000,-0.984375,0.15625,-0.03125
1629795342031,-0.984375,0.15625,-0.03125
1629795342062,-1.03125,0.140625,-0.0625
1629795342093,-1.015625,0.15625,-0.046875
1629795342125,-0.96875,0.171875,0.0
1629795342156,-0.984375,0.171875,0.0
1629795342187,-0.984375,0.15625,0.0
1629795342218,-0.984375,0.15625,0.0
1629795342250,-0.984375,0.171875,0.0
1629795342281,-0.984375,0.15625,0.0
1629795342312,-1.0,0.15625,-0.015625
1629795342343,-0.984375,0.171875,-0.015625
1629795342375,-1.015625,0.15625,-0.03125
1629795342406,-0.984375,0.171875,0.0
1629795342437,-0.96875,0.171875,0.015625
1629795342468,-0.984375,0.171875,0.015625
1629795342500,-0.984375,0.171875,0.0
1629795342531,-0.984375,0.171875,0.015625
1629795342562,-0.984375,0.171875,0.015625
1629795342593,-0.984375,0.171875,0.015625
1629795342625,-0.984375,0.171875,0.0
1629795342656,-1.0,0.171875,0.0
1629795342687,-0.984375,0.171875,0.015625
1629795342718,-0.984375,0.171875,0.015625
1629795342750,-0.984375,0.171875,0.015625
1629795342781,-0.984375,0.171875,0.015625
1629795342812,-0.984375,0.171875,0.015625
1629795342843,-0.984375,0.171875,0.015625
1629795342875,-0.984375,0.15625,0.015625
1629795342906,-0.984375,0.171875,0.015625
1629795342937,-1.0,0.171875,0.0
1629795342968,-0.984375,0.15625,0.015625
1629795343000,-0.984375,0.15625,0.015625
1629795343031,-1.0,0.171875,0.0
1629795343062,-0.984375,0.15625,0.0
1629795343093,-0.96875,0.15625,0.015625
1629795343125,-0.984375,0.15625,0.015625
1629795343156,-0.984375,0.15625,0.015625
1629795343187,-0.984375,0.15625,0.0
1629795343218,-0.984375,0.15625,0.0
1629795343250,-0.984375,0.15625,0.0
1629795343281,-1.0,0.15625,0.0
1629795343312,-1.0,0.15625,0.0
1629795343343,-0.984375,0.15625,0.0
1629795343375,-0.984375,0.171875,0.0
1629795343406,-0.984375,0.15625,0.0
1629795343437,-0.984375,0.15625,0.0
1629795343468,-0.984375,0.15625,0.0
1629795343500,-0.984375,0.171875,0.0
1629795343531,-0.984375,0.15625,0.0
1629795343562,-0.984375,0.171875,0.0
1629795343593,-1.0,0.15625,-0.015625
1629795343625,-0.984375,0.15625,0.0
1629795343656,-0.984375,0.15625,0.0
1629795343687,-0.984375,0.15625,0.0
1629795343718,-1.015625,0.15625,-0.015625
1629795343750,-0.984375,0.15625,-0.015625
1629795343781,-0.984375,0.15625,0.0
1629795343812,-0.984375,0.171875,0.0
1629795343843,-0.984375,0.15625,-0.015625
1629795343875,-0.984375,0.15625,0.0
1629795343906,-0.984375,0.15625,0.0
1629795343937,-0.984375,0.15625,0.0
1629795343968,-1.0,0.15625,-0.015625
1629795344000,-0.984375,0.15625,0.0
1629795344031,-0.984375,0.15625,0.0
1629795344062,-0.984375,0.15625,0.0
1629795344093,-0.984375,0.15625,0.0
1629795344125,-0.984375,0.15625,0.0
1629795344156,-0.984375,0.15625,0.0
1629795344187,-0.984375,0.15625,-0.015625
1629795344218,-0.984375,0.171875,-0.015625
1629795344250,-0.984375,0.15625,0.0
1629795344281,-0.984375,0.15625,0.0
1629795344312,-0.984375,0.171875,-0.015625
1629795344343,-0.984375,0.15625,0.0
1629795344375,-0.984375,0.15625,0.0
1629795344406,-0.984375,0.15625,-0.015625
1629795344437,-0.984375,0.15625,0.0
1629795344468,-0.984375,0.15625,-0.015625
1629795344500,-0.984375,0.15625,-0.015625
1629795344531,-0.984375,0.15625,0.0
1629795344562,-0.984375,0.15625,0.0
1629795344593,-0.984375,0.15625,0.0
1629795344625,-0.984375,0.15625,-0.015625
1629795344656,-0.984375,0.15625,-0.015625
1629795344687,-0.984375,0.171875,0.0
1629795344718,-0.984375,0.15625,0.0
1629795344750,-0.984375,0.15625,0.0
1629795344781,-0.984375,0.15625,0.0
1629795344812,-0.984375,0.15625,0.0
1629795344843,-1.0,0.15625,0.0
1629795344875,-0.984375,0.15625,0.0
1629795344906,-0.984375,0.15625,-0.015625
1629795344937,-0.984375,0.15625,0.0
1629795344968,-0.984375,0.15625,0.0
1629795345000,-0.984375,0.171875,0.0
1629795345031,-0.984375,0.15625,-0.015625
1629795345062,-0.984375,0.15625,0.0
1629795345093,-0.984375,0.171875,0.0
1629795345125,-0.984375,0.15625,0.0
1629795345156,-0.984375,0.15625,0.0
1629795345187,-0.984375,0.171875,0.0
1629795345218,-0.984375,0.171875,0.0
1629795345250,-0.984375,0.15625,0.0
1629795345281,-0.984375,0.15625,0.0
1629795345312,-0.984375,0.171875,0.0
1629795345343,-0.984375,0.171875,0.0
1629795345375,-0.984375,0.171875,0.0
1629795345406,-0.984375,0.171875,-0.015625
1629795345437,-0.984375,0.171875,0.0
1629795345468,-0.984375,0.171875,0.0
1629795345500,-0.984375,0.15625,0.0
1629795345531,-0.984375,0.15625,-0.015625
1629795345562,-0.984375,0.171875,0.0
1629795345593,-1.0,0.171875,0.0
1629795345625,-0.984375,0.171875,-0.015625
1629795345656,-0.984375,0.171875,0.0
1629795345687,-0.984375,0.171875,-0.015625
1629795345718,-0.984375,0.171875,0.0
1629795345750,-0.984375,0.171875,0.0
1629795345781,-0.984375,0.171875,0.0
1629795345812,-0.984375,0.171875,0.0
1629795345843,-0.984375,0.171875,0.0
1629795345875,-0.984375,0.171875,0.0
1629795345906,-0.984375,0.171875,0.0
1629795345937,-0.984375,0.171875,0.0
1629795345968,-0.984375,0.171875,0.0
1629795346000,-0.984375,0.171875,0.0
1629795346031,-0.984375,0.171875,0.0
1629795346062,-0.984375,0.171875,-0.015625
1629795346093,-0.984375,0.171875,0.0
1629795346125,-0.984375,0.171875,0.0
1629795346156,-0.984375,0.171875,0.0
1629795346187,-0.984375,0.171875,0.0
1629795346218,-0.984375,0.171875,-0.015625
1629795346250,-0.984375,0.171875,0.0
1629795346281,-0.96875,0.171875,0.0
1629795346312,-1.0,0.171875,-0.03125
1629795346343,-1.0,0.171875,-0.03125
1629795346375,-0.984375,0.171875,-0.015625
1629795346406,-0.984375,0.171875,-0.015625
1629795346437,-0.984375,0.171875,-0.015625
1629795346468,-0.984375,0.171875,-0.015625
1629795346500,-0.984375,0.171875,-0.015625
1629795346531,-0.984375,0.171875,-0.015625
1629795346562,-0.984375,0.171875,-0.015625
1629795346593,-0.984375,0.171875,-0.015625
1629795346625,-0.984375,0.171875,-0.015625
1629795346656,-0.984375,0.171875,-0.015625
1629795346687,-0.984375,0.171875,-0.015625
1629795346718,-0.984375,0.171875,-0.015625
1629795346750,-0.984375,0.171875,-0.015625
1629795346781,-0.984375,0.1875,-0.015625
1629795346812,-0.984375,0.171875,-0.015625
1629795346843,-0.984375,0.171875,-0.015625
1629795346875,-0.984375,0.171875,-0.015625
1629795346906,-0.984375,0.171875,-0.015625
1629795346937,-0.984375,0.171875,-0.015625
1629795346968,-0.984375,0.171875,-0.015625
1629795347000,-0.984375,0.171875,-0.015625
1629795347031,-0.984375,0.171875,-0.015625
1629795347062,-0.984375,0.171875,-0.015625
1629795347093,-0.984375,0.171875,-0.015625
1629795347125,-0.984375,0.171875,-0.015625
1629795347156,-0.984375,0.171875,-0.015625
1629795347187,-0.984375,0.171875,-0.015625
1629795347218,-0.984375,0.171875,-0.015625
1629795347250,-0.984375,0.171875,-0.015625
1629795347281,-0.984375,0.171875,-0.015625
1629795347312,-0.984375,0.171875,-0.015625
1629795347343,-0.984375,0.171875,-0.015625
1629795347375,-0.984375,0.171875,-0.015625
1629795347406,-0.984375,0.171875,-0.015625
1629795347437,-0.984375,0.1875,-0.015625
1629795347468,-0.984375,0.171875,-0.015625
1629795347500,-0.984375,0.171875,-0.015625
1629795347531,-0.984375,0.171875,-0.015625
1629795347562,-0.984375,0.171875,-0.015625
1629795347593,-0.984375,0.171875,-0.03125
1629795347625,-0.984375,0.171875,-0.015625
1629795347656,-0.984375,0.171875,-0.015625
1629795347687,-0.984375,0.171875,-0.015625
1629795347718,-0.984375,0.171875,-0.015625
1629795347750,-0.984375,0.171875,-0.015625
1629795347781,-0.984375,0.171875,-0.015625
1629795347812,-1.0,0.171875,-0.03125
1629795347843,-0.984375,0.171875,-0.015625
1629795347875,-0.96875,0.171875,-0.015625
1629795347906,-0.984375,0.171875,-0.015625
1629795347937,-0.984375,0.171875,-0.03125
1629795347968,-0.984375,0.171875,-0.015625
1629795348000,-0.984375,0.171875,-0.015625
1629795348031,-0.984375,0.171875,-0.015625
1629795348062,-0.984375,0.171875,-0.015625
1629795348093,-0.984375,0.171875,-0.015625
1629795348125,-0.984375,0.171875,-0.03125
1629795348156,-0.984375,0.171875,-0.03125
1629795348187,-0.984375,0.171875,-0.015625
1629795348218,-1.0,0.171875,-0.03125
1629795348250,-0.984375,0.171875,-0.015625
1629795348281,-0.984375,0.171875,-0.015625
1629795348312,-0.984375,0.171875,-0.015625
1629795348343,-0.984375,0.171875,-0.015625
1629795348375,-0.984375,0.171875,-0.015625
1629795348406,-0.984375,0.171875,-0.015625
1629795348437,-0.984375,0.171875,-0.015625
1629795348468,-0.984375,0.171875,-0.015625
1629795348500,-0.984375,0.171875,-0.03125
1629795348531,-0.984375,0.171875,-0.015625
1629795348562,-0.984375,0.171875,-0.015625
1629795348593,-0.984375,0.171875,-0.015625
1629795348625,-0.984375,0.171875,-0.015625
1629795348656,-0.984375,0.171875,-0.015625
1629795348687,-0.984375,0.171875,-0.015625
1629795348718,-0.984375,0.171875,-0.03125
1629795348750,-0.984375,0.171875,-0.03125
1629795348781,-0.984375,0.171875,-0.015625
1629795348812,-0.984375,0.171875,-0.015625
1629795348843,-0.984375,0.171875,-0.015625
1629795348875,-0.984375,0.171875,-0.015625
1629795348906,-0.984375,0.171875,-0.03125
1629795348937,-0.984375,0.171875,-0.015625
1629795348968,-0.984375,0.171875,-0.015625
1629795349000,-0.984375,0.171875,-0.015625
1629795349031,-0.984375,0.171875,-0.015625
1629795349062,-0.984375,0.171875,-0.015625
1629795349093,-0.984375,0.171875,-0.03125
1629795349125,-0.984375,0.171875,-0.015625
1629795349156,-0.984375,0.171875,-0.015625
1629795349187,-0.984375,0.171875,-0.015625
1629795349218,-0.984375,0.171875,-0.015625
1629795349250,-0.984375,0.171875,-0.015625
1629795349281,-0.984375,0.171875,-0.015625
1629795349312,-0.984375,0.171875,-0.03125
1629795349343,-0.984375,0.171875,-0.015625
1629795349375,-0.984375,0.171875,-0.015625
1629795349406,-0.984375,0.171875,-0.015625
1629795349437,-0.984375,0.171875,-0.015625
1629795349468,-0.984375,0.171875,-0.03125
1629795349500,-0.984375,0.171875,-0.015625
1629795349531,-0.984375,0.171875,-0.03125
1629795349562,-0.984375,0.171875,-0.03125
1629795349593,-0.984375,0.171875,-0.03125
1629795349625,-0.984375,0.171875,-0.015625
1629795349656,-0.984375,0.171875,-0.03125
1629795349687,-0.984375,0.171875,-0.03125
1629795349718,-0.984375,0.171875,-0.015625
1629795349750,-0.984375,0.171875,-0.015625
1629795349781,-0.984375,0.171875,-0.03125
1629795349812,-0.984375,0.171875,-0.03125
1629795349843,-0.984375,0.171875,-0.03125
1629795349875,-0.984375,0.171875,-0.015625
1629795349906,-0.984375,0.171875,-0.015625
1629795349937,-0.984375,0.171875,-0.015625
1629795349968,-1.0,0.171875,-0.015625
1629795350000,-0.96875,0.171875,0.0
1629795350031,-1.015625,0.15625,-0.0625
1629795350062,-0.984375,0.15625,-0.015625
1629795350093,-0.984375,0.171875,-0.015625
1629795350125,-0.984375,0.171875,0.0
1629795350156,-0.984375,0.15625,-0.03125
1629795350187,-0.984375,0.171875,-0.015625
1629795350218,-0.984375,0.171875,-0.015625
1629795350250,-0.984375,0.171875,-0.015625
1629795350281,-0.984375,0.171875,-0.015625
1629795350312,-0.984375,0.171875,-0.015625
1629795350343,-0.984375,0.171875,-0.015625
1629795350375,-0.984375,0.15625,-0.015625
1629795350406,-0.984375,0.15625,-0.015625
1629795350437,-0.984375,0.15625,0.0
1629795350468,-0.984375,0.15625,-0.015625
1629795350500,-0.984375,0.15625,0.0
1629795350531,-0.984375,0.15625,-0.015625
1629795350562,-0.984375,0.15625,-0.015625
1629795350593,-0.984375,0.171875,0.0
1629795350625,-0.984375,0.171875,-0.015625
1629795350656,-1.0,0.171875,-0.015625
1629795350687,-0.984375,0.171875,-0.015625
1629795350718,-0.984375,0.171875,-0.015625
1629795350750,-0.984375,0.171875,-0.015625
1629795350781,-1.0,0.171875,-0.03125
1629795350812,-1.0,0.15625,-0.03125
1629795350843,-0.984375,0.15625,-0.015625
1629795350875,-0.984375,0.15625,-0.015625
1629795350906,-0.984375,0.15625,-0.015625
1629795350937,-0.984375,0.15625,-0.015625
1629795350968,-0.984375,0.171875,-0.015625
1629795351000,-0.984375,0.171875,-0.015625
1629795351031,-0.984375,0.171875,-0.015625
1629795351062,-0.984375,0.171875,-0.03125
1629795351093,-0.984375,0.171875,-0.015625
1629795351125,-0.984375,0.171875,-0.03125
1629795351156,-0.984375,0.171875,-0.015625
1629795351187,-0.984375,0.171875,-0.03125
1629795351218,-1.0,0.15625,-0.015625
1629795351250,-0.984375,0.15625,-0.015625
1629795351281,-0.984375,0.15625,-0.015625
1629795351312,-0.984375,0.15625,-0.015625
1629795351343,-0.984375,0.171875,-0.015625
1629795351375,-0.984375,0.171875,-0.015625
1629795351406,-0.984375,0.171875,-0.015625
1629795351437,-0.984375,0.171875,-0.015625
1629795351468,-0.984375,0.171875,-0.015625
1629795351500,-0.984375,0.15625,-0.015625
1629795351531,-0.984375,0.171875,-0.015625
1629795351562,-0.984375,0.171875,-0.015625
1629795351593,-0.984375,0.171875,-0.015625
1629795351625,-0.984375,0.15625,-0.015625
1629795351656,-0.984375,0.171875,-0.015625
1629795351687,-0.984375,0.171875,-0.015625
1629795351718,-0.984375,0.171875,-0.03125
1629795351750,-0.984375,0.171875,-0.015625
1629795351781,-0.984375,0.171875,-0.015625
1629795351812,-0.984375,0.171875,-0.015625
1629795351843,-0.984375,0.15625,-0.015625
1629795351875,-0.984375,0.171875,-0.015625
1629795351906,-0.984375,0.15625,-0.015625
1629795351937,-0.984375,0.171875,-0.015625
1629795351968,-0.984375,0.171875,-0.015625
1629795352000,-0.984375,0.15625,-0.015625
1629795352031,-0.984375,0.15625,-0.015625
1629795352062,-0.984375,0.15625,-0.015625
1629795352093,-0.984375,0.171875,-0.015625
1629795352125,-0.984375,0.171875,-0.03125
1629795352156,-0.984375,0.171875,-0.015625
1629795352187,-0.984375,0.171875,-0.015625
1629795352218,-0.984375,0.15625,-0.015625
1629795352250,-0.984375,0.171875,-0.015625
1629795352281,-1.0,0.171875,-0.015625
1629795352312,-0.984375,0.171875,-0.015625
1629795352343,-0.984375,0.171875,-0.015625
1629795352375,-0.984375,0.171875,-0.015625
1629795352406,-0.984375,0.171875,-0.015625
1629795352437,-0.984375,0.171875,-0.015625
1629795352468,-0.984375,0.171875,-0.015625
1629795352500,-0.984375,0.171875,-0.015625
1629795352531,-0.984375,0.171875,-0.015625
1629795352562,-0.984375,0.15625,-0.015625
1629795352593,-0.984375,0.171875,-0.015625
1629795352625,-0.984375,0.15625,-0.015625
1629795352656,-1.0,0.171875,-0.015625
1629795352687,-0.984375,0.171875,-0.015625
1629795352718,-0.984375,0.171875,-0.015625
1629795352750,-0.984375,0.15625,-0.015625
1629795352781,-0.984375,0.15625,-0.015625
1629795352812,-0.984375,0.171875,-0.015625
1629795352843,-0.984375,0.171875,-0.015625
1629795352875,-0.984375,0.171875,-0.015625
1629795352906,-0.984375,0.171875,-0.015625
1629795352937,-0.984375,0.171875,-0.015625
1629795352968,-0.984375,0.171875,-0.015625
1629795353000,-0.984375,0.15625,-0.03125
1629795353031,-0.984375,0.171875,-0.015625
1629795353062,-0.984375,0.171875,-0.015625
1629795353093,-1.0,0.171875,-0.03125
1629795353125,-0.984375,0.15625,-0.015625
1629795353156,-0.984375,0.15625,-0.015625
1629795353187,-0.984375,0.171875,-0.015625
1629795353218,-0.984375,0.171875,-0.015625
1629795353250,-0.984375,0.171875,-0.015625
1629795353281,-0.984375,0.171875,-0.015625
1629795353312,-0.984375,0.171875,-0.015625
1629795353343,-0.984375,0.171875,-0.015625
1629795353375,-1.0,0.171875,-0.015625
1629795353406,-0.984375,0.171875,-0.015625
1629795353437,-0.984375,0.171875,-0.015625
1629795353468,-0.984375,0.15625,-0.015625
1629795353500,-0.984375,0.171875,-0.015625
1629795353531,-0.984375,0.171875,-0.015625
1629795353562,-0.984375,0.171875,-0.015625
1629795353593,-0.984375,0.171875,-0.015625
1629795353625,-0.984375,0.171875,-0.015625
1629795353656,-0.984375,0.171875,-0.015625
1629795353687,-0.984375,0.171875,-0.015625
1629795353718,-0.984375,0.171875,-0.015625
1629795353750,-0.984375,0.171875,-0.015625
1629795353781,-0.984375,0.171875,-0.015625
1629795353812,-0.984375,0.171875,-0.015625
1629795353843,-0.984375,0.171875,-0.015625
1629795353875,-0.984375,0.171875,-0.015625
1629795353906,-0.984375,0.171875,-0.015625
1629795353937,-0.984375,0.171875,-0.015625
1629795353968,-0.984375,0.171875,-0.015625
1629795354000,-0.984375,0.171875,-0.015625
1629795354031,-0.984375,0.171875,-0.015625
1629795354062,-0.984375,0.171875,-0.015625
1629795354093,-1.0,0.171875,-0.015625
1629795354125,-0.984375,0.171875,-0.015625
1629795354156,-1.0,0.171875,-0.015625
1629795354187,-0.984375,0.171875,-0.015625
1629795354218,-0.984375,0.171875,-0.015625
1629795354250,-0.984375,0.171875,-0.015625
1629795354281,-0.984375,0.171875,-0.015625
1629795354312,-0.984375,0.171875,-0.015625
1629795354343,-0.984375,0.171875,-0.015625
1629795354375,-0.984375,0.171875,-0.015625
1629795354406,-0.984375,0.171875,-0.015625
1629795354437,-0.984375,0.171875,-0.015625
1629795354468,-0.984375,0.171875,-0.015625
1629795354500,-0.984375,0.171875,-0.015625
1629795354531,-0.984375,0.171875,-0.015625
1629795354562,-0.984375,0.171875,-0.015625
1629795354593,-0.984375,0.171875,-0.015625
1629795354625,-0.984375,0.171875,-0.015625
1629795354656,-0.984375,0.171875,-0.015625
1629795354687,-0.984375,0.171875,-0.015625
1629795354718,-0.984375,0.171875,-0.015625
1629795354750,-0.984375,0.171875,-0.015625
1629795354781,-0.984375,0.171875,-0.015625
1629795354812,-0.984375,0.171875,-0.015625
1629795354843,-0.984375,0.171875,-0.015625
1629795354875,-0.984375,0.171875,-0.015625
1629795354906,-0.984375,0.171875,-0.015625
1629795354937,-0.984375,0.171875,-0.015625
1629795354968,-0.984375,0.171875,-0.015625
1629795355000,-0.984375,0.171875,-0.015625
1629795355031,-0.984375,0.171875,-0.015625
1629795355062,-0.984375,0.171875,-0.015625
1629795355093,-0.984375,0.171875,-0.015625
1629795355125,-0.984375,0.171875,-0.015625
1629795355156,-0.984375,0.171875,-0.015625
1629795355187,-0.984375,0.171875,-0.015625
1629795355218,-0.984375,0.171875,-0.015625
1629795355250,-0.984375,0.171875,-0.015625
1629795355281,-0.984375,0.171875,-0.015625
1629795355312,-0.984375,0.171875,-0.015625
1629795355343,-0.984375,0.171875,-0.015625
1629795355375,-0.984375,0.171875,-0.03125
1629795355406,-0.984375,0.171875,-0.015625
1629795355437,-0.984375,0.171875,-0.015625
1629795355468,-0.984375,0.171875,-0.015625
1629795355500,-0.984375,0.171875,-0.015625
1629795355531,-0.984375,0.171875,-0.03125
1629795355562,-0.984375,0.171875,-0.015625
1629795355593,-0.984375,0.171875,-0.03125
1629795355625,-0.984375,0.171875,-0.015625
1629795355656,-0.984375,0.171875,-0.03125
1629795355687,-0.984375,0.171875,-0.015625
1629795355718,-0.984375,0.171875,-0.015625
1629795355750,-0.984375,0.171875,-0.015625
1629795355781,-0.984375,0.171875,-0.015625
1629795355812,-0.984375,0.171875,-0.015625
1629795355843,-0.984375,0.171875,-0.015625
1629795355875,-0.984375,0.171875,-0.03125
1629795355906,-0.984375,0.171875,-0.03125
1629795355937,-0.984375,0.171875,-0.03125
1629795355968,-0.984375,0.171875,-0.015625
1629795356000,-0.984375,0.171875,-0.015625
1629795356031,-0.984375,0.171875,-0.03125
1629795356062,-0.984375,0.171875,-0.03125
1629795356093,-0.984375,0.171875,-0.03125
1629795356125,-0.984375,0.171875,-0.015625
1629795356156,-1.0,0.15625,-0.03125
1629795356187,-1.0,0.171875,-0.03125
1629795356218,-0.984375,0.15625,-0.03125
1629795356250,-1.0,0.171875,-0.03125
1629795356281,-0.984375,0.171875,-0.03125
1629795356312,-0.984375,0.171875,-0.015625
1629795356343,-0.984375,0.171875,-0.015625
1629795356375,-0.984375,0.171875,-0.03125
1629795356406,-1.0,0.171875,-0.03125
1629795356437,-0.984375,0.171875,-0.03125
1629795356468,-0.984375,0.171875,-0.03125
1629795356500,-0.984375,0.171875,-0.03125
1629795356531,-0.984375,0.171875,-0.015625
1629795356562,-0.984375,0.171875,-0.015625
1629795356593,-0.984375,0.171875,-0.015625
1629795356625,-0.984375,0.171875,-0.015625
1629795356656,-0.984375,0.171875,-0.015625
1629795356687,-0.984375,0.171875,-0.03125
1629795356718,-0.984375,0.171875,-0.03125
1629795356750,-0.984375,0.171875,-0.03125
1629795356781,-0.984375,0.171875,-0.03125
1629795356812,-0.984375,0.171875,-0.03125
1629795356843,-0.984375,0.171875,-0.015625
1629795356875,-0.984375,0.171875,-0.03125
1629795356906,-0.984375,0.171875,-0.015625
1629795356937,-1.0,0.171875,-0.03125
1629795356968,-0.984375,0.171875,-0.015625
1629795357000,-0.984375,0.171875,-0.015625
1629795357031,-0.984375,0.171875,-0.015625
1629795357062,-0.96875,0.15625,-0.015625
1629795357093,-0.984375,0.15625,-0.015625
1629795357125,-0.984375,0.171875,-0.03125
1629795357156,-0.984375,0.171875,-0.03125
1629795357187,-0.984375,0.171875,-0.03125
1629795357218,-0.984375,0.15625,-0.03125
1629795357250,-0.984375,0.171875,-0.015625
1629795357281,-0.984375,0.171875,-0.015625
1629795357312,-0.984375,0.171875,-0.03125
1629795357343,-0.984375,0.171875,-0.03125
1629795357375,-0.984375,0.15625,-0.015625
1629795357406,-0.984375,0.15625,-0.03125
1629795357437,-0.984375,0.171875,-0.015625
1629795357468,-0.984375,0.171875,-0.015625
1629795357500,-0.984375,0.171875,-0.015625
1629795357531,-0.984375,0.171875,-0.015625
1629795357562,-0.984375,0.171875,-0.03125
1629795357593,-0.984375,0.171875,-0.03125
1629795357625,-0.984375,0.171875,-0.03125
1629795357656,-0.984375,0.171875,-0.03125
1629795357687,-0.984375,0.171875,-0.03125
1629795357718,-0.984375,0.171875,-0.015625
1629795357750,-0.984375,0.171875,-0.015625
1629795357781,-0.984375,0.171875,-0.03125
1629795357812,-0.984375,0.171875,-0.015625
1629795357843,-0.984375,0.171875,-0.015625
1629795357875,-1.0,0.171875,-0.03125
1629795357906,-0.984375,0.171875,-0.015625
1629795357937,-0.984375,0.171875,-0.015625
1629795357968,-0.984375,0.15625,-0.03125
1629795358000,-0.984375,0.171875,-0.015625
1629795358031,-0.984375,0.171875,-0.03125
1629795358062,-0.984375,0.171875,-0.03125
1629795358093,-0.984375,0.171875,-0.03125
1629795358125,-0.984375,0.171875,-0.015625
1629795358156,-0.984375,0.171875,-0.03125
1629795358187,-0.984375,0.171875,-0.015625
1629795358218,-0.984375,0.171875,-0.015625
1629795358250,-0.984375,0.171875,-0.03125
1629795358281,-1.0,0.171875,-0.03125
1629795358312,-0.984375,0.171875,-0.015625
1629795358343,-0.984375,0.171875,-0.015625
1629795358375,-0.984375,0.15625,-0.03125
1629795358406,-0.984375,0.171875,-0.015625
1629795358437,-0.984375,0.171875,-0.015625
1629795358468,-0.984375,0.171875,-0.015625
1629795358500,-0.984375,0.15625,-0.015625
1629795358531,-0.984375,0.171875,-0.015625
1629795358562,-0.984375,0.171875,-0.03125
1629795358593,-0.984375,0.15625,-0.03125
1629795358625,-0.984375,0.171875,-0.015625
1629795358656,-0.984375,0.15625,-0.03125
1629795358687,-0.984375,0.15625,-0.03125
1629795358718,-0.984375,0.171875,-0.015625
1629795358750,-0.984375,0.171875,-0.03125
1629795358781,-0.984375,0.171875,-0.03125
1629795358812,-0.984375,0.15625,-0.015625
1629795358843,-0.984375,0.171875,-0.015625
1629795358875,-1.0,0.171875,-0.03125
1629795358906,-0.96875,0.15625,-0.015625
1629795358937,-0.984375,0.15625,-0.015625
1629795358968,-0.984375,0.15625,-0.03125
1629795359000,-0.984375,0.15625,-0.015625
1629795359031,-1.0,0.171875,-0.03125
1629795359062,-0.984375,0.15625,-0.03125
1629795359093,-0.984375,0.171875,-0.03125
1629795359125,-0.984375,0.15625,-0.015625
1629795359156,-0.984375,0.171875,-0.03125
1629795359187,-0.984375,0.171875,-0.03125
1629795359218,-0.984375,0.15625,-0.03125
1629795359250,-0.984375,0.15625,-0.03125
1629795359281,-0.984375,0.171875,-0.03125
1629795359312,-0.984375,0.15625,-0.03125
1629795359343,-0.984375,0.15625,-0.03125
1629795359375,-0.984375,0.15625,-0.03125
1629795359406,-0.984375,0.15625,-0.03125
1629795359437,-0.984375,0.15625,-0.03125
1629795359468,-0.984375,0.15625,-0.03125
1629795359500,-1.0,0.15625,-0.03125
1629795359531,-0.984375,0.15625,-0.03125
1629795359562,-0.984375,0.15625,-0.03125
1629795359593,-0.984375,0.15625,-0.03125
1629795359625,-0.984375,0.15625,-0.03125
1629795359656,-0.984375,0.171875,-0.03125
1629795359687,-0.984375,0.15625,-0.03125
1629795359718,-0.984375,0.15625,-0.03125
1629795359750,-0.984375,0.15625,-0.03125
1629795359781,-0.984375,0.15625,-0.03125
1629795359812,-0.984375,0.171875,-0.03125
1629795359843,-1.0,0.171875,-0.03125
1629795359875,-0.984375,0.15625,-0.03125
1629795359906,-0.984375,0.171875,-0.03125
1629795359937,-0.984375,0.15625,-0.03125
1629795359968,-0.984375,0.15625,-0.015625
1629795360000,-0.984375,0.15625,-0.03125
1629795360031,-0.984375,0.171875,-0.03125
1629795360062,-0.984375,0.171875,-0.03125
1629795360093,-0.984375,0.15625,-0.03125
1629795360125,-0.984375,0.171875,-0.03125
1629795360156,-0.984375,0.171875,-0.03125
1629795360187,-0.984375,0.171875,-0.03125
1629795360218,-0.984375,0.15625,-0.03125
1629795360250,-0.984375,0.171875,-0.03125
1629795360281,-0.984375,0.15625,-0.03125
1629795360312,-1.0,0.171875,-0.03125
1629795360343,-0.984375,0.171875,-0.015625
1629795360375,-0.984375,0.15625,-0.03125
1629795360406,-0.984375,0.15625,-0.03125
1629795360437,-1.0,0.171875,-0.03125
1629795360468,-0.984375,0.15625,-0.03125
1629795360500,-0.984375,0.171875,-0.03125
1629795360531,-0.984375,0.15625,-0.03125
1629795360562,-0.984375,0.171875,-0.03125
1629795360593,-0.984375,0.15625,-0.03125
1629795360625,-0.984375,0.15625,-0.03125
1629795360656,-0.984375,0.171875,-0.03125
1629795360687,-0.984375,0.171875,-0.03125
1629795360718,-0.984375,0.171875,-0.03125
1629795360750,-0.984375,0.171875,-0.03125
1629795360781,-0.984375,0.171875,-0.03125
1629795360812,-0.984375,0.15625,-0.03125
1629795360843,-0.984375,0.15625,-0.03125
1629795360875,-0.984375,0.171875,-0.03125
1629795360906,-0.984375,0.15625,-0.03125
1629795360937,-0.984375,0.171875,-0.03125
1629795360968,-0.984375,0.171875,-0.03125
1629795361000,-0.984375,0.171875,-0.03125
1629795361031,-0.984375,0.15625,-0.03125
1629795361062,-0.984375,0.171875,-0.015625
1629795361093,-0.984375,0.15625,-0.03125
1629795361125,-1.0,0.171875,-0.03125
1629795361156,-0.984375,0.171875,-0.03125
1629795361187,-0.984375,0.171875,-0.03125
1629795361218,-0.984375,0.15625,-0.03125
1629795361250,-0.984375,0.15625,-0.03125
1629795361281,-0.984375,0.171875,-0.03125
1629795361312,-0.984375,0.171875,-0.03125
1629795361343,-0.984375,0.15625,-0.03125
1629795361375,-0.984375,0.171875,-0.03125
1629795361406,-0.984375,0.171875,-0.03125
1629795361437,-0.984375,0.171875,-0.03125
1629795361468,-0.984375,0.171875,-0.03125
1629795361500,-0.984375,0.171875,-0.03125
1629795361531,-0.984375,0.171875,-0.015625
1629795361562,-0.984375,0.171875,-0.015625
1629795361593,-0.984375,0.171875,-0.03125
1629795361625,-0.984375,0.15625,-0.03125
1629795361656,-0.984375,0.15625,-0.03125
1629795361687,-0.984375,0.171875,-0.015625
1629795361718,-0.984375,0.171875,-0.015625
1629795361750,-0.984375,0.171875,-0.03125
1629795361781,-0.984375,0.171875,-0.03125
1629795361812,-0.984375,0.171875,-0.03125
1629795361843,-0.984375,0.171875,-0.03125
1629795361875,-0.984375,0.171875,-0.015625
1629795361906,-0.984375,0.171875,-0.015625
1629795361937,-0.984375,0.171875,-0.015625
1629795361968,-1.0,0.171875,-0.03125
1629795362000,-0.984375,0.171875,-0.015625
1629795362031,-0.984375,0.171875,-0.015625
1629795362062,-0.984375,0.171875,-0.015625
1629795362093,-0.984375,0.171875,-0.015625
1629795362125,-0.984375,0.171875,-0.015625
1629795362156,-0.984375,0.171875,-0.015625
1629795362187,-0.984375,0.171875,-0.03125
1629795362218,-0.984375,0.171875,-0.015625
1629795362250,-0.984375,0.171875,-0.03125
1629795362281,-1.0,0.171875,-0.03125
1629795362312,-0.984375,0.171875,-0.015625
1629795362343,-0.984375,0.171875,-0.015625
1629795362375,-0.984375,0.171875,-0.015625
1629795362406,-1.0,0.171875,-0.03125
1629795362437,-0.984375,0.171875,-0.03125
1629795362468,-0.984375,0.171875,-0.015625
1629795362500,-0.984375,0.15625,-0.03125
1629795362531,-0.984375,0.171875,-0.015625
1629795362562,-1.0,0.171875,-0.015625
1629795362593,-0.984375,0.171875,-0.015625
1629795362625,-0.984375,0.171875,-0.015625
1629795362656,-0.984375,0.171875,-0.015625
1629795362687,-0.984375,0.171875,-0.015625
1629795362718,-0.984375,0.171875,-0.015625
1629795362750,-0.984375,0.171875,-0.015625
1629795362781,-0.984375,0.171875,-0.015625
1629795362812,-0.984375,0.171875,-0.015625
1629795362843,-0.984375,0.171875,-0.03125
1629795362875,-0.984375,0.171875,-0.015625
1629795362906,-0.984375,0.171875,-0.015625
1629795362937,-0.984375,0.171875,-0.015625
1629795362968,-0.984375,0.171875,-0.015625
1629795363000,-0.984375,0.171875,-0.015625
1629795363031,-0.984375,0.171875,-0.015625
1629795363062,-0.984375,0.171875,-0.015625
1629795363093,-0.984375,0.171875,-0.015625
1629795363125,-0.984375,0.171875,-0.015625
1629795363156,-0.984375,0.171875,-0.015625
1629795363187,-0.984375,0.171875,-0.015625
1629795363218,-0.984375,0.171875,-0.015625
1629795363250,-0.984375,0.171875,-0.015625
1629795363281,-0.984375,0.171875,-0.015625
1629795363312,-0.984375,0.171875,-0.015625
1629795363343,-0.984375,0.171875,-0.015625
1629795363375,-0.984375,0.171875,-0.015625
1629795363406,-0.984375,0.171875,-0.015625
1629795363437,-0.984375,0.171875,-0.015625
1629795363468,-0.984375,0.171875,-0.015625
1629795363500,-0.984375,0.171875,-0.015625
1629795363531,-0.984375,0.171875,-0.03125
1629795363562,-0.984375,0.171875,-0.015625
1629795363593,-0.984375,0.171875,-0.015625
1629795363625,-0.984375,0.171875,-0.015625
1629795363656,-0.984375,0.171875,-0.03125
1629795363687,-0.984375,0.171875,-0.015625
1629795363718,-0.984375,0.171875,-0.03125
1629795363750,-0.984375,0.171875,-0.015625
1629795363781,-0.984375,0.171875,-0.015625
1629795363812,-0.984375,0.171875,-0.015625
1629795363843,-0.984375,0.171875,-0.03125
1629795363875,-0.984375,0.171875,-0.015625
1629795363906,-0.984375,0.171875,-0.03125
1629795363937,-0.984375,0.171875,-0.015625
1629795363968,-0.984375,0.171875,-0.03125
1629795364000,-0.984375,0.171875,-0.03125
1629795364031,-0.984375,0.171875,-0.03125
1629795364062,-0.984375,0.171875,-0.03125
1629795364093,-0.984375,0.171875,-0.03125
1629795364125,-0.984375,0.171875,-0.03125
1629795364156,-0.984375,0.171875,-0.015625
1629795364187,-0.984375,0.15625,-0.03125
1629795364218,-0.984375,0.171875,-0.015625
1629795364250,-0.984375,0.171875,-0.03125
1629795364281,-0.984375,0.171875,-0.03125
1629795364312,-0.984375,0.171875,-0.03125
1629795364343,-0.984375,0.171875,-0.03125
1629795364375,-0.984375,0.171875,-0.015625
1629795364406,-0.984375,0.171875,-0.03125
1629795364437,-0.984375,0.171875,-0.03125
1629795364468,-0.984375,0.171875,-0.03125
1629795364500,-0.984375,0.15625,-0.03125
1629795364531,-0.984375,0.171875,-0.03125
1629795364562,-0.984375,0.171875,-0.015625
1629795364593,-0.984375,0.171875,-0.03125
1629795364625,-0.984375,0.171875,-0.03125
1629795364656,-0.984375,0.171875,-0.015625
1629795364687,-0.984375,0.171875,-0.015625
1629795364718,-0.984375,0.171875,-0.03125
1629795364750,-0.984375,0.171875,-0.03125
1629795364781,-0.984375,0.171875,-0.03125
1629795364812,-0.984375,0.171875,-0.03125
1629795364843,-0.984375,0.15625,-0.03125
1629795364875,-0.984375,0.15625,-0.03125
1629795364906,-0.984375,0.171875,-0.03125
1629795364937,-0.984375,0.171875,-0.03125
1629795364968,-0.984375,0.15625,-0.03125
1629795365000,-1.0,0.171875,-0.03125
1629795365031,-0.984375,0.171875,-0.03125
1629795365062,-0.984375,0.171875,-0.03125
1629795365093,-0.984375,0.171875,-0.03125
1629795365125,-0.984375,0.171875,-0.015625
1629795365156,-0.984375,0.171875,-0.03125
1629795365187,-0.984375,0.171875,-0.03125
1629795365218,-0.984375,0.171875,-0.03125
1629795365250,-0.984375,0.171875,-0.015625
1629795365281,-0.984375,0.171875,-0.03125
1629795365312,-0.984375,0.171875,-0.015625
1629795365343,-0.984375,0.171875,-0.015625
1629795365375,-0.984375,0.171875,-0.03125
1629795365406,-0.984375,0.171875,-0.015625
1629795365437,-0.984375,0.171875,-0.03125
1629795365468,-0.984375,0.171875,-0.03125
1629795365500,-0.984375,0.171875,-0.015625
1629795365531,-0.984375,0.171875,-0.03125
1629795365562,-0.984375,0.171875,-0.03125
1629795365593,-0.984375,0.171875,-0.015625
1629795365625,-0.984375,0.171875,-0.015625
1629795365656,-0.984375,0.171875,-0.015625
1629795365687,-0.984375,0.171875,-0.015625
1629795365718,-0.984375,0.171875,-0.015625
1629795365750,-0.984375,0.171875,-0.015625
1629795365781,-0.984375,0.171875,-0.03125
1629795365812,-0.984375,0.15625,-0.03125
1629795365843,-1.0,0.15625,-0.03125
1629795365875,-0.984375,0.171875,-0.03125
1629795365906,-0.984375,0.171875,-0.03125
1629795365937,-1.0,0.15625,-0.046875
1629795365968,-0.984375,0.171875,-0.03125
1629795366000,-0.984375,0.171875,-0.03125
1629795366031,-1.0,0.171875,-0.03125
1629795366062,-0.984375,0.171875,-0.015625
1629795366093,-0.9375,0.1875,0.078125
1629795366125,-1.015625,0.140625,-0.09375
1629795366156,-0.96875,0.15625,0.015625
1629795366187,-1.0,0.171875,-0.015625
1629795366218,-0.984375,0.15625,-0.03125
1629795366250,-0.984375,0.171875,-0.015625
1629795366281,-0.984375,0.171875,-0.015625
1629795366312,-0.984375,0.171875,-0.03125
1629795366343,-0.984375,0.171875,-0.03125
1629795366375,-0.984375,0.15625,-0.03125
1629795366406,-0.984375,0.15625,-0.03125
1629795366437,-0.984375,0.15625,-0.03125
1629795366468,-0.984375,0.15625,-0.03125
1629795366500,-0.984375,0.15625,-0.03125
1629795366531,-0.984375,0.171875,-0.03125
1629795366562,-0.984375,0.171875,-0.03125
1629795366593,-0.984375,0.171875,-0.03125
1629795366625,-0.984375,0.171875,-0.03125
1629795366656,-0.984375,0.15625,-0.03125
1629795366687,-0.984375,0.171875,-0.03125
1629795366718,-0.984375,0.171875,-0.03125
1629795366750,-1.0,0.171875,-0.03125
1629795366781,-0.984375,0.171875,-0.015625
1629795366812,-0.984375,0.15625,-0.03125
1629795366843,-0.984375,0.171875,-0.03125
1629795366875,-0.984375,0.171875,-0.03125
1629795366906,-0.984375,0.171875,-0.03125
1629795366937,-0.984375,0.171875,-0.03125
1629795366968,-0.984375,0.15625,-0.03125
1629795367000,-0.984375,0.171875,-0.03125
1629795367031,-0.984375,0.15625,-0.03125
1629795367062,-0.984375,0.15625,-0.015625
1629795367093,-0.984375,0.15625,-0.03125
1629795367125,-0.984375,0.15625,-0.03125
1629795367156,-0.984375,0.15625,-0.03125
1629795367187,-0.984375,0.171875,-0.03125
1629795367218,-0.984375,0.171875,-0.03125
1629795367250,-0.984375,0.15625,-0.03125
1629795367281,-0.984375,0.15625,-0.03125
1629795367312,-0.984375,0.15625,-0.03125
1629795367343,-0.984375,0.171875,-0.03125
1629795367375,-0.984375,0.171875,-0.03125
1629795367406,-0.984375,0.171875,-0.03125
1629795367437,-0.984375,0.171875,-0.03125
1629795367468,-0.984375,0.171875,-0.03125
1629795367500,-1.0,0.15625,-0.03125
1629795367531,-0.984375,0.15625,-0.03125
1629795367562,-0.984375,0.171875,-0.03125
1629795367593,-0.984375,0.15625,-0.03125
1629795367625,-1.0,0.171875,-0.03125
1629795367656,-0.984375,0.171875,-0.03125
1629795367687,-0.984375,0.15625,-0.03125
1629795367718,-0.984375,0.15625,-0.03125
1629795367750,-0.984375,0.15625,-0.03125
1629795367781,-0.984375,0.171875,-0.03125
1629795367812,-0.984375,0.171875,-0.03125
1629795367843,-0.984375,0.15625,-0.03125
1629795367875,-0.984375,0.171875,-0.03125
1629795367906,-0.984375,0.15625,-0.03125
1629795367937,-0.984375,0.15625,-0.03125
1629795367968,-0.984375,0.15625,-0.03125
1629795368000,-0.984375,0.171875,-0.03125
1629795368031,-0.984375,0.171875,-0.03125
1629795368062,-0.984375,0.171875,-0.03125
1629795368093,-0.984375,0.171875,-0.03125
1629795368125,-0.984375,0.171875,-0.03125
1629795368156,-0.984375,0.171875,-0.03125
1629795368187,-0.984375,0.15625,-0.03125
1629795368218,-0.984375,0.15625,-0.03125
1629795368250,-0.984375,0.15625,-0.03125
1629795368281,-0.984375,0.15625,-0.03125
1629795368312,-0.984375,0.15625,-0.03125
1629795368343,-0.984375,0.171875,-0.03125
1629795368375,-0.984375,0.171875,-0.015625
1629795368406,-0.984375,0.171875,-0.015625
1629795368437,-0.984375,0.15625,-0.015625
1629795368468,-0.984375,0.171875,-0.03125
1629795368500,-0.984375,0.171875,-0.03125
1629795368531,-0.984375,0.15625,-0.03125
1629795368562,-0.984375,0.171875,-0.03125
1629795368593,-0.984375,0.171875,-0.03125
1629795368625,-0.984375,0.15625,-0.03125
1629795368656,-0.984375,0.171875,-0.03125
1629795368687,-0.984375,0.171875,-0.03125
1629795368718,-0.984375,0.171875,-0.03125
1629795368750,-0.984375,0.171875,-0.03125
1629795368781,-0.984375,0.171875,-0.03125
1629795368812,-0.984375,0.171875,-0.03125
1629795368843,-0.984375,0.171875,-0.03125
1629795368875,-0.984375,0.171875,-0.03125
1629795368906,-0.984375,0.171875,-0.03125
1629795368937,-0.984375,0.171875,-0.015625
1629795368968,-0.984375,0.171875,-0.015625
1629795369000,-0.984375,0.171875,-0.015625
1629795369031,-0.984375,0.171875,-0.015625
1629795369062,-0.984375,0.171875,-0.015625
1629795369093,-0.984375,0.171875,-0.015625
1629795369125,-0.984375,0.171875,-0.03125
1629795369156,-0.984375,0.171875,-0.03125
1629795369187,-0.984375,0.171875,-0.015625
1629795369218,-0.984375,0.171875,-0.015625
1629795369250,-0.984375,0.171875,-0.03125
1629795369281,-0.984375,0.171875,-0.015625
1629795369312,-0.984375,0.171875,-0.03125
1629795369343,-0.984375,0.171875,-0.015625
1629795369375,-0.984375,0.171875,-0.015625
1629795369406,-0.984375,0.171875,-0.015625
1629795369437,-0.984375,0.171875,-0.03125
1629795369468,-0.984375,0.171875,-0.015625
1629795369500,-0.984375,0.171875,-0.015625
1629795369531,-0.984375,0.15625,-0.015625
1629795369562,-0.984375,0.171875,-0.015625
1629795369593,-0.984375,0.171875,-0.03125
1629795369625,-0.984375,0.171875,-0.03125
1629795369656,-0.984375,0.171875,-0.03125
1629795369687,-0.984375,0.171875,-0.015625
1629795369718,-0.984375,0.171875,-0.015625
1629795369750,-0.984375,0.171875,-0.03125
1629795369781,-0.984375,0.171875,-0.015625
1629795369812,-0.984375,0.171875,-0.015625
1629795369843,-0.984375,0.171875,-0.015625
1629795369875,-0.984375,0.171875,-0.015625
1629795369906,-0.984375,0.171875,-0.015625
1629795369937,-0.984375,0.171875,-0.03125
1629795369968,-0.984375,0.171875,-0.015625
1629795370000,-0.984375,0.171875,-0.015625
1629795370031,-0.984375,0.171875,-0.015625
1629795370062,-0.984375,0.171875,-0.015625
1629795370093,-0.984375,0.171875,-0.015625
1629795370125,-0.984375,0.171875,-0.015625
1629795370156,-0.984375,0.171875,-0.015625
1629795370187,-0.984375,0.171875,-0.03125
1629795370218,-0.984375,0.171875,-0.015625
1629795370250,-0.984375,0.171875,-0.015625
1629795370281,-0.984375,0.171875,-0.015625
1629795370312,-0.984375,0.171875,-0.015625
1629795370343,-0.984375,0.171875,-0.015625
1629795370375,-0.984375,0.171875,-0.015625
1629795370406,-0.984375,0.171875,-0.015625
1629795370437,-0.984375,0.171875,-0.015625
1629795370468,-0.984375,0.171875,-0.03125
1629795370500,-0.984375,0.171875,-0.015625
1629795370531,-0.984375,0.171875,-0.015625
1629795370562,-0.984375,0.171875,-0.015625
1629795370593,-0.984375,0.171875,-0.015625
1629795370625,-0.984375,0.171875,-0.015625
1629795370656,-0.984375,0.171875,-0.03125
1629795370687,-0.984375,0.171875,-0.015625
1629795370718,-0.984375,0.171875,-0.03125
1629795370750,-0.984375,0.171875,-0.015625
1629795370781,-0.984375,0.171875,-0.015625
1629795370812,-0.984375,0.171875,-0.015625
1629795370843,-0.984375,0.171875,-0.015625
1629795370875,-0.984375,0.171875,-0.03125
1629795370906,-0.984375,0.171875,-0.03125
1629795370937,-0.984375,0.171875,-0.03125
1629795370968,-0.984375,0.171875,-0.03125
1629795371000,-0.984375,0.171875,-0.015625
1629795371031,-0.984375,0.171875,-0.03125
1629795371062,-0.984375,0.171875,-0.015625
1629795371093,-0.984375,0.171875,-0.03125
1629795371125,-0.984375,0.171875,-0.03125
1629795371156,-0.984375,0.171875,-0.015625
1629795371187,-0.984375,0.171875,-0.015625
1629795371218,-0.984375,0.171875,-0.03125
1629795371250,-0.984375,0.171875,-0.03125
1629795371281,-0.984375,0.171875,-0.03125
1629795371312,-0.984375,0.171875,-0.03125
1629795371343,-0.984375,0.171875,-0.03125
1629795371375,-0.984375,0.171875,-0.03125
1629795371406,-0.984375,0.171875,-0.015625
1629795371437,-0.984375,0.171875,-0.03125
1629795371468,-0.984375,0.171875,-0.03125
1629795371500,-0.984375,0.171875,-0.03125
1629795371531,-0.984375,0.171875,-0.03125
1629795371562,-0.984375,0.171875,-0.03125
1629795371593,-0.984375,0.171875,-0.015625
1629795371625,-0.984375,0.171875,-0.03125
1629795371656,-0.984375,0.171875,-0.03125
1629795371687,-0.984375,0.171875,-0.03125
1629795371718,-0.984375,0.171875,-0.03125
1629795371750,-0.984375,0.171875,-0.03125
1629795371781,-0.984375,0.171875,-0.03125
1629795371812,-0.984375,0.171875,-0.03125
1629795371843,-0.984375,0.171875,-0.03125
1629795371875,-0.984375,0.171875,-0.03125
1629795371906,-0.984375,0.171875,-0.03125
1629795371937,-0.984375,0.171875,-0.03125
1629795371968,-0.984375,0.171875,-0.03125
1629795372000,-0.984375,0.171875,-0.03125
1629795372031,-0.984375,0.171875,-0.03125
1629795372062,-0.984375,0.171875,-0.03125
1629795372093,-0.984375,0.171875,-0.03125
1629795372125,-0.984375,0.171875,-0.03125
1629795372156,-0.984375,0.171875,-0.03125
1629795372187,-0.984375,0.171875,-0.03125
1629795372218,-0.984375,0.171875,-0.03125
1629795372250,-0.984375,0.171875,-0.03125
1629795372281,-0.984375,0.171875,-0.015625
1629795372312,-0.984375,0.171875,-0.03125
1629795372343,-0.984375,0.171875,-0.03125
1629795372375,-1.0,0.171875,-0.03125
1629795372406,-1.0,0.171875,-0.03125
1629795372437,-0.984375,0.15625,-0.03125
1629795372468,-0.984375,0.171875,-0.03125
1629795372500,-0.984375,0.171875,-0.03125
1629795372531,-0.984375,0.171875,-0.03125
1629795372562,-0.984375,0.171875,-0.03125
1629795372593,-0.984375,0.171875,-0.046875
1629795372625,-0.984375,0.15625,-0.03125
1629795372656,-0.984375,0.171875,-0.03125
1629795372687,-0.984375,0.171875,-0.03125
1629795372718,-0.984375,0.171875,-0.03125
1629795372750,-0.984375,0.171875,-0.03125
1629795372781,-0.984375,0.15625,-0.03125
1629795372812,-0.984375,0.171875,-0.03125
1629795372843,-0.984375,0.171875,-0.03125
1629795372875,-0.984375,0.171875,-0.03125
1629795372906,-0.984375,0.171875,-0.03125
1629795372937,-0.984375,0.171875,-0.03125
1629795372968,-0.984375,0.171875,-0.03125
1629795373000,-0.984375,0.171875,-0.03125
1629795373031,-0.984375,0.15625,-0.03125
1629795373062,-1.0,0.171875,-0.03125
1629795373093,-0.984375,0.171875,-0.03125
1629795373125,-0.984375,0.171875,-0.03125
1629795373156,-0.984375,0.15625,-0.03125
1629795373187,-0.984375,0.171875,-0.03125
1629795373218,-0.984375,0.171875,-0.03125
1629795373250,-0.984375,0.171875,-0.03125
1629795373281,-0.984375,0.171875,-0.03125
1629795373312,-0.984375,0.171875,-0.03125
1629795373343,-0.984375,0.171875,-0.03125
1629795373375,-0.984375,0.171875,-0.03125
1629795373406,-0.984375,0.171875,-0.03125
1629795373437,-0.984375,0.171875,-0.03125
1629795373468,-0.984375,0.171875,-0.03125
1629795373500,-0.984375,0.171875,-0.03125
1629795373531,-0.984375,0.171875,-0.03125
1629795373562,-0.984375,0.171875,-0.03125
1629795373593,-0.984375,0.15625,-0.03125
1629795373625,-0.984375,0.171875,-0.03125
1629795373656,-0.984375,0.171875,-0.03125
1629795373687,-0.984375,0.171875,-0.03125
1629795373718,-0.984375,0.171875,-0.03125
1629795373750,-0.984375,0.15625,-0.03125
1629795373781,-0.984375,0.15625,-0.03125
1629795373812,-0.984375,0.171875,-0.03125
1629795373843,-0.984375,0.15625,-0.03125
1629795373875,-0.984375,0.171875,-0.03125
1629795373906,-0.984375,0.171875,-0.03125
1629795373937,-0.984375,0.171875,-0.03125
1629795373968,-0.984375,0.15625,-0.03125
1629795374000,-0.984375,0.15625,-0.03125
1629795374031,-0.984375,0.171875,-0.03125
1629795374062,-0.984375,0.15625,-0.03125
1629795374093,-0.984375,0.15625,-0.03125
1629795374125,-0.984375,0.171875,-0.03125
1629795374156,-0.984375,0.15625,-0.03125
1629795374187,-0.984375,0.15625,-0.03125
1629795374218,-0.984375,0.171875,-0.03125
1629795374250,-0.984375,0.171875,-0.03125
1629795374281,-0.984375,0.171875,-0.03125
1629795374312,-0.984375,0.171875,-0.03125
1629795374343,-0.984375,0.15625,-0.03125
1629795374375,-0.984375,0.171875,-0.03125
1629795374406,-0.984375,0.171875,-0.03125
1629795374437,-0.984375,0.171875,-0.03125
1629795374468,-0.984375,0.171875,-0.03125
1629795374500,-0.984375,0.171875,-0.03125
1629795374531,-0.984375,0.15625,-0.03125
1629795374562,-0.984375,0.171875,-0.03125
1629795374593,-0.984375,0.171875,-0.03125
1629795374625,-0.984375,0.171875,-0.03125
1629795374656,-1.0,0.171875,-0.03125
1629795374687,-0.984375,0.171875,-0.03125
1629795374718,-0.984375,0.15625,-0.03125
1629795374750,-0.984375,0.15625,-0.03125
1629795374781,-0.984375,0.171875,-0.03125
1629795374812,-0.984375,0.15625,-0.03125
1629795374843,-0.984375,0.171875,-0.03125
1629795374875,-0.984375,0.15625,-0.015625
1629795374906,-0.96875,0.171875,-0.015625
1629795374937,-0.984375,0.171875,-0.03125
1629795374968,-1.0,0.15625,-0.015625
1629795375000,-0.984375,0.171875,-0.03125
1629795375031,-0.984375,0.171875,-0.03125
1629795375062,-0.984375,0.15625,-0.03125
1629795375093,-0.984375,0.15625,-0.03125
1629795375125,-0.984375,0.15625,-0.03125
1629795375156,-0.984375,0.171875,-0.03125
1629795375187,-1.0,0.171875,-0.03125
1629795375218,-1.0,0.171875,-0.015625
1629795375250,-0.984375,0.171875,-0.015625
1629795375281,-0.984375,0.171875,-0.03125
1629795375312,-0.984375,0.171875,-0.03125
1629795375343,-0.984375,0.171875,-0.03125
1629795375375,-0.984375,0.1875,-0.03125
1629795375406,-0.984375,0.171875,-0.015625
1629795375437,-0.984375,0.1875,-0.03125
1629795375468,-0.984375,0.1875,-0.03125
1629795375500,-0.984375,0.171875,-0.03125
1629795375531,-0.984375,0.171875,-0.03125
1629795375562,-0.984375,0.15625,-0.03125
1629795375593,-0.984375,0.15625,-0.015625
1629795375625,-1.0,0.171875,-0.03125
1629795375656,-0.984375,0.1875,-0.03125
1629795375687,-0.984375,0.1875,-0.015625
1629795375718,-0.984375,0.1875,-0.015625
1629795375750,-0.984375,0.1875,-0.015625
1629795375781,-0.984375,0.1875,-0.015625
1629795375812,-0.984375,0.1875,-0.015625
1629795375843,-0.984375,0.171875,-0.03125
1629795375875,-0.984375,0.171875,-0.03125
1629795375906,-0.984375,0.171875,-0.03125
1629795375937,-1.0,0.171875,-0.03125
1629795375968,-0.984375,0.15625,-0.03125
1629795376000,-1.0,0.171875,-0.015625
1629795376031,-0.984375,0.171875,-0.03125
1629795376062,-1.0,0.171875,-0.015625
1629795376093,-0.984375,0.203125,0.03125
1629795376125,-0.984375,0.140625,-0.046875
1629795376156,-0.953125,0.15625,-0.03125
1629795376187,-0.96875,0.203125,0.0
1629795376218,-0.953125,0.171875,0.0
1629795376250,-0.984375,0.171875,0.0
1629795376281,-0.984375,0.15625,-0.03125
1629795376312,-1.015625,0.171875,-0.015625
1629795376343,-1.015625,0.171875,-0.015625
1629795376375,-0.96875,0.15625,-0.015625
1629795376406,-0.96875,0.15625,-0.03125
1629795376437,-0.96875,0.171875,-0.015625
1629795376468,-0.984375,0.1875,-0.015625
1629795376500,-0.984375,0.1875,-0.015625
1629795376531,-1.015625,0.203125,-0.03125
1629795376562,-1.0,0.203125,-0.03125
1629795376593,-0.984375,0.171875,-0.03125
1629795376625,-1.0,0.1875,-0.03125
1629795376656,-0.984375,0.171875,-0.03125
1629795376687,-0.96875,0.1875,-0.015625
1629795376718,-0.984375,0.171875,-0.03125
1629795376750,-0.984375,0.171875,-0.015625
1629795376781,-1.0,0.171875,-0.03125
1629795376812,-1.015625,0.171875,-0.03125
1629795376843,-0.984375,0.140625,-0.03125
1629795376875,-0.984375,0.15625,-0.03125
1629795376906,-0.984375,0.1875,-0.03125
1629795376937,-0.96875,0.203125,-0.03125
1629795376968,-0.96875,0.1875,-0.015625
1629795377000,-1.0,0.1875,-0.015625
1629795377031,-1.0,0.1875,-0.03125
1629795377062,-1.0,0.171875,-0.03125
1629795377093,-0.984375,0.1875,-0.03125
1629795377125,-0.96875,0.1875,-0.015625
1629795377156,-1.0,0.1875,-0.03125
1629795377187,-0.984375,0.1875,0.0
1629795377218,-0.984375,0.203125,-0.015625
1629795377250,-0.984375,0.203125,-0.015625
1629795377281,-0.984375,0.1875,-0.015625
1629795377312,-0.984375,0.1875,0.0
1629795377343,-0.96875,0.203125,-0.015625
1629795377375,-0.984375,0.1875,-0.015625
1629795377406,-0.984375,0.1875,-0.015625
1629795377437,-0.984375,0.1875,-0.015625
1629795377468,-0.984375,0.15625,-0.015625
1629795377500,-0.96875,0.15625,-0.015625
1629795377531,-0.96875,0.171875,-0.015625
1629795377562,-0.984375,0.1875,0.0
1629795377593,-0.984375,0.1875,0.0
1629795377625,-0.953125,0.1875,-0.03125
1629795377656,-1.015625,0.1875,-0.03125
1629795377687,-1.0,0.1875,-0.03125
1629795377718,-0.984375,0.1875,-0.03125
1629795377750,-0.984375,0.1875,-0.03125
1629795377781,-1.0,0.1875,-0.03125
1629795377812,-0.96875,0.203125,-0.015625
1629795377843,-0.953125,0.1875,0.0
1629795377875,-0.984375,0.171875,-0.015625
1629795377906,-0.984375,0.1875,-0.015625
1629795377937,-1.0,0.1875,-0.015625
1629795377968,-0.984375,0.1875,-0.015625
1629795378000,-0.96875,0.1875,-0.015625
1629795378031,-0.96875,0.203125,0.0
1629795378062,-1.0,0.1875,-0.03125
1629795378093,-0.984375,0.171875,-0.015625
1629795378125,-0.984375,0.171875,-0.03125
1629795378156,-1.0,0.1875,-0.015625
1629795378187,-0.984375,0.1875,-0.015625
1629795378218,-0.984375,0.171875,-0.015625
1629795378250,-1.0,0.171875,-0.015625
1629795378281,-0.984375,0.15625,-0.03125
1629795378312,-1.0,0.15625,-0.046875
1629795378343,-0.984375,0.1875,-0.03125
1629795378375,-0.96875,0.1875,-0.03125
1629795378406,-0.96875,0.171875,-0.015625
1629795378437,-0.984375,0.171875,-0.015625
1629795378468,-1.0,0.171875,-0.015625
1629795378500,-1.0,0.203125,-0.03125
1629795378531,-0.984375,0.1875,-0.03125
1629795378562,-0.984375,0.171875,-0.03125
1629795378593,-0.984375,0.171875,-0.015625
1629795378625,-0.96875,0.171875,0.0
1629795378656,-0.96875,0.171875,-0.015625
1629795378687,-0.984375,0.171875,-0.03125
1629795378718,-0.984375,0.171875,-0.03125
1629795378750,-0.96875,0.171875,-0.03125
1629795378781,-0.984375,0.1875,-0.03125
1629795378812,-0.96875,0.171875,-0.015625
1629795378843,-1.0,0.15625,-0.03125
1629795378875,-1.0,0.15625,-0.03125
1629795378906,-1.0,0.171875,-0.015625
1629795378937,-1.0,0.1875,-0.015625
1629795378968,-0.96875,0.1875,-0.015625
1629795379000,-0.953125,0.1875,0.0
1629795379031,-0.96875,0.1875,-0.015625
1629795379062,-0.984375,0.1875,-0.015625
1629795379093,-0.984375,0.1875,-0.03125
1629795379125,-0.984375,0.171875,-0.03125
1629795379156,-1.0,0.203125,-0.046875
1629795379187,-1.0,0.203125,-0.046875
1629795379218,-0.984375,0.203125,-0.03125
1629795379250,-0.96875,0.1875,-0.015625
1629795379281,-0.96875,0.1875,-0.015625
1629795379312,-0.984375,0.1875,0.0
1629795379343,-0.984375,0.171875,-0.015625
1629795379375,-0.984375,0.171875,-0.03125
1629795379406,-1.0,0.1875,-0.03125
1629795379437,-0.984375,0.1875,-0.03125
1629795379468,-0.984375,0.1875,-0.03125
1629795379500,-0.984375,0.1875,-0.03125
1629795379531,-0.984375,0.1875,-0.03125
1629795379562,-0.984375,0.1875,-0.03125
1629795379593,-0.984375,0.1875,-0.03125
1629795379625,-0.984375,0.203125,-0.03125
1629795379656,-1.0,0.1875,-0.046875
1629795379687,-1.0,0.171875,-0.03125
1629795379718,-0.96875,0.15625,-0.03125
1629795379750,-0.96875,0.171875,-0.015625
1629795379781,-1.0,0.1875,-0.03125
1629795379812,-0.984375,0.1875,0.0
1629795379843,-0.984375,0.171875,-0.015625
1629795379875,-0.984375,0.171875,-0.03125
1629795379906,-0.984375,0.171875,-0.03125
1629795379937,-0.984375,0.1875,-0.015625
1629795379968,-0.984375,0.1875,-0.03125
1629795380000,-0.984375,0.1875,-0.03125
1629795380031,-0.96875,0.1875,-0.015625
1629795380062,-0.984375,0.171875,-0.03125
1629795380093,-0.984375,0.1875,-0.03125
1629795380125,-0.984375,0.1875,-0.03125
1629795380156,-0.984375,0.1875,-0.015625
1629795380187,-0.984375,0.1875,-0.015625
1629795380218,-0.984375,0.1875,-0.015625
1629795380250,-0.984375,0.171875,-0.015625
1629795380281,-1.0,0.171875,-0.03125
1629795380312,-0.984375,0.171875,-0.015625
1629795380343,-0.984375,0.171875,-0.03125
1629795380375,-0.984375,0.171875,-0.03125
1629795380406,-0.984375,0.171875,-0.015625
1629795380437,-0.984375,0.1875,-0.03125
1629795380468,-0.984375,0.1875,-0.03125
1629795380500,-0.984375,0.1875,-0.03125
1629795380531,-0.984375,0.171875,-0.015625
1629795380562,-0.984375,0.1875,-0.015625
1629795380593,-0.984375,0.171875,-0.03125
1629795380625,-0.984375,0.171875,-0.015625
1629795380656,-0.984375,0.171875,-0.015625
1629795380687,-0.984375,0.171875,-0.015625
1629795380718,-0.984375,0.171875,-0.015625
1629795380750,-0.984375,0.171875,-0.015625
1629795380781,-0.984375,0.1875,-0.015625
1629795380812,-0.984375,0.171875,-0.03125
1629795380843,-0.984375,0.171875,-0.03125
1629795380875,-0.984375,0.171875,-0.03125
1629795380906,-0.953125,0.171875,0.0
1629795380937,-0.984375,0.171875,-0.046875
1629795380968,-0.984375,0.15625,-0.0625
1629795381000,-1.0,0.15625,-0.046875
1629795381031,-0.984375,0.15625,-0.03125
1629795381062,-0.984375,0.15625,-0.046875
1629795381093,-0.984375,0.15625,-0.046875
1629795381125,-1.0,0.15625,-0.046875
1629795381156,-1.0,0.15625,-0.046875
1629795381187,-0.984375,0.171875,-0.046875
1629795381218,-0.984375,0.15625,-0.03125
1629795381250,-0.984375,0.15625,-0.03125
1629795381281,-0.984375,0.15625,-0.03125
1629795381312,-0.984375,0.171875,-0.03125
1629795381343,-0.984375,0.171875,-0.03125
1629795381375,-0.984375,0.171875,-0.03125
1629795381406,-0.984375,0.15625,-0.03125
1629795381437,-0.984375,0.171875,-0.015625
1629795381468,-0.984375,0.15625,-0.03125
1629795381500,-0.984375,0.171875,-0.03125
1629795381531,-0.984375,0.15625,-0.03125
1629795381562,-0.984375,0.15625,-0.03125
1629795381593,-0.984375,0.15625,-0.03125
1629795381625,-0.984375,0.171875,-0.03125
1629795381656,-0.984375,0.15625,-0.03125
1629795381687,-0.984375,0.15625,-0.03125
1629795381718,-0.984375,0.15625,-0.03125
1629795381750,-0.984375,0.15625,-0.03125
1629795381781,-0.984375,0.15625,-0.03125
1629795381812,-0.984375,0.15625,-0.03125
1629795381843,-1.0,0.15625,-0.03125
1629795381875,-0.984375,0.15625,-0.046875
1629795381906,-0.984375,0.15625,-0.03125
1629795381937,-1.0,0.15625,-0.046875
1629795381968,-0.984375,0.15625,-0.046875
1629795382000,-0.984375,0.15625,-0.046875
1629795382031,-0.984375,0.15625,-0.03125
1629795382062,-1.0,0.15625,-0.03125
1629795382093,-0.984375,0.15625,-0.03125
1629795382125,-0.984375,0.15625,-0.03125
1629795382156,-0.984375,0.15625,-0.046875
1629795382187,-0.984375,0.15625,-0.03125
1629795382218,-0.984375,0.15625,-0.03125
1629795382250,-0.984375,0.15625,-0.03125
1629795382281,-0.984375,0.15625,-0.03125
1629795382312,-1.0,0.15625,-0.046875
1629795382343,-0.984375,0.15625,-0.03125
1629795382375,-0.984375,0.15625,-0.03125
1629795382406,-1.0,0.15625,-0.046875
1629795382437,-1.0,0.15625,-0.03125
1629795382468,-0.9375,0.09375,-0.046875
1629795382500,-1.0,0.09375,-0.109375
1629795382531,-1.0,0.15625,-0.046875
1629795382562,-0.984375,0.15625,-0.03125
1629795382593,-0.984375,0.15625,-0.046875
1629795382625,-0.984375,0.15625,-0.03125
1629795382656,-0.984375,0.15625,-0.046875
1629795382687,-0.984375,0.15625,-0.03125
1629795382718,-0.984375,0.171875,-0.03125
1629795382750,-0.984375,0.15625,-0.03125
1629795382781,-0.984375,0.15625,-0.03125
1629795382812,-1.0,0.15625,-0.03125
1629795382843,-0.984375,0.171875,-0.03125
1629795382875,-0.984375,0.15625,-0.03125
1629795382906,-0.984375,0.171875,-0.03125
1629795382937,-0.984375,0.171875,-0.015625
1629795382968,-0.984375,0.171875,-0.03125
1629795383000,-0.984375,0.171875,-0.015625
1629795383031,-0.984375,0.171875,-0.015625
1629795383062,-0.984375,0.171875,-0.015625
1629795383093,-0.984375,0.171875,-0.015625
1629795383125,-0.984375,0.171875,-0.015625
1629795383156,-0.984375,0.15625,-0.03125
1629795383187,-0.984375,0.171875,-0.015625
1629795383218,-0.984375,0.15625,-0.015625
1629795383250,-0.984375,0.15625,-0.015625
1629795383281,-0.984375,0.171875,-0.015625
1629795383312,-0.984375,0.171875,-0.015625
1629795383343,-1.0,0.171875,-0.03125
1629795383375,-0.984375,0.171875,-0.015625
1629795383406,-0.96875,0.171875,-0.015625
1629795383437,-0.984375,0.15625,-0.03125
1629795383468,-1.0,0.15625,-0.046875
1629795383500,-1.0,0.15625,-0.046875
1629795383531,-1.0,0.15625,-0.03125
1629795383562,-0.984375,0.171875,-0.03125
1629795383593,-0.984375,0.15625,-0.03125
1629795383625,-0.984375,0.15625,-0.03125
1629795383656,-0.984375,0.15625,-0.03125
1629795383687,-0.984375,0.171875,-0.015625
1629795383718,-0.984375,0.171875,-0.03125
1629795383750,-0.984375,0.171875,-0.03125
1629795383781,-0.984375,0.171875,-0.015625
1629795383812,-0.984375,0.15625,-0.03125
1629795383843,-0.984375,0.15625,-0.015625
1629795383875,-1.0,0.15625,-0.046875
1629795383906,-0.984375,0.15625,-0.03125
1629795383937,-0.984375,0.15625,-0.03125
1629795383968,-0.984375,0.15625,-0.03125
1629795384000,-0.984375,0.171875,-0.015625
1629795384031,-1.0,0.171875,-0.03125
1629795384062,-0.984375,0.15625,-0.03125
1629795384093,-0.984375,0.171875,-0.015625
1629795384125,-0.984375,0.171875,-0.03125
1629795384156,-0.984375,0.15625,-0.03125
1629795384187,-0.984375,0.171875,-0.03125
1629795384218,-1.0,0.15625,-0.03125
1629795384250,-0.984375,0.15625,-0.03125
1629795384281,-0.984375,0.15625,-0.015625
1629795384312,-0.984375,0.171875,-0.03125
1629795384343,-0.984375,0.15625,-0.03125
1629795384375,-1.0,0.15625,-0.03125
1629795384406,-0.984375,0.171875,-0.015625
1629795384437,-1.0,0.15625,-0.03125
1629795384468,-1.0,0.15625,-0.03125
1629795384500,-0.984375,0.15625,-0.03125
1629795384531,-0.984375,0.15625,-0.03125
1629795384562,-1.0,0.15625,-0.03125
1629795384593,-0.984375,0.15625,-0.03125
1629795384625,-0.984375,0.15625,-0.03125
1629795384656,-0.984375,0.15625,-0.03125
1629795384687,-0.984375,0.15625,-0.03125
1629795384718,-0.984375,0.171875,-0.03125
1629795384750,-0.984375,0.15625,-0.03125
1629795384781,-0.984375,0.15625,-0.03125
1629795384812,-0.984375,0.15625,-0.03125
1629795384843,-0.984375,0.15625,-0.03125
1629795384875,-0.984375,0.15625,-0.03125
1629795384906,-0.984375,0.15625,-0.03125
1629795384937,-0.984375,0.15625,-0.03125
1629795384968,-0.984375,0.15625,-0.03125
1629795385000,-0.984375,0.15625,-0.015625
1629795385031,-0.984375,0.15625,-0.03125
1629795385062,-0.984375,0.15625,-0.03125
1629795385093,-0.984375,0.15625,-0.03125
1629795385125,-0.984375,0.15625,-0.03125
1629795385156,-1.0,0.15625,-0.03125
1629795385187,-1.0,0.15625,-0.03125
1629795385218,-0.984375,0.15625,-0.015625
1629795385250,-0.984375,0.15625,-0.03125
1629795385281,-0.984375,0.15625,-0.03125
1629795385312,-0.984375,0.15625,-0.03125
1629795385343,-0.984375,0.15625,-0.015625
1629795385375,-0.984375,0.15625,-0.03125
1629795385406,-0.984375,0.15625,-0.03125
1629795385437,-1.0,0.15625,-0.03125
1629795385468,-0.984375,0.15625,-0.015625
1629795385500,-0.984375,0.15625,-0.015625
1629795385531,-0.984375,0.15625,-0.03125
1629795385562,-0.984375,0.15625,-0.015625
1629795385593,-0.984375,0.15625,-0.03125
1629795385625,-1.0,0.15625,-0.015625
1629795385656,-0.984375,0.15625,-0.03125
1629795385687,-0.984375,0.15625,-0.015625
1629795385718,-0.984375,0.15625,-0.03125
1629795385750,-0.984375,0.15625,-0.03125
1629795385781,-1.0,0.140625,-0.046875
1629795385812,-1.0,0.140625,-0.0625
1629795385843,-0.984375,0.15625,-0.03125
1629795385875,-0.984375,0.140625,-0.0625
1629795385906,-1.015625,0.140625,-0.078125
1629795385937,-1.0,0.140625,-0.0625
1629795385968,-0.984375,0.15625,-0.046875
1629795386000,-0.984375,0.140625,-0.0625
1629795386031,-1.0,0.140625,-0.0625
1629795386062,-0.984375,0.140625,-0.0625
1629795386093,-0.984375,0.140625,-0.078125
1629795386125,-0.984375,0.15625,-0.0625
1629795386156,-0.984375,0.140625,-0.0625
1629795386187,-0.984375,0.140625,-0.0625
1629795386218,-0.984375,0.140625,-0.0625
1629795386250,-0.984375,0.140625,-0.078125
1629795386281,-0.984375,0.140625,-0.0625
1629795386312,-0.984375,0.15625,-0.0625
1629795386343,-1.0,0.140625,-0.078125
1629795386375,-1.0,0.15625,-0.0625
1629795386406,-0.984375,0.140625,-0.0625
1629795386437,-0.984375,0.140625,-0.0625
1629795386468,-0.984375,0.140625,-0.078125
1629795386500,-0.984375,0.15625,-0.0625
1629795386531,-1.0,0.140625,-0.078125
1629795386562,-0.984375,0.140625,-0.078125
1629795386593,-0.984375,0.140625,-0.0625
1629795386625,-0.984375,0.140625,-0.078125
1629795386656,-0.984375,0.15625,-0.078125
1629795386687,-0.984375,0.15625,-0.078125
1629795386718,-0.984375,0.15625,-0.078125
1629795386750,-0.984375,0.15625,-0.0625
1629795386781,-0.984375,0.15625,-0.078125
1629795386812,-0.984375,0.15625,-0.078125
1629795386843,-0.984375,0.140625,-0.0625
1629795386875,-0.984375,0.140625,-0.078125
1629795386906,-0.984375,0.140625,-0.0625
1629795386937,-0.984375,0.140625,-0.078125
1629795386968,-0.984375,0.140625,-0.0625
1629795387000,-0.984375,0.140625,-0.078125
1629795387031,-0.984375,0.140625,-0.078125
1629795387062,-0.984375,0.140625,-0.078125
1629795387093,-0.984375,0.140625,-0.078125
1629795387125,-0.984375,0.15625,-0.078125
1629795387156,-0.984375,0.140625,-0.078125
1629795387187,-0.984375,0.15625,-0.078125
1629795387218,-0.984375,0.140625,-0.078125
1629795387250,-0.984375,0.140625,-0.078125
1629795387281,-0.984375,0.140625,-0.078125
1629795387312,-0.984375,0.140625,-0.078125
1629795387343,-0.984375,0.140625,-0.078125
1629795387375,-0.984375,0.15625,-0.078125
1629795387406,-0.984375,0.15625,-0.078125
1629795387437,-0.984375,0.15625,-0.078125
1629795387468,-0.984375,0.140625,-0.09375
1629795387500,-0.984375,0.15625,-0.078125
1629795387531,-1.0,0.140625,-0.078125
1629795387562,-0.984375,0.140625,-0.09375
1629795387593,-0.984375,0.15625,-0.078125
1629795387625,-1.0,0.140625,-0.109375
1629795387656,-0.984375,0.140625,-0.09375
1629795387687,-0.984375,0.15625,-0.0625
1629795387718,-0.984375,0.140625,-0.078125
1629795387750,-0.984375,0.15625,-0.0625
1629795387781,-0.984375,0.15625,-0.046875
1629795387812,-0.984375,0.15625,-0.0625
1629795387843,-1.0,0.140625,-0.078125
1629795387875,-0.984375,0.15625,-0.0625
1629795387906,-0.984375,0.15625,-0.078125
1629795387937,-0.984375,0.140625,-0.078125
1629795387968,-0.984375,0.140625,-0.0625
1629795388000,-1.0,0.140625,-0.078125
1629795388031,-0.984375,0.15625,-0.078125
1629795388062,-0.984375,0.15625,-0.078125
1629795388093,-0.984375,0.140625,-0.078125
1629795388125,-0.984375,0.140625,-0.078125
1629795388156,-0.984375,0.15625,-0.078125
1629795388187,-0.984375,0.15625,-0.046875
1629795388218,-1.0,0.140625,-0.09375
1629795388250,-0.984375,0.15625,-0.0625
1629795388281,-0.96875,0.15625,-0.03125
1629795388312,-0.984375,0.140625,-0.046875
1629795388343,-0.984375,0.140625,-0.0625
1629795388375,-0.984375,0.15625,-0.046875
1629795388406,-0.984375,0.15625,-0.046875
1629795388437,-0.984375,0.15625,-0.0625
1629795388468,-0.984375,0.15625,-0.0625
1629795388500,-0.984375,0.15625,-0.046875
1629795388531,-0.984375,0.15625,-0.046875
1629795388562,-0.984375,0.15625,-0.046875
1629795388593,-0.984375,0.15625,-0.046875
1629795388625,-0.984375,0.15625,-0.046875
1629795388656,-0.984375,0.15625,-0.046875
1629795388687,-0.984375,0.15625,-0.046875
1629795388718,-0.984375,0.15625,-0.046875
1629795388750,-0.984375,0.15625,-0.046875
1629795388781,-0.984375,0.15625,-0.046875
1629795388812,-0.984375,0.15625,-0.046875
1629795388843,-0.984375,0.15625,-0.046875
1629795388875,-0.96875,0.15625,-0.03125
1629795388906,-1.0,0.15625,-0.0625
1629795388937,-1.015625,0.15625,-0.0625
1629795388968,-0.984375,0.171875,-0.03125
1629795389000,-1.015625,0.171875,-0.0625
1629795389031,-1.015625,0.15625,-0.09375
1629795389062,-1.0,0.140625,-0.0625
1629795389093,-1.0,0.125,-0.0625
1629795389125,-0.953125,0.140625,-0.03125
1629795389156,-1.0,0.140625,-0.078125
1629795389187,-1.0,0.125,-0.078125
1629795389218,-1.0,0.125,-0.078125
1629795389250,-1.0,0.125,-0.078125
1629795389281,-1.0,0.125,-0.09375
1629795389312,-1.0,0.125,-0.09375
1629795389343,-0.984375,0.125,-0.078125
1629795389375,-0.984375,0.125,-0.078125
1629795389406,-1.0,0.140625,-0.0625
1629795389437,-0.984375,0.125,-0.078125
1629795389468,-1.0,0.140625,-0.078125
1629795389500,-0.984375,0.140625,-0.078125
1629795389531,-0.984375,0.140625,-0.0625
1629795389562,-1.0,0.140625,-0.078125
1629795389593,-0.984375,0.125,-0.078125
1629795389625,-1.0,0.140625,-0.0625
1629795389656,-0.984375,0.140625,-0.0625
1629795389687,-0.984375,0.125,-0.078125
1629795389718,-0.984375,0.140625,-0.0625
1629795389750,-1.0,0.125,-0.09375
1629795389781,-1.0,0.125,-0.09375
1629795389812,-0.984375,0.125,-0.078125
1629795389843,-0.96875,0.125,-0.078125
1629795389875,-1.0,0.125,-0.109375
1629795389906,-1.0,0.125,-0.109375
1629795389937,-1.0,0.125,-0.078125
1629795389968,-0.984375,0.125,-0.09375
1629795390000,-0.984375,0.125,-0.078125
1629795390031,-1.0,0.140625,-0.09375
1629795390062,-1.0,0.140625,-0.09375
1629795390093,-0.984375,0.140625,-0.078125
1629795390125,-0.984375,0.140625,-0.0625
1629795390156,-0.984375,0.140625,-0.0625
1629795390187,-0.984375,0.140625,-0.0625
1629795390218,-0.984375,0.140625,-0.0625
1629795390250,-1.0,0.140625,-0.0625
1629795390281,-0.984375,0.140625,-0.0625
1629795390312,-0.984375,0.140625,-0.0625
1629795390343,-0.984375,0.140625,-0.0625
1629795390375,-0.984375,0.140625,-0.0625
1629795390406,-0.984375,0.140625,-0.0625
1629795390437,-0.984375,0.140625,-0.0625
1629795390468,-0.984375,0.140625,-0.0625
1629795390500,-0.984375,0.140625,-0.0625
1629795390531,-0.984375,0.140625,-0.0625
1629795390562,-0.984375,0.140625,-0.0625
1629795390593,-0.984375,0.140625,-0.078125
1629795390625,-0.984375,0.140625,-0.078125
1629795390656,-0.984375,0.140625,-0.078125
1629795390687,-0.984375,0.140625,-0.078125
1629795390718,-0.96875,0.140625,-0.078125
1629795390750,-0.953125,0.140625,-0.0625
1629795390781,-0.890625,0.15625,-0.03125
1629795390812,-0.984375,0.125,-0.125
1629795390843,-1.0,0.109375,-0.21875
1629795390875,-1.015625,0.109375,-0.296875
1629795390906,-0.96875,0.109375,-0.21875
1629795390937,-0.96875,0.109375,-0.234375
1629795390968,-0.984375,0.09375,-0.3125
1629795391000,-0.96875,0.09375,-0.296875
1629795391031,-0.96875,0.109375,-0.296875
1629795391062,-0.953125,0.109375,-0.28125
1629795391093,-0.96875,0.109375,-0.28125
1629795391125,-0.96875,0.109375,-0.296875
1629795391156,-0.96875,0.125,-0.265625
1629795391187,-0.9375,0.125,-0.21875
1629795391218,-0.96875,0.125,-0.25
1629795391250,-0.96875,0.125,-0.234375
1629795391281,-0.96875,0.109375,-0.25
1629795391312,-0.96875,0.109375,-0.25
1629795391343,-0.953125,0.125,-0.21875
1629795391375,-0.984375,0.125,-0.25
1629795391406,-0.984375,0.125,-0.234375
1629795391437,-0.96875,0.125,-0.203125
1629795391468,-0.984375,0.125,-0.21875
1629795391500,-0.984375,0.125,-0.21875
1629795391531,-1.015625,0.109375,-0.234375
1629795391562,-0.984375,0.125,-0.171875
1629795391593,-0.96875,0.15625,-0.078125
1629795391625,-0.96875,0.15625,-0.0625
1629795391656,-0.9375,0.15625,-0.046875
1629795391687,-0.984375,0.171875,-0.03125
1629795391718,-1.0,0.15625,-0.09375
1629795391750,-0.984375,0.15625,-0.078125
1629795391781,-0.984375,0.15625,-0.0625
1629795391812,-0.984375,0.171875,-0.0625
1629795391843,-0.984375,0.171875,-0.0625
1629795391875,-1.0,0.171875,-0.078125
1629795391906,-0.96875,0.15625,-0.0625
1629795391937,-0.984375,0.15625,-0.078125
1629795391968,-1.0,0.15625,-0.09375
1629795392000,-0.984375,0.15625,-0.078125
1629795392031,-0.984375,0.15625,-0.078125
1629795392062,-0.984375,0.15625,-0.078125
1629795392093,-0.984375,0.15625,-0.078125
1629795392125,-0.984375,0.15625,-0.0625
1629795392156,-0.984375,0.15625,-0.078125
1629795392187,-1.0,0.15625,-0.078125
1629795392218,-0.984375,0.15625,-0.078125
1629795392250,-1.0,0.15625,-0.0625
1629795392281,-1.0,0.15625,-0.078125
1629795392312,-0.984375,0.15625,-0.0625
1629795392343,-0.984375,0.15625,-0.0625
1629795392375,-0.984375,0.15625,-0.0625
1629795392406,-0.984375,0.171875,-0.046875
1629795392437,-0.984375,0.171875,-0.046875
1629795392468,-0.984375,0.15625,-0.078125
1629795392500,-0.984375,0.171875,-0.0625
1629795392531,-0.984375,0.15625,-0.0625
1629795392562,-0.984375,0.15625,-0.0625
1629795392593,-0.984375,0.171875,-0.0625
1629795392625,-0.984375,0.15625,-0.0625
1629795392656,-0.984375,0.171875,-0.046875
1629795392687,-1.0,0.15625,-0.078125
1629795392718,-0.984375,0.15625,-0.046875
1629795392750,-0.984375,0.15625,-0.046875
1629795392781,-0.96875,0.15625,-0.078125
1629795392812,-0.984375,0.15625,-0.0625
1629795392843,-0.984375,0.15625,-0.078125
1629795392875,-1.0,0.15625,-0.078125
1629795392906,-0.96875,0.15625,-0.0625
1629795392937,-0.984375,0.15625,-0.078125
1629795392968,-0.984375,0.15625,-0.078125
1629795393000,-0.984375,0.15625,-0.09375
1629795393031,-1.0,0.15625,-0.109375
1629795393062,-0.984375,0.15625,-0.109375
1629795393093,-0.984375,0.140625,-0.109375
1629795393125,-0.984375,0.140625,-0.109375
1629795393156,-0.984375,0.15625,-0.109375
1629795393187,-0.984375,0.140625,-0.109375
1629795393218,-0.984375,0.15625,-0.109375
1629795393250,-0.984375,0.15625,-0.109375
1629795393281,-0.984375,0.15625,-0.09375
1629795393312,-0.984375,0.140625,-0.109375
1629795393343,-0.984375,0.15625,-0.109375
1629795393375,-1.0,0.15625,-0.109375
1629795393406,-0.984375,0.15625,-0.109375
1629795393437,-0.96875,0.140625,-0.09375
1629795393468,-0.96875,0.140625,-0.09375
1629795393500,-0.984375,0.140625,-0.109375
1629795393531,-0.984375,0.140625,-0.109375
1629795393562,-0.984375,0.15625,-0.109375
1629795393593,-0.96875,0.15625,-0.09375
1629795393625,-0.984375,0.15625,-0.09375
1629795393656,-1.0,0.15625,-0.109375
1629795393687,-0.96875,0.15625,-0.078125
1629795393718,-0.96875,0.15625,-0.078125
1629795393750,-0.984375,0.15625,-0.09375
1629795393781,-0.984375,0.15625,-0.078125
1629795393812,-0.984375,0.15625,-0.078125
1629795393843,-0.984375,0.15625,-0.09375
1629795393875,-0.984375,0.15625,-0.09375
1629795393906,-0.984375,0.15625,-0.078125
1629795393937,-0.984375,0.15625,-0.09375
1629795393968,-0.984375,0.15625,-0.09375
1629795394000,-0.984375,0.15625,-0.09375
1629795394031,-0.984375,0.15625,-0.09375
1629795394062,-0.984375,0.15625,-0.078125
1629795394093,-0.984375,0.15625,-0.078125
1629795394125,-1.0,0.15625,-0.09375
1629795394156,-0.984375,0.15625,-0.09375
1629795394187,-0.984375,0.171875,-0.0625
1629795394218,-0.984375,0.140625,-0.078125
1629795394250,-0.984375,0.15625,-0.078125
1629795394281,-0.984375,0.15625,-0.078125
1629795394312,-0.984375,0.15625,-0.078125
1629795394343,-0.984375,0.15625,-0.078125
1629795394375,-0.984375,0.15625,-0.078125
1629795394406,-0.984375,0.15625,-0.09375
1629795394437,-0.984375,0.15625,-0.078125
1629795394468,-0.984375,0.15625,-0.078125
1629795394500,-0.984375,0.15625,-0.078125
1629795394531,-0.984375,0.15625,-0.078125
1629795394562,-0.984375,0.15625,-0.078125
1629795394593,-0.984375,0.15625,-0.078125
1629795394625,-0.984375,0.15625,-0.078125
1629795394656,-0.984375,0.15625,-0.078125
1629795394687,-0.984375,0.15625,-0.078125
1629795394718,-0.984375,0.15625,-0.0625
1629795394750,-0.984375,0.15625,-0.0625
1629795394781,-0.984375,0.15625,-0.0625
1629795394812,-0.984375,0.15625,-0.0625
1629795394843,-1.0,0.15625,-0.078125
1629795394875,-0.984375,0.15625,-0.078125
1629795394906,-0.984375,0.15625,-0.0625
1629795394937,-0.984375,0.15625,-0.0625
1629795394968,-0.984375,0.15625,-0.0625
1629795395000,-0.96875,0.15625,-0.046875
1629795395031,-1.015625,0.140625,-0.078125
1629795395062,-0.984375,0.140625,-0.078125
1629795395093,-0.984375,0.140625,-0.0625
1629795395125,-0.984375,0.140625,-0.0625
1629795395156,-0.984375,0.140625,-0.0625
1629795395187,-0.984375,0.140625,-0.0625
1629795395218,-0.984375,0.140625,-0.0625
1629795395250,-1.0,0.140625,-0.078125
1629795395281,-0.984375,0.140625,-0.0625
1629795395312,-0.984375,0.140625,-0.078125
1629795395343,-0.984375,0.140625,-0.078125
1629795395375,-0.984375,0.140625,-0.0625
1629795395406,-0.984375,0.140625,-0.0625
1629795395437,-1.0,0.140625,-0.078125
1629795395468,-0.984375,0.140625,-0.078125
1629795395500,-0.984375,0.140625,-0.078125
1629795395531,-0.984375,0.140625,-0.078125
1629795395562,-0.984375,0.140625,-0.078125
1629795395593,-1.0,0.140625,-0.09375
1629795395625,-1.0,0.140625,-0.09375
1629795395656,-0.984375,0.125,-0.078125
1629795395687,-1.0,0.140625,-0.078125
1629795395718,-0.984375,0.140625,-0.078125
1629795395750,-1.0,0.140625,-0.078125
1629795395781,-0.984375,0.140625,-0.078125
1629795395812,-0.984375,0.125,-0.078125
1629795395843,-0.984375,0.125,-0.078125
1629795395875,-1.0,0.140625,-0.078125
1629795395906,-0.96875,0.140625,-0.0625
1629795395937,-1.0,0.140625,-0.078125
1629795395968,-0.984375,0.140625,-0.078125
1629795396000,-0.984375,0.140625,-0.078125
1629795396031,-0.984375,0.125,-0.078125
1629795396062,-0.984375,0.140625,-0.078125
1629795396093,-0.984375,0.140625,-0.078125
1629795396125,-0.984375,0.140625,-0.078125
1629795396156,-0.984375,0.140625,-0.078125
1629795396187,-0.984375,0.140625,-0.078125
1629795396218,-0.984375,0.140625,-0.078125
1629795396250,-0.984375,0.140625,-0.078125
1629795396281,-1.0,0.140625,-0.078125
1629795396312,-0.984375,0.140625,-0.078125
1629795396343,-0.984375,0.140625,-0.078125
1629795396375,-0.984375,0.140625,-0.078125
1629795396406,-0.984375,0.140625,-0.078125
1629795396437,-0.984375,0.140625,-0.078125
1629795396468,-1.0,0.140625,-0.078125
1629795396500,-1.0,0.140625,-0.078125
1629795396531,-0.984375,0.125,-0.078125
1629795396562,-0.984375,0.140625,-0.078125
1629795396593,-1.0,0.140625,-0.078125
1629795396625,-0.984375,0.140625,-0.078125
1629795396656,-0.984375,0.140625,-0.078125
1629795396687,-0.984375,0.125,-0.078125
1629795396718,-0.984375,0.140625,-0.078125
1629795396750,-0.984375,0.140625,-0.078125
1629795396781,-0.984375,0.140625,-0.078125
1629795396812,-0.984375,0.140625,-0.078125
1629795396843,-0.984375,0.140625,-0.078125
1629795396875,-0.984375,0.140625,-0.078125
1629795396906,-0.984375,0.125,-0.078125
1629795396937,-0.984375,0.125,-0.078125
1629795396968,-0.984375,0.140625,-0.078125
1629795397000,-0.984375,0.140625,-0.078125
1629795397031,-0.984375,0.140625,-0.078125
1629795397062,-0.984375,0.125,-0.078125
1629795397093,-0.984375,0.140625,-0.078125
1629795397125,-0.984375,0.140625,-0.078125
1629795397156,-1.0,0.140625,-0.078125
1629795397187,-1.0,0.140625,-0.09375
1629795397218,-1.0,0.140625,-0.09375
1629795397250,-0.984375,0.140625,-0.046875
1629795397281,-0.984375,0.140625,-0.078125
1629795397312,-1.0,0.140625,-0.0625
1629795397343,-0.984375,0.140625,-0.0625
1629795397375,-0.984375,0.15625,-0.03125
1629795397406,-0.96875,0.15625,-0.03125
1629795397437,-1.015625,0.15625,-0.0625
1629795397468,-0.96875,0.15625,-0.03125
1629795397500,-0.984375,0.15625,-0.046875
1629795397531,-0.984375,0.140625,-0.0625
1629795397562,-0.984375,0.140625,-0.046875
1629795397593,-0.984375,0.140625,-0.046875
1629795397625,-0.984375,0.140625,-0.046875
1629795397656,-1.0,0.140625,-0.0625
1629795397687,-0.984375,0.140625,-0.046875
1629795397718,-1.0,0.140625,-0.0625
1629795397750,-0.984375,0.140625,-0.046875
1629795397781,-0.96875,0.140625,-0.046875
1629795397812,-0.984375,0.140625,-0.0625
1629795397843,-0.984375,0.140625,-0.0625
1629795397875,-0.984375,0.140625,-0.0625
1629795397906,-0.984375,0.15625,-0.0625
1629795397937,-0.984375,0.140625,-0.078125
1629795397968,-0.984375,0.140625,-0.0625
1629795398000,-0.984375,0.140625,-0.0625
1629795398031,-0.984375,0.140625,-0.0625
1629795398062,-0.984375,0.140625,-0.078125
1629795398093,-0.984375,0.140625,-0.0625
1629795398125,-0.984375,0.140625,-0.0625
1629795398156,-0.984375,0.140625,-0.0625
1629795398187,-1.0,0.140625,-0.078125
1629795398218,-0.984375,0.15625,-0.0625
1629795398250,-0.984375,0.15625,-0.0625
1629795398281,-0.984375,0.15625,-0.0625
1629795398312,-0.984375,0.140625,-0.078125
1629795398343,-0.984375,0.15625,-0.0625
1629795398375,-0.984375,0.15625,-0.0625
1629795398406,-0.984375,0.140625,-0.0625
1629795398437,-0.984375,0.15625,-0.078125
1629795398468,-1.0,0.15625,-0.078125
1629795398500,-0.984375,0.15625,-0.078125
1629795398531,-0.984375,0.15625,-0.0625
1629795398562,-0.984375,0.140625,-0.0625
1629795398593,-0.984375,0.140625,-0.078125
1629795398625,-0.984375,0.15625,-0.078125
1629795398656,-0.984375,0.15625,-0.078125
1629795398687,-1.0,0.15625,-0.078125
1629795398718,-0.984375,0.140625,-0.078125
1629795398750,-0.984375,0.140625,-0.09375
1629795398781,-0.984375,0.15625,-0.0625
1629795398812,-0.984375,0.15625,-0.078125
1629795398843,-0.984375,0.15625,-0.078125
1629795398875,-0.984375,0.140625,-0.078125
1629795398906,-0.984375,0.15625,-0.09375
1629795398937,-0.984375,0.15625,-0.0625
1629795398968,-0.984375,0.140625,-0.09375
1629795399000,-0.984375,0.140625,-0.09375
1629795399031,-0.984375,0.15625,-0.078125
1629795399062,-0.984375,0.15625,-0.078125
1629795399093,-0.984375,0.15625,-0.09375
1629795399125,-0.984375,0.15625,-0.078125
1629795399156,-0.984375,0.15625,-0.078125
1629795399187,-0.984375,0.15625,-0.078125
1629795399218,-0.984375,0.15625,-0.09375
1629795399250,-0.984375,0.15625,-0.09375
1629795399281,-0.984375,0.15625,-0.078125
1629795399312,-0.984375,0.15625,-0.078125
1629795399343,-0.984375,0.15625,-0.09375
1629795399375,-0.984375,0.15625,-0.09375
1629795399406,-0.984375,0.15625,-0.078125
1629795399437,-0.984375,0.15625,-0.09375
1629795399468,-0.984375,0.15625,-0.09375
1629795399500,-0.984375,0.15625,-0.09375
1629795399531,-0.984375,0.15625,-0.09375
1629795399562,-0.984375,0.15625,-0.078125
1629795399593,-0.984375,0.15625,-0.09375
1629795399625,-0.984375,0.15625,-0.078125
1629795399656,-0.984375,0.15625,-0.09375
1629795399687,-0.984375,0.15625,-0.078125
1629795399718,-0.984375,0.15625,-0.09375
1629795399750,-0.984375,0.15625,-0.09375
1629795399781,-0.984375,0.15625,-0.09375
1629795399812,-0.984375,0.15625,-0.09375
1629795399843,-1.0,0.15625,-0.09375
1629795399875,-0.984375,0.15625,-0.09375
1629795399906,-0.984375,0.15625,-0.09375
1629795399937,-0.984375,0.15625,-0.09375
1629795399968,-0.984375,0.15625,-0.09375
1629795400000,-0.984375,0.15625,-0.09375
1629795400031,-0.984375,0.15625,-0.09375
1629795400062,-0.984375,0.15625,-0.09375
1629795400093,-0.984375,0.15625,-0.09375
1629795400125,-0.984375,0.15625,-0.09375
1629795400156,-0.96875,0.15625,-0.078125
1629795400187,-0.984375,0.15625,-0.078125
1629795400218,-0.984375,0.15625,-0.078125
1629795400250,-0.984375,0.15625,-0.09375
1629795400281,-0.984375,0.15625,-0.09375
1629795400312,-0.984375,0.15625,-0.09375
1629795400343,-0.984375,0.15625,-0.09375
1629795400375,-0.984375,0.15625,-0.078125
1629795400406,-0.984375,0.15625,-0.09375
1629795400437,-0.984375,0.15625,-0.09375
1629795400468,-0.984375,0.15625,-0.09375
1629795400500,-0.984375,0.15625,-0.09375
1629795400531,-0.984375,0.15625,-0.09375
1629795400562,-0.984375,0.15625,-0.078125
1629795400593,-0.984375,0.15625,-0.078125
1629795400625,-0.984375,0.15625,-0.078125
1629795400656,-0.96875,0.15625,-0.0625
1629795400687,-0.96875,0.15625,-0.0625
1629795400718,-1.0,0.15625,-0.0625
1629795400750,-0.984375,0.15625,-0.0625
1629795400781,-0.984375,0.15625,-0.0625
1629795400812,-0.984375,0.15625,-0.0625
1629795400843,-0.984375,0.15625,-0.0625
1629795400875,-0.984375,0.15625,-0.078125
1629795400906,-0.984375,0.15625,-0.078125
1629795400937,-0.984375,0.15625,-0.078125
1629795400968,-0.984375,0.15625,-0.078125
1629795401000,-0.984375,0.15625,-0.078125
1629795401031,-0.984375,0.15625,-0.078125
1629795401062,-0.984375,0.15625,-0.078125
1629795401093,-0.984375,0.15625,-0.078125
1629795401125,-0.984375,0.15625,-0.078125
1629795401156,-0.984375,0.15625,-0.078125
1629795401187,-0.984375,0.140625,-0.09375
1629795401218,-0.984375,0.15625,-0.078125
1629795401250,-0.984375,0.15625,-0.078125
1629795401281,-0.984375,0.15625,-0.078125
1629795401312,-0.984375,0.15625,-0.078125
1629795401343,-0.984375,0.15625,-0.078125
1629795401375,-0.984375,0.15625,-0.078125
1629795401406,-0.984375,0.140625,-0.09375
1629795401437,-0.984375,0.140625,-0.078125
1629795401468,-0.984375,0.15625,-0.09375
1629795401500,-0.984375,0.140625,-0.09375
1629795401531,-0.984375,0.140625,-0.09375
1629795401562,-1.0,0.140625,-0.09375
1629795401593,-0.984375,0.140625,-0.09375
1629795401625,-0.984375,0.140625,-0.09375
1629795401656,-1.0,0.140625,-0.109375
1629795401687,-0.96875,0.15625,-0.0625
1629795401718,-0.984375,0.140625,-0.109375
1629795401750,-0.984375,0.140625,-0.09375
1629795401781,-0.984375,0.15625,-0.078125
1629795401812,-0.984375,0.140625,-0.078125
1629795401843,-0.984375,0.140625,-0.078125
1629795401875,-0.984375,0.140625,-0.078125
1629795401906,-1.0,0.140625,-0.078125
1629795401937,-0.984375,0.140625,-0.078125
1629795401968,-0.984375,0.140625,-0.09375
1629795402000,-0.984375,0.140625,-0.09375
1629795402031,-1.0,0.140625,-0.109375
1629795402062,-1.0,0.140625,-0.078125
1629795402093,-1.0,0.15625,-0.0625
1629795402125,-0.953125,0.15625,-0.03125
1629795402156,-1.0,0.140625,-0.078125
1629795402187,-1.0,0.15625,-0.078125
1629795402218,-0.984375,0.15625,-0.046875
1629795402250,-1.0,0.140625,-0.078125
1629795402281,-0.984375,0.15625,-0.046875
1629795402312,-1.0,0.15625,-0.078125
1629795402343,-0.984375,0.15625,-0.078125
1629795402375,-0.953125,0.15625,-0.03125
1629795402406,-0.984375,0.15625,-0.046875
1629795402437,-0.984375,0.15625,-0.0625
1629795402468,-0.984375,0.15625,-0.078125
1629795402500,-1.0,0.171875,-0.0625
1629795402531,-1.0,0.15625,-0.078125
1629795402562,-1.0,0.15625,-0.078125
1629795402593,-0.984375,0.15625,-0.0625
1629795402625,-0.984375,0.15625,-0.078125
1629795402656,-0.984375,0.15625,-0.078125
1629795402687,-0.984375,0.15625,-0.0625
1629795402718,-0.984375,0.15625,-0.078125
1629795402750,-1.0,0.15625,-0.078125
1629795402781,-0.984375,0.15625,-0.0625
1629795402812,-0.984375,0.15625,-0.0625
1629795402843,-0.984375,0.15625,-0.046875
1629795402875,-0.984375,0.15625,-0.046875
1629795402906,-0.953125,0.171875,0.0
1629795402937,-1.015625,0.15625,-0.0625
1629795402968,-0.984375,0.15625,-0.046875
1629795403000,-1.0,0.15625,-0.046875
1629795403031,-0.984375,0.15625,-0.046875
1629795403062,-0.984375,0.171875,-0.046875
1629795403093,-0.984375,0.15625,-0.046875
1629795403125,-0.984375,0.171875,-0.046875
1629795403156,-0.984375,0.15625,-0.046875
1629795403187,-0.984375,0.15625,-0.0625
1629795403218,-0.984375,0.15625,-0.0625
1629795403250,-0.984375,0.15625,-0.046875
1629795403281,-1.0,0.15625,-0.0625
1629795403312,-0.984375,0.15625,-0.0625
1629795403343,-0.984375,0.15625,-0.0625
1629795403375,-0.984375,0.15625,-0.0625
1629795403406,-0.984375,0.15625,-0.046875
1629795403437,-0.984375,0.15625,-0.0625
1629795403468,-0.984375,0.15625,-0.0625
1629795403500,-0.984375,0.15625,-0.0625
1629795403531,-0.984375,0.15625,-0.046875
1629795403562,-0.984375,0.15625,-0.046875
1629795403593,-0.984375,0.15625,-0.0625
1629795403625,-0.984375,0.15625,-0.046875
1629795403656,-0.984375,0.171875,-0.0625
1629795403687,-0.96875,0.15625,-0.046875
1629795403718,-0.984375,0.15625,-0.078125
1629795403750,-1.015625,0.140625,-0.125
1629795403781,-1.015625,0.140625,-0.125
1629795403812,-0.984375,0.15625,-0.109375
1629795403843,-0.984375,0.15625,-0.09375
1629795403875,-0.984375,0.140625,-0.09375
1629795403906,-0.984375,0.140625,-0.078125
1629795403937,-0.984375,0.140625,-0.09375
1629795403968,-0.984375,0.15625,-0.078125
1629795404000,-0.984375,0.140625,-0.09375
1629795404031,-0.984375,0.15625,-0.09375
1629795404062,-0.984375,0.140625,-0.09375
1629795404093,-0.96875,0.15625,-0.078125
1629795404125,-0.984375,0.140625,-0.09375
1629795404156,-1.0,0.140625,-0.109375
1629795404187,-1.0,0.15625,-0.109375
1629795404218,-0.96875,0.15625,-0.078125
1629795404250,-0.984375,0.15625,-0.09375
1629795404281,-1.0,0.140625,-0.09375
1629795404312,-0.984375,0.15625,-0.078125
1629795404343,-0.984375,0.15625,-0.078125
1629795404375,-0.984375,0.15625,-0.078125
1629795404406,-0.984375,0.15625,-0.09375
1629795404437,-0.984375,0.140625,-0.09375
1629795404468,-0.984375,0.140625,-0.09375
1629795404500,-0.984375,0.140625,-0.09375
1629795404531,-0.984375,0.140625,-0.09375
1629795404562,-0.984375,0.15625,-0.09375
1629795404593,-0.984375,0.15625,-0.078125
1629795404625,-0.984375,0.15625,-0.078125
1629795404656,-0.984375,0.15625,-0.078125
1629795404687,-0.984375,0.15625,-0.0625
1629795404718,-0.96875,0.15625,-0.0625
1629795404750,-0.984375,0.15625,-0.078125
1629795404781,-0.984375,0.15625,-0.0625
1629795404812,-0.984375,0.15625,-0.078125
1629795404843,-0.984375,0.15625,-0.078125
1629795404875,-0.984375,0.15625,-0.078125
1629795404906,-0.984375,0.15625,-0.078125
1629795404937,-0.984375,0.15625,-0.078125
1629795404968,-0.984375,0.15625,-0.078125
1629795405000,-0.984375,0.15625,-0.078125
1629795405031,-1.046875,0.140625,-0.125
1629795405062,-0.9375,0.171875,-0.046875
1629795405093,-1.0,0.15625,-0.078125
1629795405125,-0.984375,0.140625,-0.09375
1629795405156,-1.125,0.0625,-0.25
1629795405187,-0.9375,0.328125,0.1875
1629795405218,-0.984375,0.125,-0.0625
1629795405250,-0.984375,0.15625,-0.046875
1629795405281,-1.0,0.171875,-0.046875
1629795405312,-0.96875,0.171875,-0.046875
1629795405343,-1.0,0.15625,-0.0625
1629795405375,-1.0,0.171875,-0.0625
1629795405406,-0.984375,0.15625,-0.078125
1629795405437,-0.984375,0.15625,-0.078125
1629795405468,-0.984375,0.140625,-0.078125
1629795405500,-0.984375,0.15625,-0.0625
1629795405531,-1.0,0.15625,-0.078125
1629795405562,-0.984375,0.15625,-0.078125
1629795405593,-0.984375,0.15625,-0.0625
1629795405625,-0.984375,0.15625,-0.0625
1629795405656,-0.984375,0.15625,-0.0625
1629795405687,-0.984375,0.171875,-0.046875
1629795405718,-0.984375,0.15625,-0.0625
1629795405750,-1.0,0.15625,-0.0625
1629795405781,-0.984375,0.15625,-0.046875
1629795405812,-0.984375,0.15625,-0.0625
1629795405843,-0.984375,0.15625,-0.0625
1629795405875,-0.984375,0.15625,-0.0625
1629795405906,-0.96875,0.15625,-0.0625
1629795405937,-0.984375,0.15625,-0.0625
1629795405968,-0.984375,0.140625,-0.0625
1629795406000,-0.9375,0.171875,-0.03125
1629795406031,-1.09375,0.21875,-0.0625
1629795406062,-0.96875,0.15625,-0.0625
1629795406093,-0.96875,0.171875,-0.046875
1629795406125,-0.96875,0.15625,-0.0625
1629795406156,-0.984375,0.1875,-0.046875
1629795406187,-1.0,0.171875,-0.0625
1629795406218,-0.984375,0.171875,-0.0625
1629795406250,-0.984375,0.171875,-0.0625
1629795406281,-0.984375,0.171875,-0.0625
1629795406312,-0.984375,0.171875,-0.046875
1629795406343,-0.984375,0.171875,-0.0625
1629795406375,-0.984375,0.171875,-0.0625
1629795406406,-0.984375,0.171875,-0.0625
1629795406437,-0.984375,0.171875,-0.0625
1629795406468,-0.984375,0.171875,-0.0625
1629795406500,-0.984375,0.171875,-0.0625
1629795406531,-0.984375,0.171875,-0.0625
1629795406562,-0.96875,0.171875,-0.0625
1629795406593,-0.984375,0.1875,-0.0625
1629795406625,-0.984375,0.1875,-0.078125
1629795406656,-0.984375,0.1875,-0.0625
1629795406687,-0.984375,0.1875,-0.0625
1629795406718,-0.984375,0.1875,-0.0625
1629795406750,-0.984375,0.1875,-0.0625
1629795406781,-0.984375,0.1875,-0.0625
1629795406812,-0.984375,0.1875,-0.0625
1629795406843,-0.96875,0.203125,-0.0625
1629795406875,-0.984375,0.1875,-0.0625
1629795406906,-0.984375,0.1875,-0.078125
1629795406937,-1.0,0.1875,-0.0625
1629795406968,-0.953125,0.21875,-0.03125
1629795407000,-0.96875,0.21875,-0.03125
1629795407031,-0.96875,0.203125,-0.03125
1629795407062,-0.96875,0.21875,-0.03125
1629795407093,-0.96875,0.203125,-0.046875
1629795407125,-0.984375,0.21875,-0.046875
1629795407156,-0.984375,0.21875,-0.03125
1629795407187,-0.96875,0.21875,-0.03125
1629795407218,-0.984375,0.21875,-0.046875
1629795407250,-0.984375,0.21875,-0.03125
1629795407281,-0.96875,0.21875,-0.03125
1629795407312,-0.984375,0.21875,-0.03125
1629795407343,-0.96875,0.21875,-0.03125
1629795407375,-0.984375,0.234375,-0.015625
1629795407406,-0.96875,0.21875,-0.015625
1629795407437,-0.96875,0.234375,-0.03125
1629795407468,-0.96875,0.234375,-0.046875
1629795407500,-0.96875,0.234375,-0.03125
1629795407531,-0.96875,0.234375,-0.03125
1629795407562,-0.96875,0.234375,-0.03125
1629795407593,-0.984375,0.21875,-0.046875
1629795407625,-0.96875,0.234375,-0.03125
1629795407656,-0.953125,0.234375,-0.03125
1629795407687,-0.96875,0.234375,-0.046875
1629795407718,-0.96875,0.234375,-0.03125
1629795407750,-0.96875,0.234375,-0.03125
1629795407781,-0.984375,0.234375,-0.0625
1629795407812,-1.0,0.21875,-0.0625
1629795407843,-0.96875,0.21875,-0.03125
1629795407875,-0.96875,0.21875,-0.03125
1629795407906,-0.984375,0.21875,-0.046875
1629795407937,-0.96875,0.21875,-0.046875
1629795407968,-0.96875,0.21875,-0.046875
1629795408000,-0.984375,0.21875,-0.046875
1629795408031,-0.96875,0.21875,-0.0625
1629795408062,-0.96875,0.21875,-0.046875
1629795408093,-0.96875,0.21875,-0.046875
1629795408125,-0.96875,0.21875,-0.046875
1629795408156,-0.96875,0.21875,-0.046875
1629795408187,-0.96875,0.21875,-0.0625
1629795408218,-0.96875,0.203125,-0.0625
1629795408250,-0.984375,0.21875,-0.0625
1629795408281,-0.96875,0.21875,-0.046875
1629795408312,-0.96875,0.21875,-0.046875
1629795408343,-0.96875,0.21875,-0.0625
1629795408375,-0.984375,0.203125,-0.0625
1629795408406,-0.984375,0.203125,-0.078125
1629795408437,-0.984375,0.203125,-0.078125
1629795408468,-0.984375,0.203125,-0.078125
1629795408500,-0.96875,0.21875,-0.078125
1629795408531,-0.96875,0.21875,-0.0625
1629795408562,-0.96875,0.21875,-0.0625
1629795408593,-0.984375,0.203125,-0.078125
1629795408625,-0.984375,0.203125,-0.078125
1629795408656,-0.96875,0.21875,-0.046875
1629795408687,-0.96875,0.203125,-0.078125
1629795408718,-0.984375,0.203125,-0.078125
1629795408750,-0.984375,0.1875,-0.078125
1629795408781,-0.984375,0.1875,-0.078125
1629795408812,-0.984375,0.1875,-0.078125
1629795408843,-0.984375,0.203125,-0.078125
1629795408875,-0.984375,0.203125,-0.078125
1629795408906,-0.984375,0.203125,-0.078125
1629795408937,-0.984375,0.203125,-0.078125
1629795408968,-0.96875,0.1875,-0.078125
1629795409000,-0.96875,0.1875,-0.078125
1629795409031,-0.984375,0.1875,-0.09375
1629795409062,-0.984375,0.1875,-0.078125
1629795409093,-0.96875,0.1875,-0.078125
1629795409125,-0.984375,0.1875,-0.078125
1629795409156,-0.984375,0.1875,-0.078125
1629795409187,-0.96875,0.1875,-0.078125
1629795409218,-0.984375,0.1875,-0.078125
1629795409250,-0.96875,0.203125,-0.078125
1629795409281,-0.984375,0.1875,-0.09375
1629795409312,-0.96875,0.203125,-0.0625
1629795409343,-0.984375,0.1875,-0.078125
1629795409375,-0.984375,0.203125,-0.078125
1629795409406,-0.984375,0.1875,-0.078125
1629795409437,-0.984375,0.1875,-0.078125
1629795409468,-0.984375,0.1875,-0.078125
1629795409500,-0.984375,0.1875,-0.078125
1629795409531,-0.96875,0.1875,-0.078125
1629795409562,-0.984375,0.1875,-0.078125
1629795409593,-0.984375,0.1875,-0.078125
1629795409625,-0.984375,0.203125,-0.078125
1629795409656,-0.96875,0.1875,-0.078125
1629795409687,-0.96875,0.1875,-0.078125
1629795409718,-0.984375,0.1875,-0.078125
1629795409750,-0.984375,0.1875,-0.078125
1629795409781,-0.984375,0.1875,-0.078125
1629795409812,-0.984375,0.1875,-0.078125
1629795409843,-0.984375,0.1875,-0.078125
1629795409875,-0.984375,0.1875,-0.078125
1629795409906,-0.984375,0.1875,-0.078125
1629795409937,-0.984375,0.1875,-0.078125
1629795409968,-0.984375,0.1875,-0.09375
1629795410000,-0.984375,0.1875,-0.078125
1629795410031,-0.984375,0.1875,-0.09375
1629795410062,-0.984375,0.1875,-0.078125
1629795410093,-0.984375,0.1875,-0.09375
1629795410125,-0.984375,0.1875,-0.09375
1629795410156,-0.984375,0.1875,-0.078125
1629795410187,-0.984375,0.1875,-0.078125
1629795410218,-0.984375,0.1875,-0.09375
1629795410250,-0.984375,0.1875,-0.078125
1629795410281,-0.953125,0.203125,-0.046875
1629795410312,-0.984375,0.1875,-0.09375
1629795410343,-0.984375,0.1875,-0.078125
1629795410375,-0.96875,0.203125,-0.046875
1629795410406,-0.96875,0.1875,-0.078125
1629795410437,-0.984375,0.203125,-0.0625
1629795410468,-0.984375,0.1875,-0.0625
1629795410500,-0.984375,0.1875,-0.078125
1629795410531,-0.953125,0.203125,-0.046875
1629795410562,-0.984375,0.203125,-0.046875
1629795410593,-0.96875,0.1875,-0.078125
1629795410625,-0.984375,0.1875,-0.078125
1629795410656,-0.984375,0.1875,-0.09375
1629795410687,-0.984375,0.1875,-0.078125
1629795410718,-0.984375,0.1875,-0.078125
1629795410750,-0.984375,0.1875,-0.078125
1629795410781,-0.984375,0.1875,-0.078125
1629795410812,-0.984375,0.1875,-0.0625
1629795410843,-0.984375,0.1875,-0.078125
1629795410875,-0.984375,0.1875,-0.078125
1629795410906,-0.984375,0.1875,-0.0625
1629795410937,-0.984375,0.1875,-0.078125
1629795410968,-0.984375,0.1875,-0.0625
1629795411000,-0.984375,0.1875,-0.0625
1629795411031,-0.984375,0.1875,-0.078125
1629795411062,-0.984375,0.1875,-0.078125
1629795411093,-0.96875,0.1875,-0.0625
1629795411125,-0.984375,0.1875,-0.0625
1629795411156,-0.984375,0.1875,-0.078125
1629795411187,-0.96875,0.1875,-0.078125
1629795411218,-0.984375,0.1875,-0.078125
1629795411250,-0.984375,0.1875,-0.078125
1629795411281,-0.984375,0.1875,-0.078125
1629795411312,-0.984375,0.1875,-0.078125
1629795411343,-0.984375,0.1875,-0.078125
1629795411375,-0.984375,0.1875,-0.0625
1629795411406,-0.984375,0.1875,-0.078125
1629795411437,-0.984375,0.1875,-0.078125
1629795411468,-0.984375,0.1875,-0.078125
1629795411500,-0.984375,0.1875,-0.078125
1629795411531,-0.984375,0.1875,-0.078125
1629795411562,-0.984375,0.1875,-0.078125
1629795411593,-0.984375,0.1875,-0.078125
1629795411625,-0.984375,0.1875,-0.078125
1629795411656,-0.984375,0.1875,-0.078125
1629795411687,-0.984375,0.1875,-0.09375
1629795411718,-0.984375,0.1875,-0.078125
1629795411750,-0.96875,0.171875,-0.078125
1629795411781,-0.96875,0.1875,-0.078125
1629795411812,-0.96875,0.1875,-0.0625
1629795411843,-0.984375,0.171875,-0.09375
1629795411875,-0.984375,0.171875,-0.109375
1629795411906,-0.984375,0.171875,-0.09375
1629795411937,-0.984375,0.171875,-0.109375
1629795411968,-1.0,0.171875,-0.125
1629795412000,-0.984375,0.171875,-0.109375
1629795412031,-0.96875,0.1875,-0.09375
1629795412062,-0.984375,0.1875,-0.09375
1629795412093,-0.984375,0.171875,-0.09375
1629795412125,-0.984375,0.171875,-0.09375
1629795412156,-0.96875,0.171875,-0.09375
1629795412187,-0.984375,0.171875,-0.09375
1629795412218,-0.984375,0.1875,-0.09375
1629795412250,-0.96875,0.1875,-0.09375
1629795412281,-0.984375,0.171875,-0.109375
1629795412312,-0.984375,0.171875,-0.09375
1629795412343,-0.984375,0.171875,-0.09375
1629795412375,-0.96875,0.1875,-0.09375
1629795412406,-0.96875,0.1875,-0.078125
1629795412437,-0.984375,0.171875,-0.125
1629795412468,-1.0,0.15625,-0.140625
1629795412500,-0.984375,0.15625,-0.140625
1629795412531,-0.984375,0.171875,-0.125
1629795412562,-0.96875,0.15625,-0.125
1629795412593,-0.984375,0.15625,-0.140625
1629795412625,-0.984375,0.15625,-0.125
1629795412656,-0.984375,0.15625,-0.125
1629795412687,-0.984375,0.15625,-0.125
1629795412718,-0.96875,0.15625,-0.125
1629795412750,-0.984375,0.171875,-0.125
1629795412781,-0.984375,0.15625,-0.125
1629795412812,-0.984375,0.171875,-0.125
1629795412843,-0.984375,0.15625,-0.125
1629795412875,-0.96875,0.15625,-0.125
1629795412906,-0.984375,0.171875,-0.125
1629795412937,-0.984375,0.15625,-0.125
1629795412968,-0.984375,0.15625,-0.125
1629795413000,-0.96875,0.15625,-0.125
1629795413031,-0.984375,0.15625,-0.140625
1629795413062,-1.0,0.15625,-0.125
1629795413093,-0.984375,0.171875,-0.125
1629795413125,-0.96875,0.1875,-0.078125
1629795413156,-0.984375,0.15625,-0.125
1629795413187,-0.953125,0.171875,-0.09375
1629795413218,-1.0,0.140625,-0.15625
1629795413250,-0.96875,0.171875,-0.109375
1629795413281,-0.984375,0.171875,-0.125
1629795413312,-0.984375,0.171875,-0.125
1629795413343,-0.984375,0.171875,-0.109375
1629795413375,-0.96875,0.1875,-0.078125
1629795413406,-0.984375,0.1875,-0.09375
1629795413437,-0.984375,0.171875,-0.109375
1629795413468,-0.96875,0.171875,-0.09375
1629795413500,-0.96875,0.1875,-0.09375
1629795413531,-0.984375,0.171875,-0.109375
1629795413562,-0.984375,0.171875,-0.09375
1629795413593,-0.984375,0.171875,-0.09375
1629795413625,-0.984375,0.1875,-0.09375
1629795413656,-0.984375,0.1875,-0.09375
1629795413687,-0.984375,0.171875,-0.09375
1629795413718,-0.984375,0.171875,-0.09375
1629795413750,-0.984375,0.1875,-0.09375
1629795413781,-0.984375,0.171875,-0.09375
1629795413812,-0.984375,0.1875,-0.09375
1629795413843,-0.984375,0.171875,-0.09375
1629795413875,-0.984375,0.171875,-0.109375
1629795413906,-0.984375,0.171875,-0.109375
1629795413937,-0.953125,0.1875,-0.046875
1629795413968,-1.0,0.171875,-0.09375
1629795414000,-0.984375,0.171875,-0.09375
1629795414031,-0.96875,0.1875,-0.078125
1629795414062,-0.984375,0.1875,-0.09375
1629795414093,-0.984375,0.1875,-0.09375
1629795414125,-1.0,0.1875,-0.109375
1629795414156,-0.96875,0.15625,-0.09375
1629795414187,-0.984375,0.15625,-0.09375
1629795414218,-0.984375,0.1875,-0.09375
1629795414250,-0.984375,0.1875,-0.078125
1629795414281,-0.984375,0.171875,-0.09375
1629795414312,-0.96875,0.171875,-0.09375
1629795414343,-0.984375,0.1875,-0.09375
1629795414375,-0.984375,0.171875,-0.09375
1629795414406,-0.984375,0.171875,-0.09375
1629795414437,-0.984375,0.171875,-0.078125
1629795414468,-0.984375,0.1875,-0.09375
1629795414500,-0.984375,0.171875,-0.09375
1629795414531,-0.984375,0.1875,-0.078125
1629795414562,-0.984375,0.1875,-0.09375
1629795414593,-0.984375,0.1875,-0.09375
1629795414625,-0.96875,0.171875,-0.078125
1629795414656,-0.984375,0.171875,-0.09375
1629795414687,-0.984375,0.171875,-0.09375
1629795414718,-0.96875,0.1875,-0.078125
1629795414750,-0.984375,0.171875,-0.09375
1629795414781,-0.984375,0.171875,-0.09375
1629795414812,-0.984375,0.171875,-0.09375
1629795414843,-0.984375,0.171875,-0.109375
1629795414875,-1.0,0.171875,-0.09375
1629795414906,-0.984375,0.171875,-0.09375
1629795414937,-0.984375,0.171875,-0.09375
1629795414968,-0.96875,0.171875,-0.078125
1629795415000,-0.984375,0.171875,-0.109375
1629795415031,-0.984375,0.171875,-0.09375
1629795415062,-0.984375,0.171875,-0.109375
1629795415093,-0.984375,0.171875,-0.09375
1629795415125,-0.984375,0.171875,-0.109375
1629795415156,-0.984375,0.171875,-0.09375
1629795415187,-0.984375,0.171875,-0.09375
1629795415218,-0.984375,0.171875,-0.09375
1629795415250,-0.984375,0.171875,-0.078125
1629795415281,-0.984375,0.171875,-0.078125
1629795415312,-0.984375,0.171875,-0.09375
1629795415343,-0.984375,0.171875,-0.09375
1629795415375,-0.984375,0.171875,-0.078125
1629795415406,-0.984375,0.171875,-0.078125
1629795415437,-0.984375,0.171875,-0.09375
1629795415468,-0.984375,0.171875,-0.09375
1629795415500,-0.984375,0.171875,-0.078125
1629795415531,-0.984375,0.171875,-0.09375
1629795415562,-0.96875,0.171875,-0.0625
1629795415593,-0.984375,0.171875,-0.09375
1629795415625,-1.0,0.15625,-0.15625
1629795415656,-0.984375,0.1875,-0.078125
1629795415687,-0.984375,0.171875,-0.125
1629795415718,-0.984375,0.15625,-0.09375
1629795415750,-0.984375,0.15625,-0.09375
1629795415781,-0.96875,0.171875,-0.09375
1629795415812,-0.984375,0.171875,-0.109375
1629795415843,-0.984375,0.15625,-0.109375
1629795415875,-0.984375,0.15625,-0.09375
1629795415906,-0.984375,0.171875,-0.109375
1629795415937,-0.984375,0.171875,-0.09375
1629795415968,-0.984375,0.171875,-0.09375
1629795416000,-1.0,0.15625,-0.125
1629795416031,-0.984375,0.171875,-0.109375
1629795416062,-0.96875,0.171875,-0.109375
1629795416093,-0.984375,0.15625,-0.109375
1629795416125,-0.984375,0.15625,-0.109375
1629795416156,-0.984375,0.15625,-0.109375
1629795416187,-0.984375,0.15625,-0.109375
1629795416218,-0.984375,0.171875,-0.109375
1629795416250,-0.984375,0.171875,-0.109375
1629795416281,-0.984375,0.171875,-0.109375
1629795416312,-0.984375,0.15625,-0.109375
1629795416343,-0.984375,0.15625,-0.109375
1629795416375,-0.984375,0.171875,-0.109375
1629795416406,-0.984375,0.15625,-0.109375
1629795416437,-0.984375,0.171875,-0.109375
1629795416468,-0.96875,0.171875,-0.109375
1629795416500,-0.984375,0.15625,-0.109375
1629795416531,-0.984375,0.171875,-0.109375
1629795416562,-0.984375,0.171875,-0.109375
1629795416593,-0.984375,0.171875,-0.109375
1629795416625,-0.96875,0.171875,-0.109375
1629795416656,-0.984375,0.171875,-0.109375
1629795416687,-0.984375,0.171875,-0.109375
1629795416718,-0.984375,0.15625,-0.125
1629795416750,-0.984375,0.171875,-0.09375
1629795416781,-0.984375,0.171875,-0.125
1629795416812,-0.984375,0.171875,-0.109375
1629795416843,-0.984375,0.171875,-0.109375
1629795416875,-0.96875,0.171875,-0.09375
1629795416906,-1.0,0.15625,-0.140625
1629795416937,-1.015625,0.15625,-0.15625
1629795416968,-0.984375,0.171875,-0.140625
1629795417000,-0.984375,0.171875,-0.125
1629795417031,-0.984375,0.15625,-0.125
1629795417062,-0.984375,0.15625,-0.140625
1629795417093,-0.984375,0.15625,-0.125
1629795417125,-0.984375,0.171875,-0.125
1629795417156,-0.984375,0.15625,-0.140625
1629795417187,-0.96875,0.21875,-0.0625
1629795417218,-0.984375,0.15625,-0.140625
1629795417250,-0.984375,0.15625,-0.125
1629795417281,-0.96875,0.171875,-0.09375
1629795417312,-0.96875,0.171875,-0.109375
1629795417343,-0.984375,0.171875,-0.109375
1629795417375,-0.984375,0.171875,-0.109375
1629795417406,-0.984375,0.171875,-0.109375
1629795417437,-0.984375,0.171875,-0.125
1629795417468,-0.96875,0.171875,-0.109375
1629795417500,-0.96875,0.171875,-0.109375
1629795417531,-0.984375,0.171875,-0.109375
1629795417562,-0.984375,0.171875,-0.109375
1629795417593,-0.984375,0.171875,-0.109375
1629795417625,-0.96875,0.15625,-0.109375
1629795417656,-0.984375,0.171875,-0.109375
1629795417687,-0.984375,0.171875,-0.125
1629795417718,-0.984375,0.171875,-0.109375
1629795417750,-0.984375,0.171875,-0.109375
1629795417781,-0.96875,0.15625,-0.109375
1629795417812,-0.96875,0.15625,-0.109375
1629795417843,-0.984375,0.171875,-0.125
1629795417875,-0.984375,0.15625,-0.125
1629795417906,-0.984375,0.15625,-0.125
1629795417937,-0.984375,0.15625,-0.125
1629795417968,-0.984375,0.171875,-0.109375
1629795418000,-0.984375,0.15625,-0.109375
1629795418031,-0.984375,0.15625,-0.109375
1629795418062,-0.984375,0.171875,-0.109375
1629795418093,-0.96875,0.171875,-0.109375
1629795418125,-0.984375,0.171875,-0.109375
1629795418156,-0.984375,0.171875,-0.109375
1629795418187,-0.984375,0.171875,-0.109375
1629795418218,-0.984375,0.171875,-0.09375
1629795418250,-0.984375,0.1875,-0.078125
1629795418281,-0.984375,0.171875,-0.09375
1629795418312,-0.984375,0.171875,-0.078125
1629795418343,-0.984375,0.171875,-0.09375
1629795418375,-0.984375,0.171875,-0.09375
1629795418406,-0.984375,0.171875,-0.09375
1629795418437,-0.984375,0.1875,-0.09375
1629795418468,-0.984375,0.171875,-0.09375
1629795418500,-0.984375,0.171875,-0.09375
1629795418531,-0.984375,0.171875,-0.09375
1629795418562,-0.96875,0.171875,-0.078125
1629795418593,-0.984375,0.171875,-0.09375
1629795418625,-0.984375,0.171875,-0.09375
1629795418656,-0.984375,0.171875,-0.078125
1629795418687,-0.984375,0.171875,-0.078125
1629795418718,-0.984375,0.171875,-0.0625
1629795418750,-0.984375,0.15625,-0.078125
1629795418781,-0.96875,0.171875,-0.078125
1629795418812,-0.953125,0.171875,-0.0625
1629795418843,-1.03125,0.15625,-0.09375
1629795418875,-0.96875,0.171875,-0.078125
1629795418906,-0.984375,0.171875,-0.09375
1629795418937,-1.0,0.171875,-0.09375
1629795418968,-0.96875,0.171875,-0.078125
1629795419000,-0.984375,0.171875,-0.078125
1629795419031,-0.984375,0.171875,-0.078125
1629795419062,-0.984375,0.171875,-0.078125
1629795419093,-0.984375,0.171875,-0.078125
1629795419125,-0.984375,0.171875,-0.078125
1629795419156,-0.984375,0.171875,-0.078125
1629795419187,-0.984375,0.171875,-0.078125
1629795419218,-0.984375,0.171875,-0.078125
1629795419250,-0.984375,0.171875,-0.09375
1629795419281,-0.984375,0.171875,-0.078125
1629795419312,-0.984375,0.171875,-0.09375
1629795419343,-0.984375,0.171875,-0.078125
1629795419375,-0.984375,0.171875,-0.09375
1629795419406,-0.984375,0.171875,-0.078125
1629795419437,-0.984375,0.171875,-0.078125
1629795419468,-0.984375,0.171875,-0.078125
1629795419500,-0.984375,0.171875,-0.078125
1629795419531,-0.984375,0.171875,-0.078125
1629795419562,-0.984375,0.171875,-0.09375
1629795419593,-0.984375,0.1875,-0.078125
1629795419625,-0.984375,0.1875,-0.078125
1629795419656,-0.984375,0.171875,-0.078125
1629795419687,-0.984375,0.171875,-0.078125
1629795419718,-0.984375,0.171875,-0.078125
1629795419750,-0.984375,0.171875,-0.09375
1629795419781,-0.984375,0.171875,-0.09375
1629795419812,-0.984375,0.171875,-0.078125
1629795419843,-0.984375,0.171875,-0.078125
1629795419875,-0.984375,0.171875,-0.078125
1629795419906,-0.984375,0.171875,-0.078125
1629795419937,-0.984375,0.171875,-0.078125
1629795419968,-0.984375,0.171875,-0.09375
1629795420000,-0.984375,0.171875,-0.078125
1629795420031,-0.96875,0.171875,-0.078125
1629795420062,-0.984375,0.171875,-0.078125
1629795420093,-0.96875,0.171875,-0.078125
1629795420125,-0.984375,0.171875,-0.078125
1629795420156,-0.984375,0.171875,-0.078125
1629795420187,-0.96875,0.171875,-0.078125
1629795420218,-0.984375,0.171875,-0.078125
1629795420250,-0.984375,0.171875,-0.078125
1629795420281,-0.984375,0.171875,-0.09375
1629795420312,-0.984375,0.1875,-0.078125
1629795420343,-0.984375,0.171875,-0.078125
1629795420375,-0.984375,0.171875,-0.078125
1629795420406,-0.984375,0.171875,-0.078125
1629795420437,-0.984375,0.171875,-0.078125
1629795420468,-0.984375,0.171875,-0.078125
1629795420500,-0.984375,0.171875,-0.078125
1629795420531,-0.984375,0.171875,-0.078125
1629795420562,-0.984375,0.171875,-0.078125
1629795420593,-0.984375,0.171875,-0.078125
1629795420625,-0.984375,0.171875,-0.078125
1629795420656,-0.984375,0.171875,-0.078125
1629795420687,-0.984375,0.171875,-0.078125
1629795420718,-0.984375,0.171875,-0.078125
1629795420750,-0.984375,0.171875,-0.078125
1629795420781,-0.984375,0.171875,-0.078125
1629795420812,-0.984375,0.171875,-0.078125
1629795420843,-0.984375,0.171875,-0.078125
1629795420875,-0.984375,0.171875,-0.078125
1629795420906,-0.984375,0.171875,-0.078125
1629795420937,-0.984375,0.171875,-0.078125
1629795420968,-0.984375,0.171875,-0.078125
1629795421000,-0.984375,0.171875,-0.078125
1629795421031,-0.984375,0.171875,-0.078125
1629795421062,-0.984375,0.171875,-0.078125
1629795421093,-0.984375,0.171875,-0.078125
1629795421125,-0.984375,0.171875,-0.078125
1629795421156,-0.984375,0.171875,-0.09375
1629795421187,-0.984375,0.171875,-0.078125
1629795421218,-0.984375,0.171875,-0.09375
1629795421250,-0.984375,0.171875,-0.09375
1629795421281,-0.984375,0.171875,-0.09375
1629795421312,-0.984375,0.171875,-0.09375
1629795421343,-0.984375,0.171875,-0.09375
1629795421375,-0.984375,0.171875,-0.09375
1629795421406,-0.984375,0.15625,-0.09375
1629795421437,-0.984375,0.171875,-0.09375
1629795421468,-0.984375,0.171875,-0.09375
1629795421500,-0.984375,0.15625,-0.09375
1629795421531,-0.984375,0.171875,-0.09375
1629795421562,-0.984375,0.15625,-0.09375
1629795421593,-0.984375,0.171875,-0.09375
1629795421625,-0.984375,0.15625,-0.09375
1629795421656,-0.96875,0.171875,-0.09375
1629795421687,-0.984375,0.171875,-0.09375
1629795421718,-1.0,0.15625,-0.109375
1629795421750,-0.984375,0.171875,-0.09375
1629795421781,-0.984375,0.15625,-0.09375
1629795421812,-0.984375,0.15625,-0.09375
1629795421843,-0.984375,0.15625,-0.109375
1629795421875,-0.984375,0.15625,-0.09375
1629795421906,-0.984375,0.15625,-0.09375
1629795421937,-0.984375,0.171875,-0.09375
1629795421968,-0.984375,0.171875,-0.09375
1629795422000,-0.984375,0.15625,-0.109375
1629795422031,-1.0,0.15625,-0.09375
1629795422062,-0.96875,0.171875,-0.09375
1629795422093,-0.984375,0.15625,-0.109375
1629795422125,-0.984375,0.15625,-0.09375
1629795422156,-0.984375,0.15625,-0.09375
1629795422187,-0.984375,0.15625,-0.09375
1629795422218,-0.984375,0.15625,-0.09375
1629795422250,-0.984375,0.15625,-0.09375
1629795422281,-0.984375,0.15625,-0.109375
1629795422312,-0.984375,0.171875,-0.09375
1629795422343,-0.96875,0.171875,-0.078125
1629795422375,-0.984375,0.171875,-0.078125
1629795422406,-0.984375,0.171875,-0.078125
1629795422437,-0.984375,0.171875,-0.078125
1629795422468,-0.984375,0.171875,-0.09375
1629795422500,-0.984375,0.171875,-0.078125
1629795422531,-0.984375,0.171875,-0.078125
1629795422562,-0.984375,0.171875,-0.078125
1629795422593,-0.984375,0.171875,-0.078125
1629795422625,-0.984375,0.171875,-0.078125
1629795422656,-0.984375,0.171875,-0.078125
1629795422687,-0.984375,0.171875,-0.078125
1629795422718,-0.984375,0.171875,-0.078125
1629795422750,-0.984375,0.171875,-0.078125
1629795422781,-0.984375,0.171875,-0.078125
1629795422812,-0.984375,0.171875,-0.078125
1629795422843,-0.984375,0.171875,-0.078125
1629795422875,-0.984375,0.171875,-0.078125
1629795422906,-0.984375,0.171875,-0.078125
1629795422937,-0.984375,0.171875,-0.09375
1629795422968,-0.96875,0.171875,-0.078125
1629795423000,-0.984375,0.171875,-0.078125
1629795423031,-0.984375,0.171875,-0.09375
1629795423062,-0.96875,0.15625,-0.09375
1629795423093,-0.984375,0.171875,-0.078125
1629795423125,-0.984375,0.171875,-0.09375
1629795423156,-0.984375,0.171875,-0.09375
1629795423187,-0.96875,0.171875,-0.078125
1629795423218,-0.984375,0.171875,-0.078125
1629795423250,-0.984375,0.171875,-0.078125
1629795423281,-0.984375,0.171875,-0.078125
1629795423312,-0.984375,0.171875,-0.078125
1629795423343,-0.984375,0.171875,-0.078125
1629795423375,-0.984375,0.171875,-0.078125
1629795423406,-0.984375,0.171875,-0.078125
1629795423437,-0.984375,0.171875,-0.09375
1629795423468,-0.984375,0.171875,-0.078125
1629795423500,-0.984375,0.171875,-0.078125
1629795423531,-0.984375,0.171875,-0.078125
1629795423562,-0.984375,0.171875,-0.078125
1629795423593,-0.984375,0.171875,-0.078125
1629795423625,-0.984375,0.171875,-0.078125
1629795423656,-0.984375,0.171875,-0.078125
1629795423687,-0.96875,0.171875,-0.0625
1629795423718,-0.984375,0.171875,-0.078125
1629795423750,-0.984375,0.171875,-0.078125
1629795423781,-0.984375,0.171875,-0.078125
1629795423812,-0.984375,0.171875,-0.078125
1629795423843,-0.984375,0.171875,-0.078125
1629795423875,-0.984375,0.171875,-0.078125
1629795423906,-0.984375,0.171875,-0.078125
1629795423937,-0.984375,0.171875,-0.078125
1629795423968,-0.984375,0.171875,-0.078125
1629795424000,-0.984375,0.171875,-0.078125
1629795424031,-0.984375,0.171875,-0.078125
1629795424062,-0.984375,0.171875,-0.078125
1629795424093,-0.984375,0.171875,-0.078125
1629795424125,-0.984375,0.171875,-0.078125
1629795424156,-0.984375,0.171875,-0.078125
1629795424187,-0.984375,0.1875,-0.078125
1629795424218,-0.984375,0.171875,-0.078125
1629795424250,-0.984375,0.171875,-0.0625
1629795424281,-0.984375,0.171875,-0.078125
1629795424312,-0.984375,0.171875,-0.0625
1629795424343,-0.984375,0.1875,-0.0625
1629795424375,-0.984375,0.171875,-0.078125
1629795424406,-0.96875,0.1875,-0.0625
1629795424437,-0.984375,0.1875,-0.078125
1629795424468,-0.984375,0.1875,-0.0625
1629795424500,-0.984375,0.1875,-0.078125
1629795424531,-0.984375,0.1875,-0.078125
1629795424562,-0.984375,0.1875,-0.078125
1629795424593,-0.984375,0.1875,-0.078125
1629795424625,-0.984375,0.1875,-0.078125
1629795424656,-0.984375,0.1875,-0.0625
1629795424687,-0.984375,0.1875,-0.078125
1629795424718,-0.984375,0.1875,-0.0625
1629795424750,-0.984375,0.171875,-0.078125
1629795424781,-0.984375,0.1875,-0.078125
1629795424812,-0.984375,0.1875,-0.078125
1629795424843,-0.984375,0.171875,-0.078125
1629795424875,-0.984375,0.1875,-0.078125
1629795424906,-0.984375,0.1875,-0.0625
1629795424937,-0.984375,0.1875,-0.078125
1629795424968,-0.984375,0.171875,-0.078125
1629795425000,-0.96875,0.1875,-0.0625
1629795425031,-0.984375,0.171875,-0.078125
1629795425062,-1.0,0.171875,-0.125
1629795425093,-1.015625,0.171875,-0.125
1629795425125,-0.984375,0.171875,-0.109375
1629795425156,-0.96875,0.171875,-0.109375
1629795425187,-0.984375,0.171875,-0.109375
1629795425218,-0.96875,0.171875,-0.09375
1629795425250,-0.96875,0.1875,-0.078125
1629795425281,-0.984375,0.1875,-0.09375
1629795425312,-0.984375,0.171875,-0.09375
1629795425343,-0.984375,0.171875,-0.09375
1629795425375,-0.96875,0.1875,-0.078125
1629795425406,-0.984375,0.1875,-0.09375
1629795425437,-0.984375,0.171875,-0.09375
1629795425468,-0.984375,0.171875,-0.09375
1629795425500,-0.984375,0.171875,-0.09375
1629795425531,-0.984375,0.171875,-0.09375
1629795425562,-0.984375,0.171875,-0.09375
1629795425593,-0.984375,0.171875,-0.09375
1629795425625,-0.96875,0.1875,-0.078125
1629795425656,-0.984375,0.1875,-0.078125
1629795425687,-0.984375,0.171875,-0.078125
1629795425718,-0.953125,0.1875,-0.046875
1629795425750,-0.984375,0.171875,-0.09375
1629795425781,-0.984375,0.171875,-0.09375
1629795425812,-1.0,0.171875,-0.09375
1629795425843,-0.984375,0.171875,-0.09375
1629795425875,-0.984375,0.171875,-0.09375
1629795425906,-0.984375,0.171875,-0.09375
1629795425937,-0.984375,0.171875,-0.09375
1629795425968,-0.984375,0.171875,-0.09375
1629795426000,-0.984375,0.171875,-0.09375
1629795426031,-0.984375,0.171875,-0.109375
1629795426062,-0.984375,0.171875,-0.09375
1629795426093,-0.96875,0.171875,-0.078125
1629795426125,-0.984375,0.1875,-0.078125
1629795426156,-0.984375,0.171875,-0.09375
1629795426187,-0.984375,0.1875,-0.078125
1629795426218,-0.984375,0.1875,-0.078125
1629795426250,-0.984375,0.171875,-0.09375
1629795426281,-0.984375,0.171875,-0.09375
1629795426312,-0.984375,0.171875,-0.09375
1629795426343,-0.984375,0.171875,-0.09375
1629795426375,-0.984375,0.171875,-0.09375
1629795426406,-0.984375,0.171875,-0.09375
1629795426437,-0.984375,0.171875,-0.078125
1629795426468,-0.984375,0.171875,-0.09375
1629795426500,-0.96875,0.1875,-0.078125
1629795426531,-0.96875,0.1875,-0.078125
1629795426562,-1.0,0.171875,-0.125
1629795426593,-1.0,0.171875,-0.125
1629795426625,-0.984375,0.171875,-0.109375
1629795426656,-0.96875,0.1875,-0.09375
1629795426687,-0.984375,0.171875,-0.109375
1629795426718,-0.984375,0.171875,-0.109375
1629795426750,-0.984375,0.171875,-0.109375
1629795426781,-0.984375,0.171875,-0.09375
1629795426812,-0.984375,0.171875,-0.109375
1629795426843,-0.984375,0.171875,-0.109375
1629795426875,-0.984375,0.171875,-0.109375
1629795426906,-0.984375,0.171875,-0.109375
1629795426937,-0.984375,0.171875,-0.109375
1629795426968,-0.984375,0.171875,-0.109375
1629795427000,-0.984375,0.171875,-0.109375
1629795427031,-0.96875,0.171875,-0.09375
1629795427062,-0.984375,0.171875,-0.09375
1629795427093,-0.984375,0.171875,-0.109375
1629795427125,-0.984375,0.171875,-0.09375
1629795427156,-0.984375,0.171875,-0.09375
1629795427187,-0.96875,0.171875,-0.09375
1629795427218,-0.96875,0.171875,-0.078125
1629795427250,-0.96875,0.171875,-0.09375
1629795427281,-0.984375,0.171875,-0.078125
1629795427312,-0.984375,0.171875,-0.09375
1629795427343,-0.96875,0.171875,-0.078125
1629795427375,-0.984375,0.171875,-0.09375
1629795427406,-0.96875,0.15625,-0.09375
1629795427437,-0.984375,0.171875,-0.09375
1629795427468,-0.984375,0.171875,-0.09375
1629795427500,-0.984375,0.15625,-0.09375
1629795427531,-0.984375,0.15625,-0.109375
1629795427562,-0.984375,0.15625,-0.09375
1629795427593,-0.984375,0.171875,-0.09375
1629795427625,-0.984375,0.171875,-0.109375
1629795427656,-0.984375,0.15625,-0.09375
1629795427687,-0.984375,0.171875,-0.09375
1629795427718,-0.984375,0.15625,-0.109375
1629795427750,-0.984375,0.15625,-0.109375
1629795427781,-0.984375,0.15625,-0.09375
1629795427812,-0.96875,0.15625,-0.109375
1629795427843,-0.984375,0.15625,-0.109375
1629795427875,-0.984375,0.15625,-0.109375
1629795427906,-0.96875,0.15625,-0.09375
1629795427937,-0.984375,0.15625,-0.109375
1629795427968,-0.984375,0.15625,-0.109375
1629795428000,-0.984375,0.15625,-0.109375
1629795428031,-0.984375,0.15625,-0.109375
1629795428062,-0.984375,0.15625,-0.109375
1629795428093,-0.984375,0.15625,-0.109375
1629795428125,-0.984375,0.171875,-0.09375
1629795428156,-0.984375,0.15625,-0.109375
1629795428187,-0.984375,0.15625,-0.109375
1629795428218,-0.984375,0.15625,-0.109375
1629795428250,-0.984375,0.15625,-0.109375
1629795428281,-0.984375,0.15625,-0.109375
1629795428312,-0.984375,0.15625,-0.109375
1629795428343,-0.984375,0.15625,-0.109375
1629795428375,-0.984375,0.171875,-0.109375
1629795428406,-0.984375,0.171875,-0.109375
1629795428437,-0.984375,0.171875,-0.109375
1629795428468,-0.984375,0.171875,-0.09375
1629795428500,-0.984375,0.15625,-0.09375
1629795428531,-0.96875,0.171875,-0.078125
1629795428562,-1.0,0.171875,-0.09375
1629795428593,-0.984375,0.171875,-0.09375
1629795428625,-0.984375,0.171875,-0.09375
1629795428656,-0.984375,0.171875,-0.109375
1629795428687,-0.984375,0.15625,-0.109375
1629795428718,-0.984375,0.15625,-0.109375
1629795428750,-0.96875,0.171875,-0.109375
1629795428781,-0.984375,0.15625,-0.125
1629795428812,-0.96875,0.15625,-0.09375
1629795428843,-0.984375,0.15625,-0.109375
1629795428875,-0.984375,0.15625,-0.109375
1629795428906,-0.984375,0.15625,-0.109375
1629795428937,-0.984375,0.15625,-0.109375
1629795428968,-0.984375,0.171875,-0.09375
1629795429000,-0.984375,0.15625,-0.09375
1629795429031,-0.984375,0.171875,-0.09375
1629795429062,-0.984375,0.15625,-0.09375
1629795429093,-0.984375,0.171875,-0.09375
1629795429125,-0.984375,0.15625,-0.09375
1629795429156,-0.984375,0.15625,-0.109375
1629795429187,-0.984375,0.15625,-0.09375
1629795429218,-0.984375,0.171875,-0.09375
1629795429250,-0.984375,0.15625,-0.09375
1629795429281,-0.984375,0.15625,-0.09375
1629795429312,-0.984375,0.15625,-0.09375
1629795429343,-0.984375,0.15625,-0.09375
1629795429375,-0.984375,0.171875,-0.09375
1629795429406,-0.984375,0.15625,-0.09375
1629795429437,-0.984375,0.171875,-0.09375
1629795429468,-0.96875,0.171875,-0.078125
1629795429500,-0.984375,0.171875,-0.09375
1629795429531,-0.984375,0.15625,-0.09375
1629795429562,-0.984375,0.171875,-0.078125
1629795429593,-0.984375,0.171875,-0.09375
1629795429625,-0.984375,0.171875,-0.09375
1629795429656,-0.984375,0.171875,-0.078125
1629795429687,-0.984375,0.171875,-0.09375
1629795429718,-0.984375,0.15625,-0.078125
1629795429750,-0.984375,0.171875,-0.09375
1629795429781,-0.984375,0.171875,-0.09375
1629795429812,-0.984375,0.171875,-0.078125
1629795429843,-0.984375,0.171875,-0.078125
1629795429875,-0.984375,0.171875,-0.078125
1629795429906,-0.984375,0.171875,-0.078125
1629795429937,-0.984375,0.171875,-0.09375
1629795429968,-0.984375,0.171875,-0.078125
1629795430000,-0.984375,0.171875,-0.078125
1629795430031,-0.984375,0.171875,-0.078125
1629795430062,-0.984375,0.171875,-0.078125
1629795430093,-0.984375,0.171875,-0.078125
1629795430125,-0.984375,0.171875,-0.09375
1629795430156,-0.984375,0.171875,-0.078125
1629795430187,-0.984375,0.15625,-0.09375
1629795430218,-0.984375,0.171875,-0.09375
1629795430250,-0.984375,0.15625,-0.09375
1629795430281,-0.984375,0.171875,-0.09375
1629795430312,-0.984375,0.15625,-0.09375
1629795430343,-0.96875,0.171875,-0.0625
1629795430375,-0.984375,0.140625,-0.09375
1629795430406,-1.0,0.15625,-0.09375
1629795430437,-0.96875,0.15625,-0.09375
1629795430468,-0.984375,0.15625,-0.09375
1629795430500,-0.984375,0.15625,-0.09375
1629795430531,-0.984375,0.15625,-0.09375
1629795430562,-0.984375,0.15625,-0.09375
1629795430593,-0.984375,0.15625,-0.078125
1629795430625,-0.984375,0.15625,-0.09375
1629795430656,-0.984375,0.15625,-0.09375
1629795430687,-0.984375,0.15625,-0.078125
1629795430718,-0.984375,0.15625,-0.078125
1629795430750,-0.984375,0.15625,-0.09375
1629795430781,-0.984375,0.15625,-0.09375
1629795430812,-0.984375,0.15625,-0.09375
1629795430843,-0.984375,0.15625,-0.09375
1629795430875,-0.984375,0.15625,-0.09375
1629795430906,-0.984375,0.15625,-0.09375
1629795430937,-0.984375,0.15625,-0.078125
1629795430968,-0.984375,0.171875,-0.09375
1629795431000,-0.984375,0.15625,-0.09375
1629795431031,-0.984375,0.15625,-0.09375
1629795431062,-0.984375,0.15625,-0.078125
1629795431093,-0.984375,0.15625,-0.09375
