timestamp,ax,ay,az
1629894289781,-0.53125,0.0625,0.828125
1629894289812,-0.515625,0.0625,0.828125
1629894289843,-0.515625,0.0625,0.828125
1629894289875,-0.53125,0.0625,0.84375
1629894289906,-0.515625,0.0625,0.84375
1629894289937,-0.515625,0.0625,0.84375
1629894289968,-0.515625,0.0625,0.828125
1629894290000,-0.515625,0.0625,0.828125
1629894290031,-0.515625,0.0625,0.828125
1629894290062,-0.515625,0.0625,0.828125
1629894290093,-0.515625,0.0625,0.828125
1629894290125,-0.515625,0.0625,0.828125
1629894290156,-0.515625,0.0625,0.84375
1629894290187,-0.515625,0.0625,0.84375
1629894290218,-0.515625,0.078125,0.84375
1629894290250,-0.515625,0.0625,0.84375
1629894290281,-0.515625,0.0625,0.84375
1629894290312,-0.515625,0.0625,0.84375
1629894290343,-0.5,0.0625,0.84375
1629894290375,-0.515625,0.0625,0.84375
1629894290406,-0.515625,0.0625,0.84375
1629894290437,-0.515625,0.0625,0.84375
1629894290468,-0.515625,0.0625,0.828125
1629894290500,-0.515625,0.0625,0.828125
1629894290531,-0.515625,0.0625,0.84375
1629894290562,-0.515625,0.0625,0.84375
1629894290593,-0.5,0.0625,0.84375
1629894290625,-0.5,0.0625,0.84375
1629894290656,-0.5,0.046875,0.84375
1629894290687,-0.515625,0.0625,0.84375
1629894290718,-0.515625,0.0625,0.84375
1629894290750,-0.515625,0.0625,0.84375
1629894290781,-0.5,0.0625,0.84375
1629894290812,-0.5,0.0625,0.84375
1629894290843,-0.5,0.0625,0.84375
1629894290875,-0.5,0.0625,0.84375
1629894290906,-0.515625,0.0625,0.84375
1629894290937,-0.515625,0.0625,0.84375
1629894290968,-0.515625,0.0625,0.84375
1629894291000,-0.5,0.0625,0.84375
1629894291031,-0.5,0.0625,0.84375
1629894291062,-0.5,0.0625,0.84375
1629894291093,-0.5,0.046875,0.84375
1629894291125,-0.515625,0.0625,0.84375
1629894291156,-0.5,0.0625,0.84375
1629894291187,-0.5,0.0625,0.84375
1629894291218,-0.515625,0.0625,0.84375
1629894291250,-0.5,0.0625,0.84375
1629894291281,-0.5,0.0625,0.84375
1629894291312,-0.515625,0.0625,0.84375
1629894291343,-0.515625,0.0625,0.84375
1629894291375,-0.515625,0.0625,0.84375
1629894291406,-0.5,0.0625,0.84375
1629894291437,-0.5,0.046875,0.84375
1629894291468,-0.5,0.046875,0.84375
1629894291500,-0.515625,0.046875,0.84375
1629894291531,-0.515625,0.0625,0.84375
1629894291562,-0.5,0.0625,0.84375
1629894291593,-0.5,0.0625,0.84375
1629894291625,-0.5,0.0625,0.84375
1629894291656,-0.5,0.0625,0.84375
1629894291687,-0.515625,0.0625,0.84375
1629894291718,-0.515625,0.0625,0.84375
1629894291750,-0.5,0.046875,0.84375
1629894291781,-0.5,0.0625,0.84375
1629894291812,-0.5,0.046875,0.84375
1629894291843,-0.5,0.0625,0.84375
1629894291875,-0.515625,0.0625,0.84375
1629894291906,-0.515625,0.046875,0.84375
1629894291937,-0.515625,0.0625,0.84375
1629894291968,-0.5,0.0625,0.84375
1629894292000,-0.5,0.046875,0.84375
1629894292031,-0.515625,0.046875,0.84375
1629894292062,-0.515625,0.046875,0.84375
1629894292093,-0.515625,0.0625,0.84375
1629894292125,-0.515625,0.0625,0.84375
1629894292156,-0.515625,0.046875,0.84375
1629894292187,-0.515625,0.0625,0.84375
1629894292218,-0.5,0.046875,0.84375
1629894292250,-0.5,0.046875,0.84375
1629894292281,-0.5,0.046875,0.84375
1629894292312,-0.5,0.046875,0.84375
1629894292343,-0.5,0.046875,0.84375
1629894292375,-0.515625,0.046875,0.84375
1629894292406,-0.515625,0.046875,0.84375
1629894292437,-0.515625,0.046875,0.84375
1629894292468,-0.5,0.046875,0.84375
1629894292500,-0.5,0.046875,0.84375
1629894292531,-0.5,0.046875,0.84375
1629894292562,-0.515625,0.046875,0.84375
1629894292593,-0.53125,0.046875,0.828125
1629894292625,-0.53125,0.046875,0.828125
1629894292656,-0.53125,0.046875,0.828125
1629894292687,-0.53125,0.046875,0.828125
1629894292718,-0.53125,0.046875,0.828125
1629894292750,-0.53125,0.03125,0.828125
1629894292781,-0.53125,0.03125,0.84375
1629894292812,-0.53125,0.03125,0.828125
1629894292843,-0.515625,0.03125,0.84375
1629894292875,-0.53125,0.03125,0.84375
1629894292906,-0.53125,0.046875,0.84375
1629894292937,-0.515625,0.03125,0.859375
1629894292968,-0.5,0.046875,0.875
1629894293000,-0.453125,0.03125,0.84375
1629894293031,-0.453125,0.0,0.84375
1629894293062,-0.4375,0.0,0.84375
1629894293093,-0.5,0.03125,0.828125
1629894293125,-0.625,0.015625,0.765625
1629894293156,-0.671875,0.015625,0.6875
1629894293187,-0.6875,0.046875,0.703125
1629894293218,-0.6875,0.046875,0.6875
1629894293250,-0.703125,0.0625,0.671875
1629894293281,-0.71875,0.09375,0.671875
1629894293312,-0.734375,0.109375,0.671875
1629894293343,-0.796875,0.140625,0.640625
1629894293375,-0.828125,0.171875,0.625
1629894293406,-0.96875,0.1875,0.59375
1629894293437,-0.78125,0.15625,0.703125
1629894293468,-0.71875,0.125,0.71875
1629894293500,-0.65625,0.125,0.734375
1629894293531,-0.59375,0.109375,0.765625
1629894293562,-0.53125,0.09375,0.796875
1629894293593,-0.484375,0.046875,0.84375
1629894293625,-0.46875,0.03125,0.84375
1629894293656,-0.5,0.03125,0.84375
1629894293687,-0.53125,0.046875,0.828125
1629894293718,-0.5625,0.0625,0.796875
1629894293750,-0.59375,0.046875,0.78125
1629894293781,-0.59375,0.046875,0.78125
1629894293812,-0.59375,0.03125,0.796875
1629894293843,-0.578125,0.015625,0.796875
1629894293875,-0.578125,0.015625,0.78125
1629894293906,-0.59375,0.0,0.75
1629894293937,-0.59375,0.0,0.765625
1629894293968,-0.59375,0.015625,0.765625
1629894294000,-0.578125,0.046875,0.765625
1629894294031,-0.59375,0.03125,0.765625
1629894294062,-0.609375,0.0625,0.78125
1629894294093,-0.59375,0.078125,0.796875
1629894294125,-0.59375,0.078125,0.8125
1629894294156,-0.5625,0.078125,0.828125
1629894294187,-0.546875,0.078125,0.84375
1629894294218,-0.515625,0.078125,0.828125
1629894294250,-0.515625,0.0625,0.828125
1629894294281,-0.53125,0.0625,0.828125
1629894294312,-0.546875,0.0625,0.8125
1629894294343,-0.5625,0.0625,0.8125
1629894294375,-0.5625,0.0625,0.796875
1629894294406,-0.5625,0.0625,0.796875
1629894294437,-0.5625,0.0625,0.8125
1629894294468,-0.546875,0.0625,0.8125
1629894294500,-0.546875,0.0625,0.8125
1629894294531,-0.546875,0.0625,0.8125
1629894294562,-0.546875,0.0625,0.828125
1629894294593,-0.546875,0.0625,0.828125
1629894294625,-0.5625,0.0625,0.8125
1629894294656,-0.5625,0.078125,0.8125
1629894294687,-0.546875,0.078125,0.828125
1629894294718,-0.546875,0.0625,0.828125
1629894294750,-0.53125,0.0625,0.828125
1629894294781,-0.53125,0.0625,0.828125
1629894294812,-0.53125,0.0625,0.828125
1629894294843,-0.546875,0.0625,0.8125
1629894294875,-0.5625,0.0625,0.8125
1629894294906,-0.5625,0.0625,0.8125
1629894294937,-0.5625,0.0625,0.8125
1629894294968,-0.5625,0.0625,0.8125
1629894295000,-0.5625,0.078125,0.8125
1629894295031,-0.53125,0.0625,0.8125
1629894295062,-0.5,0.0625,0.828125
1629894295093,-0.5625,0.0625,0.8125
1629894295125,-0.625,0.09375,0.75
1629894295156,-0.59375,0.0625,0.828125
1629894295187,-0.53125,0.078125,0.828125
1629894295218,-0.53125,0.09375,0.8125
1629894295250,-0.5625,0.09375,0.796875
1629894295281,-0.609375,0.09375,0.75
1629894295312,-0.640625,0.09375,0.734375
1629894295343,-0.640625,0.109375,0.78125
1629894295375,-0.65625,0.109375,0.765625
1629894295406,-0.53125,0.046875,0.890625
1629894295437,-0.578125,0.078125,0.78125
1629894295468,-0.578125,0.078125,0.765625
1629894295500,-0.546875,0.078125,0.828125
1629894295531,-0.5625,0.078125,0.828125
1629894295562,-0.578125,0.078125,0.796875
1629894295593,-0.59375,0.078125,0.796875
1629894295625,-0.59375,0.078125,0.78125
1629894295656,-0.578125,0.078125,0.796875
1629894295687,-0.578125,0.078125,0.796875
1629894295718,-0.578125,0.078125,0.796875
1629894295750,-0.5625,0.078125,0.796875
1629894295781,-0.5625,0.078125,0.796875
1629894295812,-0.578125,0.078125,0.796875
1629894295843,-0.578125,0.078125,0.796875
1629894295875,-0.578125,0.078125,0.796875
1629894295906,-0.578125,0.078125,0.796875
1629894295937,-0.578125,0.078125,0.796875
1629894295968,-0.578125,0.078125,0.796875
1629894296000,-0.578125,0.078125,0.796875
1629894296031,-0.578125,0.078125,0.796875
1629894296062,-0.5625,0.078125,0.8125
1629894296093,-0.5625,0.09375,0.8125
1629894296125,-0.5625,0.09375,0.8125
1629894296156,-0.5625,0.09375,0.8125
1629894296187,-0.5625,0.09375,0.8125
1629894296218,-0.5625,0.078125,0.796875
1629894296250,-0.578125,0.078125,0.796875
1629894296281,-0.578125,0.078125,0.796875
1629894296312,-0.578125,0.09375,0.796875
1629894296343,-0.5625,0.078125,0.796875
1629894296375,-0.578125,0.078125,0.796875
1629894296406,-0.5625,0.078125,0.796875
1629894296437,-0.578125,0.078125,0.796875
1629894296468,-0.578125,0.078125,0.796875
1629894296500,-0.5625,0.078125,0.8125
1629894296531,-0.5625,0.078125,0.8125
1629894296562,-0.5625,0.078125,0.8125
1629894296593,-0.578125,0.078125,0.796875
1629894296625,-0.5625,0.078125,0.796875
1629894296656,-0.578125,0.09375,0.796875
1629894296687,-0.5625,0.078125,0.796875
1629894296718,-0.5625,0.078125,0.796875
1629894296750,-0.5625,0.078125,0.796875
1629894296781,-0.578125,0.078125,0.8125
1629894296812,-0.578125,0.09375,0.796875
1629894296843,-0.5625,0.09375,0.796875
1629894296875,-0.5625,0.078125,0.796875
1629894296906,-0.5625,0.078125,0.796875
1629894296937,-0.578125,0.078125,0.796875
1629894296968,-0.578125,0.078125,0.796875
1629894297000,-0.578125,0.078125,0.796875
1629894297031,-0.5625,0.078125,0.796875
1629894297062,-0.5625,0.078125,0.796875
1629894297093,-0.578125,0.078125,0.796875
1629894297125,-0.578125,0.078125,0.796875
1629894297156,-0.578125,0.078125,0.796875
1629894297187,-0.578125,0.078125,0.796875
1629894297218,-0.578125,0.078125,0.796875
1629894297250,-0.578125,0.078125,0.796875
1629894297281,-0.578125,0.078125,0.796875
1629894297312,-0.578125,0.078125,0.796875
1629894297343,-0.578125,0.078125,0.796875
1629894297375,-0.578125,0.078125,0.796875
1629894297406,-0.578125,0.078125,0.796875
1629894297437,-0.5625,0.078125,0.796875
1629894297468,-0.5625,0.078125,0.796875
1629894297500,-0.5625,0.078125,0.8125
1629894297531,-0.578125,0.078125,0.796875
1629894297562,-0.578125,0.078125,0.8125
1629894297593,-0.5625,0.078125,0.796875
1629894297625,-0.5625,0.078125,0.796875
1629894297656,-0.578125,0.078125,0.796875
1629894297687,-0.578125,0.078125,0.796875
1629894297718,-0.5625,0.078125,0.796875
1629894297750,-0.5625,0.078125,0.796875
1629894297781,-0.5625,0.078125,0.796875
1629894297812,-0.578125,0.078125,0.796875
1629894297843,-0.578125,0.078125,0.796875
1629894297875,-0.578125,0.078125,0.796875
1629894297906,-0.5625,0.078125,0.796875
1629894297937,-0.5625,0.078125,0.796875
1629894297968,-0.578125,0.078125,0.796875
1629894298000,-0.578125,0.078125,0.8125
1629894298031,-0.5625,0.078125,0.8125
1629894298062,-0.5625,0.078125,0.796875
1629894298093,-0.5625,0.078125,0.796875
1629894298125,-0.5625,0.078125,0.796875
1629894298156,-0.578125,0.078125,0.796875
1629894298187,-0.578125,0.078125,0.796875
1629894298218,-0.578125,0.078125,0.8125
1629894298250,-0.578125,0.078125,0.796875
1629894298281,-0.578125,0.078125,0.796875
1629894298312,-0.578125,0.078125,0.796875
1629894298343,-0.578125,0.078125,0.796875
1629894298375,-0.578125,0.078125,0.796875
1629894298406,-0.578125,0.078125,0.796875
1629894298437,-0.5625,0.078125,0.8125
1629894298468,-0.578125,0.0625,0.796875
1629894298500,-0.578125,0.078125,0.796875
1629894298531,-0.578125,0.078125,0.796875
1629894298562,-0.578125,0.078125,0.796875
1629894298593,-0.5625,0.078125,0.796875
1629894298625,-0.578125,0.078125,0.796875
1629894298656,-0.578125,0.078125,0.796875
1629894298687,-0.578125,0.078125,0.796875
1629894298718,-0.578125,0.078125,0.796875
1629894298750,-0.5625,0.078125,0.8125
1629894298781,-0.5625,0.078125,0.796875
1629894298812,-0.578125,0.078125,0.796875
1629894298843,-0.578125,0.078125,0.796875
1629894298875,-0.5625,0.078125,0.796875
1629894298906,-0.578125,0.078125,0.796875
1629894298937,-0.578125,0.078125,0.796875
1629894298968,-0.578125,0.078125,0.796875
1629894299000,-0.578125,0.078125,0.796875
1629894299031,-0.5625,0.078125,0.796875
1629894299062,-0.5625,0.078125,0.796875
1629894299093,-0.578125,0.078125,0.796875
1629894299125,-0.578125,0.078125,0.796875
1629894299156,-0.578125,0.078125,0.796875
1629894299187,-0.5625,0.078125,0.796875
1629894299218,-0.5625,0.078125,0.796875
1629894299250,-0.5625,0.078125,0.796875
1629894299281,-0.578125,0.078125,0.796875
1629894299312,-0.578125,0.078125,0.796875
1629894299343,-0.5625,0.078125,0.8125
1629894299375,-0.5625,0.078125,0.8125
1629894299406,-0.5625,0.078125,0.796875
1629894299437,-0.578125,0.078125,0.796875
1629894299468,-0.578125,0.078125,0.796875
1629894299500,-0.578125,0.078125,0.796875
1629894299531,-0.5625,0.078125,0.8125
1629894299562,-0.5625,0.078125,0.796875
1629894299593,-0.5625,0.078125,0.8125
1629894299625,-0.5625,0.078125,0.796875
1629894299656,-0.578125,0.078125,0.796875
1629894299687,-0.578125,0.078125,0.796875
1629894299718,-0.578125,0.078125,0.796875
1629894299750,-0.5625,0.078125,0.796875
1629894299781,-0.5625,0.078125,0.796875
1629894299812,-0.578125,0.078125,0.796875
1629894299843,-0.578125,0.078125,0.8125
1629894299875,-0.5625,0.078125,0.796875
1629894299906,-0.5625,0.078125,0.8125
1629894299937,-0.578125,0.078125,0.796875
1629894299968,-0.578125,0.078125,0.796875
1629894300000,-0.578125,0.078125,0.796875
1629894300031,-0.5625,0.078125,0.8125
1629894300062,-0.5625,0.078125,0.8125
1629894300093,-0.5625,0.078125,0.796875
1629894300125,-0.578125,0.078125,0.796875
1629894300156,-0.578125,0.078125,0.796875
1629894300187,-0.5625,0.078125,0.796875
1629894300218,-0.578125,0.078125,0.8125
1629894300250,-0.578125,0.078125,0.796875
1629894300281,-0.578125,0.078125,0.796875
1629894300312,-0.578125,0.078125,0.796875
1629894300343,-0.578125,0.078125,0.796875
1629894300375,-0.5625,0.078125,0.796875
1629894300406,-0.5625,0.078125,0.796875
1629894300437,-0.5625,0.078125,0.8125
1629894300468,-0.5625,0.078125,0.8125
1629894300500,-0.5625,0.078125,0.8125
1629894300531,-0.5625,0.078125,0.796875
1629894300562,-0.5625,0.078125,0.796875
1629894300593,-0.5625,0.078125,0.8125
1629894300625,-0.5625,0.078125,0.8125
1629894300656,-0.5625,0.078125,0.8125
1629894300687,-0.5625,0.078125,0.8125
1629894300718,-0.5625,0.078125,0.8125
1629894300750,-0.5625,0.078125,0.8125
1629894300781,-0.5625,0.078125,0.796875
1629894300812,-0.5625,0.078125,0.8125
1629894300843,-0.5625,0.078125,0.8125
1629894300875,-0.5625,0.078125,0.8125
1629894300906,-0.5625,0.078125,0.8125
1629894300937,-0.5625,0.078125,0.8125
1629894300968,-0.5625,0.078125,0.8125
1629894301000,-0.5625,0.078125,0.796875
1629894301031,-0.5625,0.078125,0.8125
1629894301062,-0.5625,0.078125,0.8125
1629894301093,-0.5625,0.078125,0.796875
1629894301125,-0.5625,0.078125,0.8125
1629894301156,-0.5625,0.078125,0.796875
1629894301187,-0.5625,0.078125,0.796875
1629894301218,-0.5625,0.078125,0.8125
1629894301250,-0.5625,0.078125,0.8125
1629894301281,-0.5625,0.078125,0.796875
1629894301312,-0.5625,0.078125,0.8125
1629894301343,-0.5625,0.078125,0.8125
1629894301375,-0.5625,0.078125,0.796875
1629894301406,-0.5625,0.078125,0.8125
1629894301437,-0.5625,0.078125,0.8125
1629894301468,-0.5625,0.078125,0.8125
1629894301500,-0.5625,0.078125,0.8125
1629894301531,-0.5625,0.078125,0.8125
1629894301562,-0.5625,0.078125,0.796875
1629894301593,-0.5625,0.078125,0.8125
1629894301625,-0.5625,0.078125,0.8125
1629894301656,-0.5625,0.078125,0.8125
1629894301687,-0.5625,0.078125,0.8125
1629894301718,-0.5625,0.078125,0.8125
1629894301750,-0.5625,0.078125,0.796875
1629894301781,-0.5625,0.078125,0.796875
1629894301812,-0.5625,0.078125,0.796875
1629894301843,-0.5625,0.078125,0.8125
1629894301875,-0.5625,0.078125,0.8125
1629894301906,-0.5625,0.078125,0.796875
1629894301937,-0.5625,0.078125,0.8125
1629894301968,-0.5625,0.078125,0.8125
1629894302000,-0.5625,0.078125,0.796875
1629894302031,-0.5625,0.078125,0.8125
1629894302062,-0.5625,0.078125,0.8125
1629894302093,-0.5625,0.078125,0.796875
1629894302125,-0.5625,0.078125,0.796875
1629894302156,-0.5625,0.078125,0.796875
1629894302187,-0.5625,0.078125,0.8125
1629894302218,-0.5625,0.078125,0.8125
1629894302250,-0.5625,0.078125,0.8125
1629894302281,-0.578125,0.078125,0.796875
1629894302312,-0.578125,0.078125,0.796875
1629894302343,-0.5625,0.078125,0.8125
1629894302375,-0.5625,0.078125,0.796875
1629894302406,-0.5625,0.078125,0.8125
1629894302437,-0.5625,0.078125,0.8125
1629894302468,-0.578125,0.09375,0.796875
1629894302500,-0.578125,0.078125,0.796875
1629894302531,-0.578125,0.078125,0.796875
1629894302562,-0.578125,0.078125,0.796875
1629894302593,-0.5625,0.078125,0.8125
1629894302625,-0.578125,0.078125,0.796875
1629894302656,-0.578125,0.078125,0.796875
1629894302687,-0.5625,0.078125,0.796875
1629894302718,-0.5625,0.078125,0.796875
1629894302750,-0.578125,0.078125,0.796875
1629894302781,-0.578125,0.078125,0.796875
1629894302812,-0.578125,0.078125,0.8125
1629894302843,-0.5625,0.078125,0.796875
1629894302875,-0.5625,0.078125,0.796875
1629894302906,-0.578125,0.078125,0.796875
1629894302937,-0.578125,0.078125,0.796875
1629894302968,-0.578125,0.078125,0.796875
1629894303000,-0.5625,0.078125,0.796875
1629894303031,-0.578125,0.078125,0.796875
1629894303062,-0.578125,0.078125,0.796875
1629894303093,-0.578125,0.078125,0.796875
1629894303125,-0.578125,0.078125,0.796875
1629894303156,-0.578125,0.078125,0.796875
1629894303187,-0.578125,0.078125,0.796875
1629894303218,-0.578125,0.078125,0.796875
1629894303250,-0.578125,0.078125,0.8125
1629894303281,-0.578125,0.078125,0.796875
1629894303312,-0.578125,0.078125,0.796875
1629894303343,-0.578125,0.078125,0.796875
1629894303375,-0.578125,0.078125,0.796875
1629894303406,-0.5625,0.078125,0.8125
1629894303437,-0.5625,0.09375,0.8125
1629894303468,-0.5625,0.078125,0.796875
1629894303500,-0.5625,0.078125,0.796875
1629894303531,-0.578125,0.078125,0.8125
1629894303562,-0.578125,0.078125,0.796875
1629894303593,-0.578125,0.078125,0.796875
1629894303625,-0.5625,0.078125,0.796875
1629894303656,-0.578125,0.078125,0.796875
1629894303687,-0.578125,0.078125,0.796875
1629894303718,-0.578125,0.078125,0.796875
1629894303750,-0.5625,0.078125,0.8125
1629894303781,-0.5625,0.078125,0.8125
1629894303812,-0.5625,0.078125,0.796875
1629894303843,-0.5625,0.078125,0.8125
1629894303875,-0.578125,0.078125,0.796875
1629894303906,-0.5625,0.078125,0.796875
1629894303937,-0.5625,0.078125,0.8125
1629894303968,-0.5625,0.078125,0.8125
1629894304000,-0.5625,0.078125,0.796875
1629894304031,-0.5625,0.078125,0.796875
1629894304062,-0.578125,0.078125,0.796875
1629894304093,-0.5625,0.078125,0.8125
1629894304125,-0.5625,0.078125,0.796875
1629894304156,-0.5625,0.078125,0.796875
1629894304187,-0.5625,0.078125,0.8125
1629894304218,-0.5625,0.078125,0.8125
1629894304250,-0.5625,0.078125,0.796875
1629894304281,-0.5625,0.078125,0.8125
1629894304312,-0.5625,0.078125,0.796875
1629894304343,-0.5625,0.078125,0.8125
1629894304375,-0.5625,0.078125,0.796875
1629894304406,-0.5625,0.078125,0.796875
1629894304437,-0.5625,0.078125,0.8125
1629894304468,-0.5625,0.078125,0.8125
1629894304500,-0.5625,0.078125,0.8125
1629894304531,-0.5625,0.078125,0.8125
1629894304562,-0.5625,0.078125,0.796875
1629894304593,-0.5625,0.078125,0.796875
1629894304625,-0.5625,0.078125,0.8125
1629894304656,-0.5625,0.078125,0.8125
1629894304687,-0.5625,0.078125,0.8125
1629894304718,-0.5625,0.078125,0.8125
1629894304750,-0.5625,0.078125,0.796875
1629894304781,-0.5625,0.078125,0.796875
1629894304812,-0.578125,0.078125,0.8125
1629894304843,-0.5625,0.078125,0.796875
1629894304875,-0.5625,0.078125,0.8125
1629894304906,-0.5625,0.078125,0.8125
1629894304937,-0.5625,0.078125,0.796875
1629894304968,-0.5625,0.078125,0.796875
1629894305000,-0.5625,0.078125,0.796875
1629894305031,-0.5625,0.078125,0.8125
1629894305062,-0.5625,0.078125,0.8125
1629894305093,-0.5625,0.078125,0.8125
1629894305125,-0.5625,0.078125,0.8125
1629894305156,-0.5625,0.078125,0.8125
1629894305187,-0.5625,0.078125,0.8125
1629894305218,-0.5625,0.078125,0.8125
1629894305250,-0.5625,0.078125,0.8125
1629894305281,-0.5625,0.078125,0.8125
1629894305312,-0.5625,0.078125,0.796875
1629894305343,-0.5625,0.078125,0.8125
1629894305375,-0.5625,0.078125,0.8125
1629894305406,-0.5625,0.078125,0.8125
1629894305437,-0.5625,0.078125,0.8125
1629894305468,-0.5625,0.078125,0.8125
1629894305500,-0.578125,0.078125,0.796875
1629894305531,-0.578125,0.078125,0.796875
1629894305562,-0.5625,0.078125,0.8125
1629894305593,-0.5625,0.078125,0.8125
1629894305625,-0.5625,0.078125,0.796875
1629894305656,-0.5625,0.078125,0.8125
1629894305687,-0.5625,0.078125,0.796875
1629894305718,-0.5625,0.078125,0.8125
1629894305750,-0.5625,0.078125,0.8125
1629894305781,-0.5625,0.078125,0.796875
1629894305812,-0.578125,0.078125,0.8125
1629894305843,-0.5625,0.078125,0.8125
1629894305875,-0.5625,0.078125,0.796875
1629894305906,-0.5625,0.078125,0.8125
1629894305937,-0.5625,0.078125,0.8125
1629894305968,-0.5625,0.078125,0.8125
1629894306000,-0.5625,0.078125,0.796875
1629894306031,-0.5625,0.078125,0.8125
1629894306062,-0.5625,0.078125,0.8125
1629894306093,-0.5625,0.078125,0.8125
1629894306125,-0.5625,0.078125,0.8125
1629894306156,-0.5625,0.078125,0.8125
1629894306187,-0.5625,0.078125,0.796875
1629894306218,-0.5625,0.078125,0.796875
1629894306250,-0.5625,0.078125,0.796875
1629894306281,-0.5625,0.078125,0.8125
1629894306312,-0.5625,0.078125,0.8125
1629894306343,-0.5625,0.078125,0.8125
1629894306375,-0.5625,0.078125,0.8125
1629894306406,-0.5625,0.078125,0.8125
1629894306437,-0.5625,0.078125,0.796875
1629894306468,-0.5625,0.078125,0.796875
1629894306500,-0.5625,0.078125,0.8125
1629894306531,-0.5625,0.078125,0.8125
1629894306562,-0.578125,0.078125,0.8125
1629894306593,-0.5625,0.078125,0.8125
1629894306625,-0.5625,0.078125,0.796875
1629894306656,-0.5625,0.078125,0.796875
1629894306687,-0.5625,0.078125,0.796875
1629894306718,-0.5625,0.078125,0.796875
1629894306750,-0.5625,0.078125,0.8125
1629894306781,-0.5625,0.078125,0.8125
1629894306812,-0.5625,0.078125,0.8125
1629894306843,-0.5625,0.078125,0.796875
1629894306875,-0.5625,0.078125,0.796875
1629894306906,-0.5625,0.078125,0.8125
1629894306937,-0.5625,0.078125,0.8125
1629894306968,-0.5625,0.09375,0.8125
1629894307000,-0.5625,0.09375,0.796875
1629894307031,-0.5625,0.078125,0.8125
1629894307062,-0.5625,0.078125,0.796875
1629894307093,-0.5625,0.078125,0.796875
1629894307125,-0.5625,0.078125,0.8125
1629894307156,-0.5625,0.078125,0.8125
1629894307187,-0.5625,0.078125,0.796875
1629894307218,-0.5625,0.078125,0.796875
1629894307250,-0.5625,0.09375,0.8125
1629894307281,-0.5625,0.078125,0.796875
1629894307312,-0.5625,0.078125,0.8125
1629894307343,-0.5625,0.078125,0.8125
1629894307375,-0.5625,0.078125,0.8125
1629894307406,-0.5625,0.078125,0.8125
1629894307437,-0.5625,0.078125,0.8125
1629894307468,-0.5625,0.09375,0.796875
1629894307500,-0.5625,0.078125,0.8125
1629894307531,-0.5625,0.078125,0.796875
1629894307562,-0.5625,0.078125,0.8125
1629894307593,-0.5625,0.078125,0.8125
1629894307625,-0.578125,0.078125,0.8125
1629894307656,-0.5625,0.078125,0.8125
1629894307687,-0.5625,0.078125,0.8125
1629894307718,-0.5625,0.078125,0.8125
1629894307750,-0.5625,0.078125,0.8125
1629894307781,-0.5625,0.09375,0.796875
1629894307812,-0.5625,0.078125,0.8125
1629894307843,-0.5625,0.078125,0.8125
1629894307875,-0.5625,0.078125,0.796875
1629894307906,-0.5625,0.078125,0.796875
1629894307937,-0.5625,0.078125,0.796875
1629894307968,-0.5625,0.078125,0.8125
1629894308000,-0.5625,0.078125,0.8125
1629894308031,-0.5625,0.09375,0.8125
1629894308062,-0.5625,0.078125,0.796875
1629894308093,-0.5625,0.078125,0.8125
1629894308125,-0.5625,0.078125,0.796875
1629894308156,-0.5625,0.078125,0.8125
1629894308187,-0.5625,0.078125,0.8125
1629894308218,-0.5625,0.078125,0.8125
1629894308250,-0.5625,0.078125,0.8125
1629894308281,-0.5625,0.078125,0.8125
1629894308312,-0.5625,0.078125,0.796875
1629894308343,-0.5625,0.078125,0.8125
1629894308375,-0.5625,0.078125,0.8125
1629894308406,-0.5625,0.078125,0.8125
1629894308437,-0.5625,0.078125,0.8125
1629894308468,-0.5625,0.078125,0.8125
1629894308500,-0.5625,0.078125,0.8125
1629894308531,-0.5625,0.078125,0.796875
1629894308562,-0.5625,0.078125,0.796875
1629894308593,-0.5625,0.078125,0.8125
1629894308625,-0.5625,0.078125,0.8125
1629894308656,-0.5625,0.078125,0.8125
1629894308687,-0.5625,0.078125,0.8125
1629894308718,-0.5625,0.078125,0.8125
1629894308750,-0.5625,0.078125,0.8125
1629894308781,-0.5625,0.078125,0.796875
1629894308812,-0.5625,0.078125,0.796875
1629894308843,-0.5625,0.078125,0.8125
1629894308875,-0.5625,0.078125,0.8125
1629894308906,-0.5625,0.078125,0.8125
1629894308937,-0.578125,0.078125,0.8125
1629894308968,-0.5625,0.078125,0.796875
1629894309000,-0.5625,0.078125,0.8125
1629894309031,-0.5625,0.078125,0.8125
1629894309062,-0.5625,0.078125,0.8125
1629894309093,-0.5625,0.078125,0.796875
1629894309125,-0.5625,0.078125,0.8125
1629894309156,-0.5625,0.078125,0.8125
1629894309187,-0.5625,0.078125,0.8125
1629894309218,-0.5625,0.078125,0.8125
1629894309250,-0.5625,0.078125,0.8125
1629894309281,-0.5625,0.078125,0.8125
1629894309312,-0.5625,0.078125,0.8125
1629894309343,-0.5625,0.078125,0.796875
1629894309375,-0.5625,0.078125,0.8125
1629894309406,-0.5625,0.078125,0.8125
1629894309437,-0.5625,0.078125,0.8125
1629894309468,-0.5625,0.078125,0.796875
1629894309500,-0.5625,0.078125,0.8125
1629894309531,-0.5625,0.078125,0.796875
1629894309562,-0.5625,0.078125,0.796875
1629894309593,-0.5625,0.078125,0.8125
1629894309625,-0.5625,0.078125,0.8125
1629894309656,-0.5625,0.078125,0.8125
1629894309687,-0.5625,0.078125,0.8125
1629894309718,-0.578125,0.078125,0.796875
1629894309750,-0.5625,0.078125,0.8125
1629894309781,-0.5625,0.078125,0.8125
1629894309812,-0.5625,0.078125,0.8125
1629894309843,-0.5625,0.078125,0.796875
1629894309875,-0.5625,0.078125,0.8125
1629894309906,-0.5625,0.078125,0.796875
1629894309937,-0.5625,0.078125,0.8125
1629894309968,-0.5625,0.078125,0.8125
1629894310000,-0.5625,0.078125,0.796875
1629894310031,-0.5625,0.078125,0.8125
1629894310062,-0.5625,0.078125,0.8125
1629894310093,-0.5625,0.078125,0.8125
1629894310125,-0.5625,0.078125,0.8125
1629894310156,-0.5625,0.078125,0.8125
1629894310187,-0.5625,0.078125,0.8125
1629894310218,-0.5625,0.078125,0.8125
1629894310250,-0.5625,0.078125,0.8125
1629894310281,-0.5625,0.078125,0.8125
1629894310312,-0.5625,0.078125,0.8125
1629894310343,-0.5625,0.078125,0.8125
1629894310375,-0.5625,0.078125,0.8125
1629894310406,-0.5625,0.078125,0.8125
1629894310437,-0.5625,0.078125,0.8125
1629894310468,-0.5625,0.078125,0.8125
1629894310500,-0.5625,0.078125,0.8125
1629894310531,-0.5625,0.078125,0.8125
1629894310562,-0.5625,0.078125,0.8125
1629894310593,-0.5625,0.078125,0.8125
1629894310625,-0.5625,0.078125,0.8125
1629894310656,-0.5625,0.078125,0.796875
1629894310687,-0.5625,0.078125,0.8125
1629894310718,-0.5625,0.09375,0.8125
1629894310750,-0.578125,0.078125,0.8125
1629894310781,-0.5625,0.078125,0.8125
1629894310812,-0.5625,0.078125,0.8125
1629894310843,-0.5625,0.09375,0.8125
1629894310875,-0.578125,0.09375,0.796875
1629894310906,-0.5625,0.078125,0.796875
1629894310937,-0.5625,0.078125,0.8125
1629894310968,-0.5625,0.078125,0.8125
1629894311000,-0.5625,0.078125,0.8125
1629894311031,-0.5625,0.078125,0.8125
1629894311062,-0.5625,0.078125,0.8125
1629894311093,-0.5625,0.078125,0.796875
1629894311125,-0.5625,0.078125,0.8125
1629894311156,-0.5625,0.09375,0.8125
1629894311187,-0.5625,0.09375,0.8125
1629894311218,-0.5625,0.09375,0.796875
1629894311250,-0.5625,0.09375,0.796875
1629894311281,-0.5625,0.078125,0.796875
1629894311312,-0.5625,0.078125,0.8125
1629894311343,-0.5625,0.078125,0.8125
1629894311375,-0.5625,0.078125,0.8125
1629894311406,-0.5625,0.078125,0.8125
1629894311437,-0.5625,0.078125,0.8125
1629894311468,-0.5625,0.078125,0.8125
1629894311500,-0.5625,0.078125,0.8125
1629894311531,-0.5625,0.09375,0.8125
1629894311562,-0.5625,0.09375,0.8125
1629894311593,-0.5625,0.078125,0.8125
1629894311625,-0.5625,0.078125,0.796875
1629894311656,-0.5625,0.078125,0.8125
1629894311687,-0.5625,0.078125,0.8125
1629894311718,-0.5625,0.078125,0.8125
1629894311750,-0.5625,0.078125,0.8125
1629894311781,-0.5625,0.078125,0.796875
1629894311812,-0.5625,0.078125,0.796875
1629894311843,-0.5625,0.09375,0.796875
1629894311875,-0.5625,0.078125,0.8125
1629894311906,-0.5625,0.078125,0.8125
1629894311937,-0.5625,0.078125,0.8125
1629894311968,-0.5625,0.078125,0.8125
1629894312000,-0.5625,0.078125,0.8125
1629894312031,-0.5625,0.078125,0.8125
1629894312062,-0.5625,0.078125,0.8125
1629894312093,-0.5625,0.09375,0.8125
1629894312125,-0.5625,0.09375,0.796875
1629894312156,-0.5625,0.078125,0.8125
1629894312187,-0.5625,0.078125,0.796875
1629894312218,-0.5625,0.078125,0.796875
1629894312250,-0.5625,0.078125,0.8125
1629894312281,-0.5625,0.078125,0.8125
1629894312312,-0.5625,0.078125,0.8125
1629894312343,-0.5625,0.078125,0.8125
1629894312375,-0.5625,0.078125,0.8125
1629894312406,-0.5625,0.078125,0.8125
1629894312437,-0.5625,0.078125,0.8125
1629894312468,-0.5625,0.078125,0.8125
1629894312500,-0.5625,0.078125,0.8125
1629894312531,-0.5625,0.09375,0.8125
1629894312562,-0.5625,0.078125,0.8125
1629894312593,-0.5625,0.078125,0.8125
1629894312625,-0.5625,0.078125,0.8125
1629894312656,-0.5625,0.078125,0.8125
1629894312687,-0.5625,0.078125,0.8125
1629894312718,-0.5625,0.078125,0.8125
1629894312750,-0.5625,0.078125,0.8125
1629894312781,-0.5625,0.078125,0.8125
1629894312812,-0.5625,0.078125,0.8125
1629894312843,-0.5625,0.09375,0.8125
1629894312875,-0.5625,0.078125,0.8125
1629894312906,-0.546875,0.078125,0.8125
1629894312937,-0.546875,0.078125,0.8125
1629894312968,-0.5625,0.078125,0.8125
1629894313000,-0.5625,0.078125,0.8125
1629894313031,-0.5625,0.078125,0.8125
1629894313062,-0.5625,0.078125,0.8125
1629894313093,-0.5625,0.078125,0.8125
1629894313125,-0.5625,0.078125,0.8125
1629894313156,-0.5625,0.078125,0.8125
1629894313187,-0.5625,0.078125,0.8125
1629894313218,-0.5625,0.078125,0.8125
1629894313250,-0.5625,0.078125,0.8125
1629894313281,-0.5625,0.078125,0.8125
1629894313312,-0.5625,0.078125,0.8125
1629894313343,-0.5625,0.078125,0.8125
1629894313375,-0.5625,0.078125,0.8125
1629894313406,-0.5625,0.078125,0.8125
1629894313437,-0.5625,0.078125,0.8125
1629894313468,-0.5625,0.078125,0.8125
1629894313500,-0.5625,0.078125,0.8125
1629894313531,-0.5625,0.078125,0.8125
1629894313562,-0.5625,0.09375,0.8125
1629894313593,-0.5625,0.078125,0.8125
1629894313625,-0.5625,0.078125,0.8125
1629894313656,-0.5625,0.078125,0.8125
1629894313687,-0.5625,0.078125,0.8125
1629894313718,-0.5625,0.078125,0.8125
1629894313750,-0.5625,0.078125,0.8125
1629894313781,-0.5625,0.078125,0.8125
1629894313812,-0.5625,0.078125,0.8125
1629894313843,-0.5625,0.078125,0.796875
1629894313875,-0.5625,0.078125,0.8125
1629894313906,-0.5625,0.078125,0.8125
1629894313937,-0.546875,0.078125,0.8125
1629894313968,-0.5625,0.078125,0.8125
1629894314000,-0.5625,0.078125,0.796875
1629894314031,-0.5625,0.078125,0.8125
1629894314062,-0.5625,0.078125,0.8125
1629894314093,-0.546875,0.078125,0.8125
1629894314125,-0.5625,0.078125,0.8125
1629894314156,-0.5625,0.078125,0.8125
1629894314187,-0.5625,0.078125,0.8125
1629894314218,-0.5625,0.078125,0.8125
1629894314250,-0.5625,0.078125,0.8125
1629894314281,-0.5625,0.078125,0.8125
1629894314312,-0.5625,0.078125,0.8125
1629894314343,-0.5625,0.078125,0.8125
1629894314375,-0.5625,0.078125,0.8125
1629894314406,-0.5625,0.078125,0.8125
1629894314437,-0.5625,0.09375,0.8125
1629894314468,-0.5625,0.078125,0.8125
1629894314500,-0.5625,0.078125,0.8125
1629894314531,-0.5625,0.078125,0.8125
1629894314562,-0.5625,0.078125,0.8125
1629894314593,-0.5625,0.078125,0.8125
1629894314625,-0.5625,0.078125,0.8125
1629894314656,-0.5625,0.078125,0.8125
1629894314687,-0.5625,0.078125,0.8125
1629894314718,-0.5625,0.078125,0.8125
1629894314750,-0.5625,0.078125,0.8125
1629894314781,-0.5625,0.078125,0.8125
1629894314812,-0.546875,0.078125,0.8125
1629894314843,-0.5625,0.078125,0.8125
1629894314875,-0.5625,0.078125,0.8125
1629894314906,-0.5625,0.078125,0.8125
1629894314937,-0.5625,0.078125,0.8125
1629894314968,-0.546875,0.078125,0.8125
1629894315000,-0.5625,0.078125,0.8125
1629894315031,-0.5625,0.078125,0.8125
1629894315062,-0.5625,0.078125,0.8125
1629894315093,-0.5625,0.078125,0.8125
1629894315125,-0.5625,0.078125,0.8125
1629894315156,-0.5625,0.078125,0.8125
1629894315187,-0.5625,0.09375,0.8125
1629894315218,-0.5625,0.078125,0.8125
1629894315250,-0.5625,0.09375,0.8125
1629894315281,-0.5625,0.078125,0.8125
1629894315312,-0.5625,0.078125,0.8125
1629894315343,-0.5625,0.078125,0.8125
1629894315375,-0.5625,0.078125,0.8125
1629894315406,-0.5625,0.09375,0.8125
1629894315437,-0.5625,0.09375,0.8125
1629894315468,-0.5625,0.09375,0.8125
1629894315500,-0.5625,0.09375,0.8125
1629894315531,-0.5625,0.09375,0.8125
1629894315562,-0.5625,0.078125,0.8125
1629894315593,-0.5625,0.09375,0.8125
1629894315625,-0.5625,0.09375,0.8125
1629894315656,-0.5625,0.09375,0.8125
1629894315687,-0.5625,0.078125,0.8125
1629894315718,-0.5625,0.09375,0.8125
1629894315750,-0.5625,0.078125,0.8125
1629894315781,-0.5625,0.078125,0.8125
1629894315812,-0.546875,0.09375,0.8125
1629894315843,-0.5625,0.078125,0.8125
1629894315875,-0.5625,0.09375,0.8125
1629894315906,-0.5625,0.09375,0.8125
1629894315937,-0.5625,0.078125,0.8125
1629894315968,-0.546875,0.078125,0.8125
1629894316000,-0.546875,0.078125,0.8125
1629894316031,-0.5625,0.078125,0.8125
1629894316062,-0.5625,0.078125,0.8125
1629894316093,-0.5625,0.078125,0.8125
1629894316125,-0.546875,0.09375,0.8125
1629894316156,-0.5625,0.09375,0.8125
1629894316187,-0.5625,0.09375,0.8125
1629894316218,-0.5625,0.078125,0.8125
1629894316250,-0.5625,0.078125,0.8125
1629894316281,-0.5625,0.078125,0.8125
1629894316312,-0.5625,0.078125,0.8125
1629894316343,-0.5625,0.078125,0.8125
1629894316375,-0.5625,0.078125,0.8125
1629894316406,-0.5625,0.078125,0.8125
1629894316437,-0.5625,0.078125,0.8125
1629894316468,-0.5625,0.09375,0.8125
1629894316500,-0.5625,0.09375,0.8125
1629894316531,-0.5625,0.078125,0.8125
1629894316562,-0.5625,0.078125,0.8125
1629894316593,-0.5625,0.09375,0.8125
1629894316625,-0.5625,0.09375,0.8125
1629894316656,-0.5625,0.078125,0.8125
1629894316687,-0.546875,0.078125,0.8125
1629894316718,-0.546875,0.078125,0.8125
1629894316750,-0.5625,0.078125,0.8125
1629894316781,-0.5625,0.078125,0.8125
1629894316812,-0.546875,0.078125,0.8125
1629894316843,-0.5625,0.078125,0.8125
1629894316875,-0.5625,0.09375,0.8125
1629894316906,-0.5625,0.078125,0.8125
1629894316937,-0.5625,0.078125,0.8125
1629894316968,-0.546875,0.078125,0.8125
1629894317000,-0.546875,0.078125,0.8125
1629894317031,-0.5625,0.078125,0.8125
1629894317062,-0.5625,0.078125,0.8125
1629894317093,-0.5625,0.078125,0.8125
1629894317125,-0.546875,0.078125,0.8125
1629894317156,-0.5625,0.078125,0.8125
1629894317187,-0.5625,0.078125,0.8125
1629894317218,-0.5625,0.078125,0.8125
1629894317250,-0.5625,0.078125,0.8125
1629894317281,-0.5625,0.078125,0.8125
1629894317312,-0.5625,0.078125,0.8125
1629894317343,-0.5625,0.078125,0.8125
1629894317375,-0.5625,0.078125,0.8125
1629894317406,-0.5625,0.078125,0.8125
1629894317437,-0.5625,0.078125,0.8125
1629894317468,-0.5625,0.078125,0.8125
1629894317500,-0.5625,0.078125,0.8125
1629894317531,-0.5625,0.078125,0.8125
1629894317562,-0.5625,0.078125,0.8125
1629894317593,-0.5625,0.078125,0.8125
1629894317625,-0.5625,0.078125,0.8125
1629894317656,-0.5625,0.078125,0.8125
1629894317687,-0.5625,0.078125,0.8125
1629894317718,-0.546875,0.078125,0.8125
1629894317750,-0.5625,0.078125,0.8125
1629894317781,-0.5625,0.078125,0.8125
1629894317812,-0.5625,0.078125,0.8125
1629894317843,-0.546875,0.078125,0.8125
1629894317875,-0.5625,0.078125,0.8125
1629894317906,-0.5625,0.078125,0.8125
1629894317937,-0.5625,0.078125,0.8125
1629894317968,-0.546875,0.078125,0.8125
1629894318000,-0.546875,0.078125,0.8125
1629894318031,-0.5625,0.078125,0.796875
1629894318062,-0.5625,0.078125,0.8125
1629894318093,-0.5625,0.078125,0.8125
1629894318125,-0.546875,0.078125,0.8125
1629894318156,-0.546875,0.078125,0.8125
1629894318187,-0.5625,0.09375,0.8125
1629894318218,-0.5625,0.078125,0.8125
1629894318250,-0.5625,0.078125,0.8125
1629894318281,-0.5625,0.078125,0.8125
1629894318312,-0.5625,0.078125,0.8125
1629894318343,-0.5625,0.078125,0.8125
1629894318375,-0.5625,0.078125,0.8125
1629894318406,-0.5625,0.078125,0.8125
1629894318437,-0.5625,0.078125,0.8125
1629894318468,-0.5625,0.078125,0.8125
1629894318500,-0.5625,0.078125,0.8125
1629894318531,-0.5625,0.09375,0.8125
1629894318562,-0.5625,0.078125,0.8125
1629894318593,-0.5625,0.078125,0.8125
1629894318625,-0.5625,0.078125,0.8125
1629894318656,-0.5625,0.078125,0.8125
1629894318687,-0.5625,0.078125,0.8125
1629894318718,-0.5625,0.078125,0.8125
1629894318750,-0.546875,0.078125,0.8125
1629894318781,-0.546875,0.078125,0.8125
1629894318812,-0.5625,0.078125,0.8125
1629894318843,-0.5625,0.078125,0.8125
1629894318875,-0.546875,0.078125,0.8125
1629894318906,-0.5625,0.09375,0.8125
1629894318937,-0.5625,0.078125,0.8125
1629894318968,-0.5625,0.09375,0.8125
1629894319000,-0.5625,0.078125,0.8125
1629894319031,-0.546875,0.078125,0.8125
1629894319062,-0.5625,0.078125,0.8125
1629894319093,-0.5625,0.078125,0.8125
1629894319125,-0.5625,0.09375,0.8125
1629894319156,-0.5625,0.078125,0.8125
1629894319187,-0.5625,0.078125,0.8125
1629894319218,-0.5625,0.078125,0.8125
1629894319250,-0.5625,0.09375,0.8125
1629894319281,-0.5625,0.09375,0.8125
1629894319312,-0.5625,0.09375,0.8125
1629894319343,-0.5625,0.078125,0.8125
1629894319375,-0.5625,0.078125,0.8125
1629894319406,-0.5625,0.078125,0.8125
1629894319437,-0.5625,0.078125,0.8125
1629894319468,-0.5625,0.078125,0.8125
1629894319500,-0.5625,0.078125,0.8125
1629894319531,-0.5625,0.078125,0.8125
1629894319562,-0.5625,0.09375,0.8125
1629894319593,-0.5625,0.09375,0.8125
1629894319625,-0.5625,0.09375,0.8125
1629894319656,-0.5625,0.09375,0.8125
1629894319687,-0.5625,0.09375,0.8125
1629894319718,-0.5625,0.078125,0.8125
1629894319750,-0.5625,0.078125,0.8125
1629894319781,-0.546875,0.09375,0.8125
1629894319812,-0.5625,0.09375,0.8125
1629894319843,-0.5625,0.09375,0.8125
1629894319875,-0.546875,0.09375,0.8125
1629894319906,-0.5625,0.09375,0.8125
1629894319937,-0.5625,0.09375,0.8125
1629894319968,-0.5625,0.09375,0.8125
1629894320000,-0.5625,0.09375,0.8125
1629894320031,-0.546875,0.078125,0.8125
1629894320062,-0.546875,0.09375,0.8125
1629894320093,-0.5625,0.09375,0.8125
1629894320125,-0.546875,0.09375,0.8125
1629894320156,-0.5625,0.09375,0.8125
1629894320187,-0.5625,0.09375,0.8125
1629894320218,-0.5625,0.09375,0.8125
1629894320250,-0.5625,0.09375,0.8125
1629894320281,-0.5625,0.09375,0.8125
1629894320312,-0.5625,0.09375,0.796875
1629894320343,-0.5625,0.09375,0.8125
1629894320375,-0.5625,0.09375,0.8125
1629894320406,-0.5625,0.09375,0.8125
1629894320437,-0.5625,0.078125,0.8125
1629894320468,-0.5625,0.09375,0.8125
1629894320500,-0.5625,0.078125,0.8125
1629894320531,-0.5625,0.078125,0.8125
1629894320562,-0.5625,0.09375,0.8125
1629894320593,-0.5625,0.09375,0.8125
1629894320625,-0.5625,0.09375,0.8125
1629894320656,-0.5625,0.09375,0.8125
1629894320687,-0.5625,0.09375,0.8125
1629894320718,-0.5625,0.09375,0.8125
1629894320750,-0.5625,0.09375,0.8125
1629894320781,-0.5625,0.09375,0.8125
1629894320812,-0.5625,0.078125,0.8125
1629894320843,-0.5625,0.078125,0.8125
1629894320875,-0.5625,0.09375,0.8125
1629894320906,-0.5625,0.09375,0.8125
1629894320937,-0.5625,0.09375,0.8125
1629894320968,-0.5625,0.078125,0.8125
1629894321000,-0.546875,0.078125,0.8125
1629894321031,-0.5625,0.078125,0.8125
1629894321062,-0.5625,0.078125,0.8125
1629894321093,-0.5625,0.09375,0.8125
1629894321125,-0.5625,0.09375,0.8125
1629894321156,-0.5625,0.09375,0.8125
1629894321187,-0.5625,0.09375,0.8125
1629894321218,-0.5625,0.09375,0.8125
1629894321250,-0.5625,0.09375,0.8125
1629894321281,-0.5625,0.078125,0.8125
1629894321312,-0.5625,0.078125,0.8125
1629894321343,-0.5625,0.078125,0.8125
1629894321375,-0.5625,0.078125,0.8125
1629894321406,-0.5625,0.078125,0.8125
1629894321437,-0.5625,0.09375,0.8125
1629894321468,-0.5625,0.078125,0.8125
1629894321500,-0.5625,0.078125,0.8125
1629894321531,-0.5625,0.078125,0.8125
1629894321562,-0.5625,0.09375,0.8125
1629894321593,-0.5625,0.09375,0.8125
1629894321625,-0.5625,0.078125,0.796875
1629894321656,-0.5625,0.09375,0.8125
1629894321687,-0.5625,0.078125,0.8125
1629894321718,-0.5625,0.078125,0.8125
1629894321750,-0.5625,0.078125,0.8125
1629894321781,-0.546875,0.078125,0.8125
1629894321812,-0.546875,0.078125,0.8125
1629894321843,-0.546875,0.078125,0.8125
1629894321875,-0.5625,0.078125,0.8125
1629894321906,-0.5625,0.078125,0.8125
1629894321937,-0.546875,0.078125,0.8125
1629894321968,-0.546875,0.078125,0.8125
1629894322000,-0.5625,0.078125,0.8125
1629894322031,-0.5625,0.078125,0.8125
1629894322062,-0.5625,0.078125,0.8125
1629894322093,-0.546875,0.078125,0.8125
1629894322125,-0.5625,0.078125,0.8125
1629894322156,-0.5625,0.09375,0.8125
1629894322187,-0.5625,0.078125,0.8125
1629894322218,-0.546875,0.078125,0.8125
1629894322250,-0.5625,0.078125,0.8125
1629894322281,-0.5625,0.078125,0.8125
1629894322312,-0.5625,0.078125,0.8125
1629894322343,-0.5625,0.078125,0.8125
1629894322375,-0.5625,0.078125,0.8125
1629894322406,-0.5625,0.078125,0.8125
1629894322437,-0.5625,0.078125,0.8125
1629894322468,-0.5625,0.078125,0.8125
1629894322500,-0.546875,0.078125,0.8125
1629894322531,-0.5625,0.09375,0.8125
1629894322562,-0.5625,0.078125,0.8125
1629894322593,-0.546875,0.078125,0.8125
1629894322625,-0.546875,0.078125,0.8125
1629894322656,-0.5625,0.078125,0.8125
1629894322687,-0.5625,0.078125,0.8125
1629894322718,-0.5625,0.078125,0.8125
1629894322750,-0.546875,0.078125,0.8125
1629894322781,-0.5625,0.078125,0.8125
1629894322812,-0.5625,0.09375,0.8125
1629894322843,-0.546875,0.078125,0.8125
1629894322875,-0.5625,0.078125,0.8125
1629894322906,-0.546875,0.078125,0.8125
1629894322937,-0.546875,0.078125,0.8125
1629894322968,-0.5625,0.078125,0.8125
1629894323000,-0.546875,0.078125,0.8125
1629894323031,-0.546875,0.078125,0.8125
1629894323062,-0.546875,0.078125,0.8125
1629894323093,-0.5625,0.078125,0.8125
1629894323125,-0.5625,0.078125,0.8125
1629894323156,-0.5625,0.078125,0.8125
1629894323187,-0.546875,0.078125,0.8125
1629894323218,-0.5625,0.078125,0.8125
1629894323250,-0.5625,0.078125,0.8125
1629894323281,-0.5625,0.078125,0.8125
1629894323312,-0.546875,0.078125,0.8125
1629894323343,-0.546875,0.078125,0.8125
1629894323375,-0.5625,0.078125,0.8125
1629894323406,-0.5625,0.078125,0.8125
1629894323437,-0.5625,0.078125,0.8125
1629894323468,-0.5625,0.078125,0.8125
1629894323500,-0.5625,0.078125,0.8125
1629894323531,-0.5625,0.09375,0.8125
1629894323562,-0.5625,0.078125,0.8125
1629894323593,-0.546875,0.09375,0.8125
1629894323625,-0.546875,0.078125,0.8125
1629894323656,-0.5625,0.078125,0.8125
1629894323687,-0.5625,0.078125,0.8125
1629894323718,-0.5625,0.078125,0.8125
1629894323750,-0.546875,0.078125,0.8125
1629894323781,-0.5625,0.078125,0.8125
1629894323812,-0.5625,0.09375,0.8125
1629894323843,-0.5625,0.078125,0.8125
1629894323875,-0.546875,0.078125,0.8125
1629894323906,-0.546875,0.078125,0.8125
1629894323937,-0.5625,0.09375,0.8125
1629894323968,-0.5625,0.078125,0.8125
1629894324000,-0.546875,0.078125,0.8125
1629894324031,-0.546875,0.078125,0.8125
1629894324062,-0.5625,0.09375,0.8125
1629894324093,-0.5625,0.078125,0.8125
1629894324125,-0.5625,0.09375,0.8125
1629894324156,-0.5625,0.078125,0.8125
1629894324187,-0.5625,0.09375,0.8125
1629894324218,-0.5625,0.09375,0.8125
1629894324250,-0.5625,0.078125,0.8125
1629894324281,-0.5625,0.078125,0.8125
1629894324312,-0.5625,0.09375,0.8125
1629894324343,-0.5625,0.078125,0.8125
1629894324375,-0.5625,0.078125,0.8125
1629894324406,-0.5625,0.09375,0.8125
1629894324437,-0.5625,0.078125,0.8125
1629894324468,-0.546875,0.09375,0.8125
1629894324500,-0.5625,0.09375,0.8125
1629894324531,-0.5625,0.09375,0.8125
1629894324562,-0.5625,0.078125,0.8125
1629894324593,-0.546875,0.09375,0.8125
1629894324625,-0.546875,0.09375,0.8125
1629894324656,-0.5625,0.078125,0.8125
1629894324687,-0.5625,0.078125,0.8125
1629894324718,-0.5625,0.078125,0.8125
1629894324750,-0.5625,0.078125,0.8125
1629894324781,-0.5625,0.09375,0.8125
1629894324812,-0.5625,0.078125,0.8125
1629894324843,-0.5625,0.078125,0.8125
1629894324875,-0.546875,0.078125,0.8125
1629894324906,-0.5625,0.09375,0.8125
1629894324937,-0.5625,0.09375,0.8125
1629894324968,-0.5625,0.078125,0.8125
1629894325000,-0.546875,0.078125,0.8125
1629894325031,-0.546875,0.09375,0.8125
1629894325062,-0.5625,0.09375,0.8125
1629894325093,-0.5625,0.078125,0.8125
1629894325125,-0.5625,0.09375,0.8125
1629894325156,-0.5625,0.078125,0.8125
1629894325187,-0.5625,0.09375,0.8125
1629894325218,-0.5625,0.078125,0.8125
1629894325250,-0.5625,0.078125,0.8125
1629894325281,-0.546875,0.078125,0.8125
1629894325312,-0.546875,0.078125,0.8125
1629894325343,-0.5625,0.078125,0.8125
1629894325375,-0.5625,0.078125,0.8125
1629894325406,-0.5625,0.078125,0.8125
1629894325437,-0.5625,0.078125,0.8125
1629894325468,-0.5625,0.09375,0.8125
1629894325500,-0.5625,0.078125,0.8125
1629894325531,-0.546875,0.078125,0.8125
1629894325562,-0.546875,0.09375,0.8125
1629894325593,-0.546875,0.078125,0.8125
1629894325625,-0.5625,0.078125,0.8125
1629894325656,-0.5625,0.078125,0.8125
1629894325687,-0.546875,0.078125,0.8125
1629894325718,-0.5625,0.09375,0.8125
1629894325750,-0.5625,0.09375,0.8125
1629894325781,-0.5625,0.078125,0.8125
1629894325812,-0.546875,0.078125,0.8125
1629894325843,-0.5625,0.078125,0.8125
1629894325875,-0.5625,0.078125,0.8125
1629894325906,-0.5625,0.078125,0.8125
1629894325937,-0.5625,0.078125,0.8125
1629894325968,-0.546875,0.078125,0.8125
1629894326000,-0.546875,0.09375,0.8125
1629894326031,-0.5625,0.078125,0.8125
1629894326062,-0.5625,0.078125,0.8125
1629894326093,-0.5625,0.09375,0.8125
1629894326125,-0.5625,0.09375,0.8125
1629894326156,-0.5625,0.078125,0.8125
1629894326187,-0.5625,0.078125,0.8125
1629894326218,-0.5625,0.078125,0.8125
1629894326250,-0.5625,0.078125,0.8125
1629894326281,-0.546875,0.078125,0.8125
1629894326312,-0.546875,0.078125,0.8125
1629894326343,-0.546875,0.09375,0.8125
1629894326375,-0.5625,0.078125,0.8125
1629894326406,-0.546875,0.078125,0.8125
1629894326437,-0.546875,0.078125,0.8125
1629894326468,-0.546875,0.078125,0.8125
1629894326500,-0.5625,0.078125,0.8125
1629894326531,-0.5625,0.078125,0.8125
1629894326562,-0.546875,0.078125,0.8125
1629894326593,-0.5625,0.078125,0.8125
1629894326625,-0.5625,0.078125,0.8125
1629894326656,-0.5625,0.078125,0.8125
1629894326687,-0.546875,0.078125,0.8125
1629894326718,-0.5625,0.078125,0.8125
1629894326750,-0.5625,0.078125,0.8125
1629894326781,-0.546875,0.078125,0.8125
1629894326812,-0.546875,0.078125,0.8125
1629894326843,-0.546875,0.078125,0.8125
1629894326875,-0.546875,0.078125,0.8125
1629894326906,-0.5625,0.078125,0.8125
1629894326937,-0.5625,0.078125,0.8125
1629894326968,-0.546875,0.078125,0.8125
1629894327000,-0.546875,0.078125,0.8125
1629894327031,-0.5625,0.078125,0.8125
1629894327062,-0.5625,0.078125,0.8125
1629894327093,-0.5625,0.078125,0.8125
1629894327125,-0.5625,0.078125,0.8125
1629894327156,-0.546875,0.078125,0.8125
1629894327187,-0.5625,0.078125,0.8125
1629894327218,-0.5625,0.078125,0.8125
1629894327250,-0.5625,0.078125,0.8125
1629894327281,-0.546875,0.078125,0.8125
1629894327312,-0.5625,0.078125,0.8125
1629894327343,-0.546875,0.078125,0.8125
1629894327375,-0.5625,0.078125,0.8125
1629894327406,-0.5625,0.078125,0.8125
1629894327437,-0.546875,0.078125,0.8125
1629894327468,-0.5625,0.078125,0.8125
1629894327500,-0.5625,0.078125,0.8125
1629894327531,-0.546875,0.078125,0.8125
1629894327562,-0.546875,0.078125,0.8125
1629894327593,-0.5625,0.078125,0.8125
1629894327625,-0.5625,0.078125,0.8125
1629894327656,-0.546875,0.078125,0.8125
1629894327687,-0.546875,0.078125,0.8125
1629894327718,-0.5625,0.09375,0.8125
1629894327750,-0.5625,0.09375,0.8125
1629894327781,-0.546875,0.078125,0.8125
1629894327812,-0.546875,0.078125,0.8125
1629894327843,-0.546875,0.078125,0.8125
1629894327875,-0.5625,0.078125,0.8125
1629894327906,-0.5625,0.078125,0.8125
1629894327937,-0.546875,0.078125,0.8125
1629894327968,-0.546875,0.078125,0.8125
1629894328000,-0.546875,0.09375,0.8125
1629894328031,-0.546875,0.09375,0.8125
1629894328062,-0.5625,0.09375,0.8125
1629894328093,-0.546875,0.078125,0.8125
1629894328125,-0.5625,0.078125,0.8125
1629894328156,-0.5625,0.078125,0.8125
1629894328187,-0.5625,0.078125,0.8125
1629894328218,-0.5625,0.078125,0.8125
1629894328250,-0.5625,0.078125,0.8125
1629894328281,-0.5625,0.078125,0.8125
1629894328312,-0.546875,0.09375,0.8125
1629894328343,-0.5625,0.09375,0.8125
1629894328375,-0.5625,0.078125,0.8125
1629894328406,-0.5625,0.078125,0.8125
1629894328437,-0.5625,0.078125,0.8125
1629894328468,-0.5625,0.09375,0.8125
1629894328500,-0.5625,0.078125,0.8125
1629894328531,-0.5625,0.078125,0.8125
1629894328562,-0.546875,0.078125,0.8125
1629894328593,-0.5625,0.09375,0.8125
1629894328625,-0.5625,0.09375,0.8125
1629894328656,-0.5625,0.09375,0.8125
1629894328687,-0.5625,0.078125,0.8125
1629894328718,-0.546875,0.078125,0.8125
1629894328750,-0.546875,0.078125,0.8125
1629894328781,-0.5625,0.078125,0.8125
1629894328812,-0.5625,0.09375,0.8125
1629894328843,-0.5625,0.078125,0.8125
1629894328875,-0.546875,0.078125,0.8125
1629894328906,-0.5625,0.09375,0.8125
1629894328937,-0.546875,0.078125,0.8125
1629894328968,-0.5625,0.078125,0.8125
1629894329000,-0.5625,0.09375,0.8125
1629894329031,-0.5625,0.078125,0.8125
1629894329062,-0.546875,0.078125,0.8125
1629894329093,-0.5625,0.078125,0.8125
1629894329125,-0.5625,0.078125,0.8125
1629894329156,-0.546875,0.078125,0.8125
1629894329187,-0.546875,0.078125,0.8125
1629894329218,-0.5625,0.078125,0.8125
1629894329250,-0.5625,0.078125,0.8125
1629894329281,-0.546875,0.09375,0.8125
1629894329312,-0.546875,0.09375,0.8125
1629894329343,-0.546875,0.078125,0.8125
1629894329375,-0.5625,0.078125,0.8125
1629894329406,-0.5625,0.078125,0.8125
1629894329437,-0.5625,0.078125,0.8125
1629894329468,-0.5625,0.078125,0.8125
1629894329500,-0.5625,0.078125,0.8125
1629894329531,-0.5625,0.078125,0.8125
1629894329562,-0.546875,0.078125,0.8125
1629894329593,-0.546875,0.078125,0.8125
1629894329625,-0.546875,0.078125,0.8125
1629894329656,-0.5625,0.078125,0.8125
1629894329687,-0.5625,0.078125,0.8125
1629894329718,-0.546875,0.078125,0.8125
1629894329750,-0.546875,0.078125,0.8125
1629894329781,-0.5625,0.09375,0.8125
1629894329812,-0.5625,0.078125,0.8125
1629894329843,-0.5625,0.078125,0.8125
1629894329875,-0.5625,0.078125,0.8125
1629894329906,-0.546875,0.078125,0.8125
1629894329937,-0.546875,0.078125,0.8125
1629894329968,-0.5625,0.078125,0.8125
1629894330000,-0.5625,0.078125,0.8125
1629894330031,-0.5625,0.078125,0.8125
1629894330062,-0.546875,0.078125,0.8125
1629894330093,-0.546875,0.078125,0.8125
1629894330125,-0.5625,0.078125,0.8125
1629894330156,-0.5625,0.078125,0.8125
1629894330187,-0.546875,0.078125,0.8125
1629894330218,-0.546875,0.078125,0.8125
1629894330250,-0.5625,0.078125,0.8125
1629894330281,-0.5625,0.078125,0.8125
1629894330312,-0.546875,0.078125,0.8125
1629894330343,-0.5625,0.078125,0.8125
1629894330375,-0.5625,0.078125,0.8125
1629894330406,-0.546875,0.078125,0.8125
1629894330437,-0.5625,0.078125,0.8125
1629894330468,-0.546875,0.078125,0.8125
1629894330500,-0.546875,0.078125,0.8125
1629894330531,-0.5625,0.078125,0.8125
1629894330562,-0.5625,0.078125,0.8125
1629894330593,-0.546875,0.078125,0.8125
1629894330625,-0.546875,0.078125,0.8125
1629894330656,-0.546875,0.078125,0.8125
1629894330687,-0.5625,0.078125,0.8125
1629894330718,-0.5625,0.078125,0.8125
1629894330750,-0.5625,0.078125,0.8125
1629894330781,-0.546875,0.078125,0.8125
1629894330812,-0.546875,0.078125,0.8125
1629894330843,-0.546875,0.078125,0.8125
1629894330875,-0.546875,0.078125,0.8125
1629894330906,-0.546875,0.078125,0.8125
1629894330937,-0.546875,0.078125,0.8125
1629894330968,-0.546875,0.078125,0.8125
1629894331000,-0.546875,0.078125,0.8125
1629894331031,-0.546875,0.078125,0.8125
1629894331062,-0.546875,0.078125,0.8125
1629894331093,-0.5625,0.078125,0.8125
1629894331125,-0.5625,0.078125,0.8125
1629894331156,-0.546875,0.078125,0.8125
1629894331187,-0.546875,0.078125,0.8125
1629894331218,-0.5625,0.078125,0.8125
1629894331250,-0.5625,0.078125,0.8125
1629894331281,-0.546875,0.078125,0.8125
1629894331312,-0.546875,0.078125,0.8125
1629894331343,-0.5625,0.078125,0.8125
1629894331375,-0.546875,0.078125,0.8125
1629894331406,-0.546875,0.078125,0.8125
1629894331437,-0.546875,0.078125,0.8125
1629894331468,-0.546875,0.078125,0.8125
1629894331500,-0.546875,0.078125,0.8125
1629894331531,-0.5625,0.078125,0.8125
1629894331562,-0.546875,0.078125,0.8125
1629894331593,-0.546875,0.09375,0.8125
1629894331625,-0.546875,0.078125,0.8125
1629894331656,-0.5625,0.078125,0.8125
1629894331687,-0.546875,0.078125,0.8125
1629894331718,-0.5625,0.078125,0.8125
1629894331750,-0.5625,0.078125,0.8125
1629894331781,-0.546875,0.078125,0.8125
1629894331812,-0.546875,0.078125,0.8125
1629894331843,-0.5625,0.078125,0.8125
1629894331875,-0.5625,0.078125,0.8125
1629894331906,-0.5625,0.09375,0.8125
1629894331937,-0.5625,0.078125,0.8125
1629894331968,-0.546875,0.078125,0.8125
1629894332000,-0.5625,0.09375,0.8125
1629894332031,-0.5625,0.078125,0.8125
1629894332062,-0.546875,0.09375,0.8125
1629894332093,-0.5625,0.078125,0.8125
1629894332125,-0.546875,0.078125,0.8125
1629894332156,-0.546875,0.078125,0.8125
1629894332187,-0.5625,0.09375,0.8125
1629894332218,-0.5625,0.078125,0.8125
1629894332250,-0.546875,0.078125,0.8125
1629894332281,-0.546875,0.078125,0.8125
1629894332312,-0.5625,0.09375,0.8125
1629894332343,-0.5625,0.09375,0.8125
1629894332375,-0.5625,0.09375,0.8125
1629894332406,-0.5625,0.078125,0.8125
1629894332437,-0.546875,0.078125,0.8125
1629894332468,-0.546875,0.078125,0.8125
1629894332500,-0.5625,0.078125,0.8125
1629894332531,-0.5625,0.078125,0.8125
1629894332562,-0.546875,0.09375,0.8125
1629894332593,-0.546875,0.09375,0.8125
1629894332625,-0.5625,0.09375,0.8125
1629894332656,-0.5625,0.078125,0.8125
1629894332687,-0.5625,0.078125,0.8125
1629894332718,-0.546875,0.09375,0.8125
1629894332750,-0.5625,0.09375,0.8125
1629894332781,-0.546875,0.078125,0.8125
1629894332812,-0.546875,0.078125,0.8125
1629894332843,-0.546875,0.078125,0.8125
1629894332875,-0.546875,0.078125,0.8125
1629894332906,-0.546875,0.078125,0.8125
1629894332937,-0.546875,0.078125,0.8125
1629894332968,-0.5625,0.078125,0.8125
1629894333000,-0.5625,0.078125,0.8125
1629894333031,-0.546875,0.09375,0.8125
1629894333062,-0.5625,0.078125,0.8125
1629894333093,-0.5625,0.078125,0.8125
1629894333125,-0.546875,0.09375,0.8125
1629894333156,-0.546875,0.09375,0.8125
1629894333187,-0.5625,0.078125,0.8125
1629894333218,-0.546875,0.078125,0.8125
1629894333250,-0.546875,0.078125,0.8125
1629894333281,-0.546875,0.09375,0.8125
1629894333312,-0.5625,0.09375,0.8125
1629894333343,-0.546875,0.078125,0.8125
1629894333375,-0.546875,0.078125,0.8125
1629894333406,-0.546875,0.078125,0.8125
1629894333437,-0.546875,0.078125,0.8125
1629894333468,-0.5625,0.078125,0.8125
1629894333500,-0.5625,0.078125,0.8125
1629894333531,-0.546875,0.078125,0.8125
1629894333562,-0.546875,0.078125,0.8125
1629894333593,-0.546875,0.078125,0.8125
1629894333625,-0.546875,0.09375,0.8125
1629894333656,-0.5625,0.078125,0.8125
1629894333687,-0.546875,0.09375,0.8125
1629894333718,-0.5625,0.078125,0.8125
1629894333750,-0.546875,0.078125,0.8125
1629894333781,-0.546875,0.078125,0.8125
1629894333812,-0.546875,0.078125,0.8125
1629894333843,-0.546875,0.078125,0.8125
1629894333875,-0.546875,0.078125,0.8125
1629894333906,-0.5625,0.09375,0.8125
1629894333937,-0.546875,0.078125,0.8125
1629894333968,-0.5625,0.09375,0.8125
1629894334000,-0.546875,0.078125,0.8125
1629894334031,-0.546875,0.078125,0.8125
1629894334062,-0.5625,0.078125,0.8125
1629894334093,-0.546875,0.078125,0.8125
1629894334125,-0.546875,0.078125,0.8125
1629894334156,-0.546875,0.078125,0.8125
1629894334187,-0.546875,0.078125,0.8125
1629894334218,-0.546875,0.078125,0.8125
1629894334250,-0.546875,0.078125,0.8125
1629894334281,-0.546875,0.078125,0.828125
1629894334312,-0.546875,0.078125,0.8125
1629894334343,-0.5625,0.078125,0.8125
1629894334375,-0.546875,0.078125,0.8125
1629894334406,-0.546875,0.078125,0.8125
1629894334437,-0.546875,0.078125,0.8125
1629894334468,-0.546875,0.078125,0.8125
1629894334500,-0.546875,0.078125,0.8125
1629894334531,-0.5625,0.078125,0.8125
1629894334562,-0.546875,0.078125,0.8125
1629894334593,-0.546875,0.078125,0.8125
1629894334625,-0.546875,0.078125,0.8125
1629894334656,-0.546875,0.078125,0.8125
1629894334687,-0.546875,0.078125,0.8125
1629894334718,-0.546875,0.078125,0.8125
1629894334750,-0.546875,0.078125,0.8125
1629894334781,-0.546875,0.078125,0.8125
1629894334812,-0.546875,0.078125,0.8125
1629894334843,-0.546875,0.078125,0.8125
1629894334875,-0.546875,0.078125,0.828125
1629894334906,-0.546875,0.078125,0.8125
1629894334937,-0.5625,0.078125,0.8125
1629894334968,-0.5625,0.078125,0.8125
1629894335000,-0.546875,0.078125,0.8125
1629894335031,-0.546875,0.078125,0.8125
1629894335062,-0.546875,0.078125,0.8125
1629894335093,-0.546875,0.078125,0.8125
1629894335125,-0.546875,0.078125,0.8125
1629894335156,-0.546875,0.078125,0.8125
1629894335187,-0.546875,0.078125,0.8125
1629894335218,-0.5625,0.078125,0.8125
1629894335250,-0.5625,0.078125,0.8125
1629894335281,-0.546875,0.078125,0.8125
1629894335312,-0.546875,0.078125,0.8125
1629894335343,-0.5625,0.078125,0.8125
1629894335375,-0.546875,0.078125,0.8125
1629894335406,-0.5625,0.078125,0.8125
1629894335437,-0.546875,0.078125,0.8125
1629894335468,-0.546875,0.078125,0.8125
1629894335500,-0.546875,0.078125,0.8125
1629894335531,-0.546875,0.078125,0.8125
1629894335562,-0.546875,0.078125,0.8125
1629894335593,-0.546875,0.078125,0.8125
1629894335625,-0.5625,0.078125,0.8125
1629894335656,-0.546875,0.078125,0.8125
1629894335687,-0.546875,0.09375,0.8125
1629894335718,-0.546875,0.078125,0.8125
1629894335750,-0.546875,0.09375,0.8125
1629894335781,-0.546875,0.078125,0.8125
1629894335812,-0.546875,0.078125,0.8125
1629894335843,-0.546875,0.078125,0.8125
1629894335875,-0.5625,0.078125,0.8125
1629894335906,-0.546875,0.078125,0.8125
1629894335937,-0.546875,0.09375,0.8125
1629894335968,-0.546875,0.09375,0.8125
1629894336000,-0.546875,0.078125,0.8125
1629894336031,-0.546875,0.09375,0.8125
1629894336062,-0.546875,0.078125,0.8125
1629894336093,-0.546875,0.078125,0.8125
1629894336125,-0.546875,0.09375,0.8125
1629894336156,-0.5625,0.078125,0.8125
1629894336187,-0.546875,0.078125,0.8125
1629894336218,-0.546875,0.078125,0.8125
1629894336250,-0.5625,0.09375,0.8125
1629894336281,-0.546875,0.09375,0.8125
1629894336312,-0.546875,0.09375,0.8125
1629894336343,-0.546875,0.09375,0.8125
1629894336375,-0.546875,0.078125,0.8125
1629894336406,-0.546875,0.078125,0.8125
1629894336437,-0.546875,0.078125,0.8125
1629894336468,-0.5625,0.078125,0.8125
1629894336500,-0.546875,0.078125,0.8125
1629894336531,-0.546875,0.09375,0.8125
1629894336562,-0.546875,0.09375,0.8125
1629894336593,-0.546875,0.09375,0.8125
1629894336625,-0.546875,0.09375,0.8125
1629894336656,-0.546875,0.09375,0.8125
1629894336687,-0.546875,0.09375,0.8125
1629894336718,-0.5625,0.09375,0.8125
1629894336750,-0.546875,0.078125,0.8125
1629894336781,-0.546875,0.078125,0.8125
1629894336812,-0.546875,0.078125,0.8125
1629894336843,-0.5625,0.09375,0.8125
1629894336875,-0.546875,0.09375,0.8125
1629894336906,-0.546875,0.09375,0.8125
1629894336937,-0.546875,0.078125,0.8125
1629894336968,-0.546875,0.078125,0.8125
1629894337000,-0.5625,0.078125,0.8125
1629894337031,-0.5625,0.09375,0.8125
1629894337062,-0.546875,0.078125,0.8125
1629894337093,-0.546875,0.078125,0.8125
1629894337125,-0.546875,0.09375,0.8125
1629894337156,-0.546875,0.09375,0.8125
1629894337187,-0.546875,0.078125,0.8125
1629894337218,-0.546875,0.09375,0.8125
1629894337250,-0.546875,0.09375,0.8125
1629894337281,-0.546875,0.078125,0.8125
1629894337312,-0.546875,0.078125,0.8125
1629894337343,-0.546875,0.078125,0.8125
1629894337375,-0.546875,0.078125,0.8125
1629894337406,-0.546875,0.09375,0.8125
1629894337437,-0.5625,0.078125,0.8125
1629894337468,-0.546875,0.078125,0.8125
1629894337500,-0.546875,0.09375,0.8125
1629894337531,-0.546875,0.09375,0.8125
1629894337562,-0.546875,0.078125,0.8125
1629894337593,-0.5625,0.078125,0.8125
1629894337625,-0.546875,0.078125,0.8125
1629894337656,-0.546875,0.078125,0.8125
1629894337687,-0.5625,0.078125,0.8125
1629894337718,-0.546875,0.078125,0.8125
1629894337750,-0.546875,0.078125,0.8125
1629894337781,-0.546875,0.078125,0.8125
1629894337812,-0.546875,0.078125,0.8125
1629894337843,-0.5625,0.078125,0.8125
1629894337875,-0.5625,0.078125,0.8125
1629894337906,-0.546875,0.078125,0.828125
1629894337937,-0.546875,0.078125,0.8125
1629894337968,-0.546875,0.09375,0.8125
1629894338000,-0.5625,0.09375,0.8125
1629894338031,-0.5625,0.09375,0.796875
1629894338062,-0.5625,0.078125,0.796875
1629894338093,-0.5625,0.078125,0.8125
1629894338125,-0.5625,0.078125,0.8125
1629894338156,-0.5625,0.078125,0.8125
1629894338187,-0.5625,0.078125,0.8125
1629894338218,-0.5625,0.078125,0.8125
1629894338250,-0.546875,0.09375,0.8125
1629894338281,-0.5625,0.078125,0.8125
1629894338312,-0.546875,0.078125,0.828125
1629894338343,-0.53125,0.078125,0.828125
1629894338375,-0.546875,0.078125,0.828125
1629894338406,-0.5625,0.078125,0.8125
1629894338437,-0.5625,0.078125,0.8125
1629894338468,-0.59375,0.078125,0.78125
1629894338500,-0.609375,0.078125,0.78125
1629894338531,-0.59375,0.078125,0.78125
1629894338562,-0.59375,0.0625,0.78125
1629894338593,-0.59375,0.0625,0.78125
1629894338625,-0.578125,0.0625,0.796875
1629894338656,-0.578125,0.078125,0.796875
1629894338687,-0.578125,0.0625,0.796875
1629894338718,-0.578125,0.078125,0.796875
1629894338750,-0.578125,0.078125,0.796875
1629894338781,-0.578125,0.078125,0.796875
1629894338812,-0.578125,0.0625,0.796875
1629894338843,-0.578125,0.078125,0.796875
1629894338875,-0.578125,0.0625,0.796875
1629894338906,-0.578125,0.078125,0.796875
1629894338937,-0.578125,0.0625,0.796875
1629894338968,-0.578125,0.0625,0.796875
1629894339000,-0.578125,0.0625,0.796875
1629894339031,-0.578125,0.0625,0.8125
1629894339062,-0.578125,0.0625,0.8125
1629894339093,-0.578125,0.0625,0.796875
1629894339125,-0.5625,0.0625,0.796875
1629894339156,-0.578125,0.078125,0.796875
1629894339187,-0.59375,0.078125,0.78125
1629894339218,-0.59375,0.0625,0.796875
1629894339250,-0.59375,0.0625,0.796875
1629894339281,-0.59375,0.0625,0.78125
1629894339312,-0.59375,0.0625,0.78125
1629894339343,-0.578125,0.0625,0.796875
1629894339375,-0.578125,0.0625,0.796875
1629894339406,-0.59375,0.0625,0.796875
1629894339437,-0.59375,0.0625,0.78125
1629894339468,-0.59375,0.0625,0.796875
1629894339500,-0.578125,0.0625,0.796875
1629894339531,-0.578125,0.0625,0.796875
1629894339562,-0.578125,0.0625,0.796875
1629894339593,-0.59375,0.0625,0.78125
1629894339625,-0.609375,0.0625,0.765625
1629894339656,-0.578125,0.09375,0.78125
1629894339687,-0.609375,0.078125,0.796875
1629894339718,-0.59375,0.078125,0.796875
1629894339750,-0.59375,0.09375,0.78125
1629894339781,-0.578125,0.078125,0.796875
1629894339812,-0.578125,0.09375,0.796875
1629894339843,-0.578125,0.09375,0.796875
1629894339875,-0.578125,0.09375,0.796875
1629894339906,-0.578125,0.09375,0.796875
1629894339937,-0.578125,0.09375,0.796875
1629894339968,-0.578125,0.09375,0.796875
1629894340000,-0.578125,0.09375,0.796875
1629894340031,-0.578125,0.09375,0.796875
1629894340062,-0.578125,0.09375,0.796875
1629894340093,-0.578125,0.09375,0.796875
1629894340125,-0.578125,0.09375,0.796875
1629894340156,-0.578125,0.09375,0.796875
1629894340187,-0.578125,0.09375,0.796875
1629894340218,-0.578125,0.09375,0.796875
1629894340250,-0.578125,0.09375,0.796875
1629894340281,-0.578125,0.09375,0.796875
1629894340312,-0.578125,0.09375,0.78125
1629894340343,-0.578125,0.09375,0.78125
1629894340375,-0.578125,0.09375,0.796875
1629894340406,-0.5625,0.09375,0.796875
1629894340437,-0.5625,0.09375,0.8125
1629894340468,-0.5625,0.09375,0.8125
1629894340500,-0.5625,0.09375,0.796875
1629894340531,-0.578125,0.09375,0.796875
1629894340562,-0.578125,0.09375,0.796875
1629894340593,-0.578125,0.09375,0.796875
1629894340625,-0.578125,0.09375,0.796875
1629894340656,-0.578125,0.09375,0.796875
1629894340687,-0.5625,0.09375,0.8125
1629894340718,-0.5625,0.09375,0.796875
1629894340750,-0.5625,0.09375,0.796875
1629894340781,-0.5625,0.09375,0.8125
1629894340812,-0.5625,0.09375,0.796875
1629894340843,-0.578125,0.09375,0.796875
1629894340875,-0.5625,0.09375,0.796875
1629894340906,-0.5625,0.09375,0.8125
1629894340937,-0.5625,0.09375,0.796875
1629894340968,-0.5625,0.09375,0.796875
1629894341000,-0.5625,0.09375,0.796875
1629894341031,-0.5625,0.09375,0.8125
1629894341062,-0.5625,0.09375,0.796875
1629894341093,-0.578125,0.09375,0.796875
1629894341125,-0.5625,0.09375,0.796875
1629894341156,-0.5625,0.109375,0.796875
1629894341187,-0.5625,0.09375,0.796875
1629894341218,-0.5625,0.09375,0.796875
1629894341250,-0.5625,0.09375,0.8125
1629894341281,-0.5625,0.09375,0.796875
1629894341312,-0.5625,0.09375,0.796875
1629894341343,-0.5625,0.09375,0.796875
1629894341375,-0.5625,0.09375,0.8125
1629894341406,-0.5625,0.09375,0.8125
1629894341437,-0.5625,0.09375,0.796875
1629894341468,-0.5625,0.09375,0.796875
1629894341500,-0.578125,0.09375,0.796875
1629894341531,-0.5625,0.09375,0.796875
1629894341562,-0.5625,0.09375,0.796875
1629894341593,-0.5625,0.09375,0.8125
1629894341625,-0.5625,0.09375,0.8125
1629894341656,-0.5625,0.09375,0.796875
1629894341687,-0.578125,0.09375,0.796875
1629894341718,-0.578125,0.09375,0.796875
1629894341750,-0.5625,0.09375,0.796875
1629894341781,-0.5625,0.09375,0.796875
1629894341812,-0.5625,0.09375,0.796875
1629894341843,-0.5625,0.09375,0.796875
1629894341875,-0.5625,0.09375,0.796875
1629894341906,-0.5625,0.09375,0.796875
1629894341937,-0.5625,0.09375,0.796875
1629894341968,-0.5625,0.09375,0.796875
1629894342000,-0.578125,0.09375,0.796875
1629894342031,-0.5625,0.09375,0.796875
1629894342062,-0.5625,0.09375,0.796875
1629894342093,-0.5625,0.09375,0.8125
1629894342125,-0.5625,0.09375,0.796875
1629894342156,-0.578125,0.09375,0.796875
1629894342187,-0.5625,0.09375,0.796875
1629894342218,-0.5625,0.09375,0.796875
1629894342250,-0.5625,0.09375,0.796875
1629894342281,-0.578125,0.09375,0.8125
1629894342312,-0.5625,0.09375,0.796875
1629894342343,-0.5625,0.09375,0.8125
1629894342375,-0.5625,0.09375,0.796875
1629894342406,-0.578125,0.09375,0.796875
1629894342437,-0.578125,0.09375,0.796875
1629894342468,-0.5625,0.09375,0.796875
1629894342500,-0.5625,0.09375,0.8125
1629894342531,-0.5625,0.09375,0.796875
1629894342562,-0.5625,0.09375,0.796875
1629894342593,-0.5625,0.09375,0.796875
1629894342625,-0.5625,0.09375,0.796875
1629894342656,-0.5625,0.09375,0.796875
1629894342687,-0.5625,0.09375,0.8125
1629894342718,-0.5625,0.09375,0.796875
1629894342750,-0.5625,0.09375,0.8125
1629894342781,-0.5625,0.09375,0.796875
1629894342812,-0.5625,0.09375,0.796875
1629894342843,-0.5625,0.09375,0.796875
1629894342875,-0.5625,0.09375,0.796875
1629894342906,-0.5625,0.09375,0.796875
1629894342937,-0.5625,0.09375,0.8125
1629894342968,-0.5625,0.09375,0.796875
1629894343000,-0.5625,0.09375,0.8125
1629894343031,-0.5625,0.09375,0.796875
1629894343062,-0.5625,0.09375,0.8125
1629894343093,-0.5625,0.09375,0.796875
1629894343125,-0.5625,0.09375,0.796875
1629894343156,-0.5625,0.09375,0.796875
1629894343187,-0.5625,0.09375,0.796875
1629894343218,-0.5625,0.09375,0.8125
1629894343250,-0.5625,0.09375,0.796875
1629894343281,-0.5625,0.09375,0.8125
1629894343312,-0.5625,0.09375,0.8125
1629894343343,-0.5625,0.09375,0.796875
1629894343375,-0.578125,0.09375,0.796875
1629894343406,-0.578125,0.09375,0.796875
1629894343437,-0.5625,0.09375,0.796875
1629894343468,-0.5625,0.09375,0.8125
1629894343500,-0.5625,0.09375,0.8125
1629894343531,-0.578125,0.09375,0.796875
1629894343562,-0.578125,0.09375,0.796875
1629894343593,-0.578125,0.09375,0.796875
1629894343625,-0.5625,0.09375,0.796875
1629894343656,-0.5625,0.09375,0.796875
1629894343687,-0.5625,0.09375,0.796875
1629894343718,-0.5625,0.09375,0.796875
1629894343750,-0.5625,0.09375,0.796875
1629894343781,-0.5625,0.09375,0.796875
1629894343812,-0.5625,0.09375,0.796875
1629894343843,-0.5625,0.09375,0.8125
1629894343875,-0.5625,0.09375,0.796875
1629894343906,-0.5625,0.09375,0.796875
1629894343937,-0.5625,0.09375,0.8125
1629894343968,-0.5625,0.09375,0.796875
1629894344000,-0.5625,0.09375,0.8125
1629894344031,-0.5625,0.09375,0.796875
1629894344062,-0.578125,0.09375,0.796875
1629894344093,-0.5625,0.09375,0.796875
1629894344125,-0.5625,0.09375,0.796875
1629894344156,-0.5625,0.09375,0.796875
1629894344187,-0.578125,0.09375,0.796875
1629894344218,-0.5625,0.09375,0.8125
1629894344250,-0.5625,0.09375,0.8125
1629894344281,-0.5625,0.09375,0.8125
1629894344312,-0.5625,0.09375,0.796875
1629894344343,-0.578125,0.09375,0.796875
1629894344375,-0.5625,0.09375,0.796875
1629894344406,-0.5625,0.109375,0.796875
1629894344437,-0.5625,0.109375,0.8125
1629894344468,-0.5625,0.109375,0.796875
1629894344500,-0.5625,0.09375,0.8125
1629894344531,-0.5625,0.09375,0.796875
1629894344562,-0.5625,0.09375,0.796875
1629894344593,-0.5625,0.09375,0.796875
1629894344625,-0.5625,0.09375,0.796875
1629894344656,-0.5625,0.09375,0.796875
1629894344687,-0.5625,0.09375,0.796875
1629894344718,-0.578125,0.09375,0.796875
1629894344750,-0.5625,0.09375,0.8125
1629894344781,-0.5625,0.09375,0.796875
1629894344812,-0.5625,0.109375,0.796875
1629894344843,-0.5625,0.09375,0.796875
1629894344875,-0.5625,0.09375,0.796875
1629894344906,-0.5625,0.109375,0.796875
1629894344937,-0.5625,0.09375,0.8125
1629894344968,-0.5625,0.09375,0.796875
1629894345000,-0.578125,0.09375,0.796875
1629894345031,-0.5625,0.09375,0.796875
1629894345062,-0.5625,0.09375,0.8125
1629894345093,-0.5625,0.109375,0.796875
1629894345125,-0.578125,0.109375,0.796875
1629894345156,-0.578125,0.109375,0.796875
1629894345187,-0.5625,0.09375,0.8125
1629894345218,-0.5625,0.09375,0.8125
1629894345250,-0.5625,0.09375,0.796875
1629894345281,-0.578125,0.109375,0.8125
1629894345312,-0.578125,0.109375,0.796875
1629894345343,-0.5625,0.109375,0.796875
1629894345375,-0.5625,0.109375,0.8125
1629894345406,-0.5625,0.109375,0.8125
1629894345437,-0.578125,0.109375,0.796875
1629894345468,-0.578125,0.09375,0.78125
1629894345500,-0.578125,0.078125,0.796875
1629894345531,-0.578125,0.078125,0.796875
1629894345562,-0.578125,0.078125,0.796875
1629894345593,-0.578125,0.078125,0.796875
1629894345625,-0.5625,0.078125,0.796875
1629894345656,-0.5625,0.078125,0.8125
1629894345687,-0.5625,0.09375,0.8125
1629894345718,-0.5625,0.09375,0.796875
1629894345750,-0.578125,0.09375,0.796875
1629894345781,-0.5625,0.09375,0.796875
1629894345812,-0.578125,0.09375,0.796875
1629894345843,-0.5625,0.09375,0.796875
1629894345875,-0.5625,0.09375,0.796875
1629894345906,-0.578125,0.078125,0.78125
1629894345937,-0.59375,0.046875,0.78125
1629894345968,-0.5625,0.0625,0.78125
1629894346000,-0.5625,0.078125,0.796875
1629894346031,-0.578125,0.078125,0.78125
1629894346062,-0.59375,0.109375,0.78125
1629894346093,-0.625,0.109375,0.796875
1629894346125,-0.59375,0.125,0.796875
1629894346156,-0.59375,0.109375,0.796875
1629894346187,-0.59375,0.109375,0.796875
1629894346218,-0.578125,0.09375,0.78125
1629894346250,-0.59375,0.09375,0.796875
1629894346281,-0.578125,0.09375,0.796875
1629894346312,-0.578125,0.09375,0.796875
1629894346343,-0.578125,0.09375,0.796875
1629894346375,-0.59375,0.09375,0.765625
1629894346406,-0.578125,0.09375,0.8125
1629894346437,-0.5625,0.09375,0.796875
1629894346468,-0.59375,0.09375,0.796875
1629894346500,-0.59375,0.09375,0.796875
1629894346531,-0.578125,0.078125,0.796875
1629894346562,-0.5625,0.078125,0.796875
1629894346593,-0.546875,0.078125,0.796875
1629894346625,-0.546875,0.078125,0.78125
1629894346656,-0.578125,0.09375,0.765625
1629894346687,-0.625,0.109375,0.765625
1629894346718,-0.609375,0.09375,0.75
1629894346750,-0.65625,0.109375,0.75
1629894346781,-0.6875,0.125,0.71875
1629894346812,-0.734375,0.125,0.6875
1629894346843,-0.75,0.125,0.6875
1629894346875,-0.734375,0.109375,0.65625
1629894346906,-0.71875,0.109375,0.65625
1629894346937,-0.703125,0.09375,0.671875
1629894346968,-0.703125,0.09375,0.703125
1629894347000,-0.71875,0.09375,0.703125
1629894347031,-0.71875,0.09375,0.6875
1629894347062,-0.71875,0.09375,0.671875
1629894347093,-0.71875,0.09375,0.6875
1629894347125,-0.75,0.078125,0.671875
1629894347156,-0.75,0.078125,0.65625
1629894347187,-0.75,0.078125,0.671875
1629894347218,-0.71875,0.078125,0.671875
1629894347250,-0.6875,0.0625,0.6875
1629894347281,-0.6875,0.046875,0.703125
1629894347312,-0.671875,0.03125,0.6875
1629894347343,-0.671875,0.03125,0.6875
1629894347375,-0.6875,0.0625,0.6875
1629894347406,-0.75,0.09375,0.671875
1629894347437,-0.71875,0.09375,0.75
1629894347468,-0.671875,0.0625,0.75
1629894347500,-0.71875,0.0625,0.6875
1629894347531,-0.71875,0.078125,0.671875
1629894347562,-0.65625,0.0625,0.703125
1629894347593,-0.640625,0.046875,0.734375
1629894347625,-0.65625,0.046875,0.734375
1629894347656,-0.640625,0.046875,0.734375
1629894347687,-0.671875,0.046875,0.71875
1629894347718,-0.671875,0.046875,0.71875
1629894347750,-0.65625,0.046875,0.734375
1629894347781,-0.640625,0.046875,0.765625
1629894347812,-0.640625,0.046875,0.75
1629894347843,-0.640625,0.046875,0.75
1629894347875,-0.640625,0.046875,0.734375
1629894347906,-0.640625,0.046875,0.734375
1629894347937,-0.640625,0.046875,0.734375
1629894347968,-0.65625,0.0625,0.71875
1629894348000,-0.65625,0.0625,0.71875
1629894348031,-0.640625,0.0625,0.734375
1629894348062,-0.625,0.0625,0.765625
1629894348093,-0.640625,0.0625,0.765625
1629894348125,-0.609375,0.046875,0.8125
1629894348156,-0.59375,0.046875,0.78125
1629894348187,-0.59375,0.0625,0.78125
1629894348218,-0.625,0.046875,0.765625
1629894348250,-0.625,0.046875,0.75
1629894348281,-0.640625,0.046875,0.75
1629894348312,-0.640625,0.0625,0.75
1629894348343,-0.640625,0.0625,0.734375
1629894348375,-0.609375,0.0625,0.765625
1629894348406,-0.59375,0.0625,0.796875
1629894348437,-0.59375,0.0625,0.8125
1629894348468,-0.59375,0.0625,0.78125
1629894348500,-0.59375,0.0625,0.78125
1629894348531,-0.59375,0.046875,0.78125
1629894348562,-0.609375,0.03125,0.78125
1629894348593,-0.609375,0.03125,0.765625
1629894348625,-0.625,0.03125,0.765625
1629894348656,-0.625,0.046875,0.78125
1629894348687,-0.625,0.0625,0.796875
1629894348718,-0.546875,0.046875,0.84375
1629894348750,-0.46875,0.015625,0.875
1629894348781,-0.234375,-0.03125,0.90625
1629894348812,-0.296875,0.0,0.875
1629894348843,-0.609375,0.078125,0.734375
1629894348875,-0.84375,0.140625,0.578125
1629894348906,-0.875,0.140625,0.546875
1629894348937,-0.90625,0.15625,0.53125
1629894348968,-1.0625,0.171875,0.421875
1629894349000,-1.109375,0.125,0.375
1629894349031,-0.90625,0.09375,0.546875
1629894349062,-0.796875,0.09375,0.625
1629894349093,-0.671875,0.09375,0.71875
1629894349125,-0.609375,0.078125,0.765625
1629894349156,-0.546875,0.078125,0.796875
1629894349187,-0.515625,0.09375,0.828125
1629894349218,-0.5,0.109375,0.828125
1629894349250,-0.53125,0.09375,0.828125
1629894349281,-0.609375,0.09375,0.78125
1629894349312,-0.640625,0.078125,0.765625
1629894349343,-0.671875,0.078125,0.734375
1629894349375,-0.671875,0.0625,0.71875
1629894349406,-0.671875,0.046875,0.71875
1629894349437,-0.640625,0.0625,0.734375
1629894349468,-0.625,0.078125,0.734375
1629894349500,-0.640625,0.125,0.78125
1629894349531,-0.671875,0.140625,0.765625
1629894349562,-0.609375,0.09375,0.75
1629894349593,-0.65625,0.125,0.765625
1629894349625,-0.640625,0.140625,0.8125
1629894349656,-0.625,0.125,0.765625
1629894349687,-0.59375,0.046875,0.71875
1629894349718,-0.59375,0.015625,0.734375
1629894349750,-0.671875,0.046875,0.765625
1629894349781,-0.6875,0.078125,0.765625
1629894349812,-0.6875,0.0625,0.6875
1629894349843,-0.59375,0.03125,0.734375
1629894349875,-0.59375,0.046875,0.765625
1629894349906,-0.640625,0.0625,0.75
1629894349937,-0.640625,0.078125,0.765625
1629894349968,-0.625,0.078125,0.75
1629894350000,-0.640625,0.078125,0.765625
1629894350031,-0.671875,0.0625,0.75
1629894350062,-0.6875,0.0625,0.734375
1629894350093,-0.65625,0.0625,0.734375
1629894350125,-0.609375,0.078125,0.765625
1629894350156,-0.625,0.078125,0.75
1629894350187,-0.625,0.078125,0.75
1629894350218,-0.640625,0.078125,0.765625
1629894350250,-0.640625,0.078125,0.765625
1629894350281,-0.640625,0.078125,0.75
1629894350312,-0.625,0.078125,0.765625
1629894350343,-0.640625,0.0625,0.765625
1629894350375,-0.640625,0.0625,0.75
1629894350406,-0.625,0.0625,0.75
1629894350437,-0.59375,0.046875,0.765625
1629894350468,-0.59375,0.046875,0.765625
1629894350500,-0.59375,0.0625,0.75
1629894350531,-0.625,0.078125,0.765625
1629894350562,-0.625,0.09375,0.765625
1629894350593,-0.640625,0.09375,0.765625
1629894350625,-0.65625,0.09375,0.765625
1629894350656,-0.640625,0.078125,0.765625
1629894350687,-0.65625,0.0625,0.765625
1629894350718,-0.59375,0.078125,0.765625
1629894350750,-0.578125,0.09375,0.734375
1629894350781,-0.71875,0.140625,0.640625
1629894350812,-0.828125,0.09375,0.625
1629894350843,-0.640625,0.09375,0.765625
1629894350875,-0.703125,0.09375,0.671875
1629894350906,-0.671875,0.109375,0.71875
1629894350937,-0.671875,0.109375,0.734375
1629894350968,-0.671875,0.109375,0.734375
1629894351000,-0.65625,0.09375,0.734375
1629894351031,-0.65625,0.09375,0.734375
1629894351062,-0.671875,0.09375,0.734375
1629894351093,-0.671875,0.09375,0.71875
1629894351125,-0.671875,0.078125,0.734375
1629894351156,-0.671875,0.078125,0.734375
1629894351187,-0.671875,0.09375,0.71875
1629894351218,-0.671875,0.09375,0.734375
1629894351250,-0.65625,0.09375,0.734375
1629894351281,-0.640625,0.09375,0.734375
1629894351312,-0.65625,0.09375,0.734375
1629894351343,-0.671875,0.09375,0.734375
1629894351375,-0.671875,0.09375,0.734375
1629894351406,-0.65625,0.078125,0.71875
1629894351437,-0.65625,0.078125,0.734375
1629894351468,-0.65625,0.09375,0.734375
1629894351500,-0.671875,0.09375,0.734375
1629894351531,-0.671875,0.078125,0.734375
1629894351562,-0.65625,0.078125,0.734375
1629894351593,-0.65625,0.078125,0.734375
1629894351625,-0.65625,0.078125,0.734375
1629894351656,-0.65625,0.078125,0.734375
1629894351687,-0.671875,0.09375,0.734375
1629894351718,-0.671875,0.078125,0.734375
1629894351750,-0.65625,0.09375,0.734375
1629894351781,-0.65625,0.078125,0.734375
1629894351812,-0.65625,0.078125,0.734375
1629894351843,-0.65625,0.09375,0.734375
1629894351875,-0.65625,0.078125,0.734375
1629894351906,-0.65625,0.078125,0.734375
1629894351937,-0.65625,0.078125,0.734375
1629894351968,-0.65625,0.078125,0.734375
1629894352000,-0.65625,0.078125,0.734375
1629894352031,-0.65625,0.078125,0.734375
1629894352062,-0.65625,0.078125,0.734375
1629894352093,-0.65625,0.078125,0.734375
1629894352125,-0.65625,0.078125,0.734375
1629894352156,-0.671875,0.078125,0.734375
1629894352187,-0.65625,0.078125,0.734375
1629894352218,-0.65625,0.078125,0.734375
1629894352250,-0.65625,0.078125,0.734375
1629894352281,-0.65625,0.078125,0.734375
1629894352312,-0.65625,0.078125,0.734375
1629894352343,-0.65625,0.078125,0.734375
1629894352375,-0.65625,0.078125,0.734375
1629894352406,-0.65625,0.078125,0.734375
1629894352437,-0.65625,0.078125,0.734375
1629894352468,-0.65625,0.078125,0.734375
1629894352500,-0.65625,0.09375,0.734375
1629894352531,-0.65625,0.078125,0.734375
1629894352562,-0.65625,0.09375,0.734375
1629894352593,-0.65625,0.078125,0.734375
1629894352625,-0.671875,0.078125,0.734375
1629894352656,-0.671875,0.078125,0.734375
1629894352687,-0.65625,0.078125,0.734375
1629894352718,-0.65625,0.078125,0.734375
1629894352750,-0.65625,0.078125,0.734375
1629894352781,-0.65625,0.078125,0.734375
1629894352812,-0.65625,0.078125,0.734375
1629894352843,-0.65625,0.09375,0.734375
1629894352875,-0.65625,0.078125,0.734375
1629894352906,-0.65625,0.09375,0.734375
1629894352937,-0.65625,0.078125,0.734375
1629894352968,-0.65625,0.078125,0.734375
1629894353000,-0.65625,0.078125,0.734375
1629894353031,-0.671875,0.078125,0.734375
1629894353062,-0.65625,0.078125,0.734375
1629894353093,-0.65625,0.078125,0.734375
1629894353125,-0.65625,0.09375,0.734375
1629894353156,-0.65625,0.078125,0.734375
1629894353187,-0.65625,0.078125,0.734375
1629894353218,-0.65625,0.078125,0.734375
1629894353250,-0.65625,0.078125,0.734375
1629894353281,-0.671875,0.078125,0.734375
1629894353312,-0.65625,0.078125,0.734375
1629894353343,-0.65625,0.078125,0.734375
1629894353375,-0.65625,0.078125,0.734375
1629894353406,-0.65625,0.078125,0.734375
1629894353437,-0.65625,0.078125,0.734375
1629894353468,-0.65625,0.078125,0.734375
1629894353500,-0.65625,0.078125,0.734375
1629894353531,-0.65625,0.09375,0.734375
1629894353562,-0.65625,0.078125,0.734375
1629894353593,-0.65625,0.078125,0.734375
1629894353625,-0.65625,0.078125,0.734375
1629894353656,-0.65625,0.078125,0.734375
1629894353687,-0.671875,0.078125,0.71875
1629894353718,-0.65625,0.09375,0.71875
1629894353750,-0.671875,0.09375,0.734375
1629894353781,-0.671875,0.09375,0.734375
1629894353812,-0.65625,0.09375,0.734375
1629894353843,-0.65625,0.09375,0.734375
1629894353875,-0.671875,0.078125,0.734375
1629894353906,-0.65625,0.078125,0.71875
1629894353937,-0.65625,0.078125,0.734375
1629894353968,-0.65625,0.078125,0.734375
1629894354000,-0.65625,0.09375,0.734375
1629894354031,-0.65625,0.09375,0.734375
1629894354062,-0.65625,0.078125,0.734375
1629894354093,-0.65625,0.09375,0.734375
1629894354125,-0.65625,0.078125,0.734375
1629894354156,-0.65625,0.09375,0.734375
1629894354187,-0.671875,0.078125,0.734375
1629894354218,-0.65625,0.09375,0.734375
1629894354250,-0.671875,0.09375,0.734375
1629894354281,-0.671875,0.09375,0.734375
1629894354312,-0.671875,0.09375,0.734375
1629894354343,-0.671875,0.09375,0.734375
1629894354375,-0.65625,0.09375,0.734375
1629894354406,-0.671875,0.09375,0.734375
1629894354437,-0.65625,0.09375,0.734375
1629894354468,-0.65625,0.09375,0.734375
1629894354500,-0.671875,0.078125,0.734375
1629894354531,-0.65625,0.09375,0.734375
1629894354562,-0.671875,0.09375,0.734375
1629894354593,-0.671875,0.078125,0.734375
1629894354625,-0.65625,0.09375,0.734375
1629894354656,-0.65625,0.09375,0.734375
1629894354687,-0.671875,0.09375,0.734375
1629894354718,-0.65625,0.078125,0.71875
1629894354750,-0.65625,0.09375,0.734375
1629894354781,-0.671875,0.09375,0.734375
1629894354812,-0.671875,0.09375,0.734375
1629894354843,-0.671875,0.09375,0.734375
1629894354875,-0.65625,0.09375,0.734375
1629894354906,-0.65625,0.09375,0.734375
1629894354937,-0.65625,0.078125,0.734375
1629894354968,-0.671875,0.09375,0.734375
1629894355000,-0.671875,0.09375,0.71875
1629894355031,-0.671875,0.09375,0.734375
1629894355062,-0.65625,0.09375,0.734375
1629894355093,-0.65625,0.09375,0.734375
1629894355125,-0.65625,0.09375,0.734375
1629894355156,-0.671875,0.09375,0.734375
1629894355187,-0.65625,0.09375,0.734375
1629894355218,-0.65625,0.09375,0.734375
1629894355250,-0.65625,0.078125,0.734375
1629894355281,-0.65625,0.09375,0.71875
1629894355312,-0.65625,0.09375,0.734375
1629894355343,-0.671875,0.09375,0.734375
1629894355375,-0.671875,0.09375,0.71875
1629894355406,-0.65625,0.09375,0.734375
1629894355437,-0.65625,0.09375,0.734375
1629894355468,-0.671875,0.078125,0.734375
1629894355500,-0.671875,0.078125,0.734375
1629894355531,-0.65625,0.078125,0.734375
1629894355562,-0.65625,0.09375,0.734375
1629894355593,-0.65625,0.09375,0.734375
1629894355625,-0.671875,0.078125,0.734375
1629894355656,-0.65625,0.078125,0.734375
1629894355687,-0.65625,0.078125,0.734375
1629894355718,-0.65625,0.078125,0.734375
1629894355750,-0.671875,0.078125,0.734375
1629894355781,-0.671875,0.078125,0.734375
1629894355812,-0.671875,0.078125,0.734375
1629894355843,-0.671875,0.078125,0.734375
1629894355875,-0.65625,0.078125,0.734375
1629894355906,-0.65625,0.078125,0.734375
1629894355937,-0.65625,0.078125,0.734375
1629894355968,-0.671875,0.09375,0.734375
1629894356000,-0.671875,0.09375,0.734375
1629894356031,-0.671875,0.078125,0.734375
1629894356062,-0.65625,0.078125,0.71875
1629894356093,-0.65625,0.078125,0.734375
1629894356125,-0.65625,0.078125,0.734375
1629894356156,-0.671875,0.078125,0.734375
1629894356187,-0.671875,0.078125,0.734375
1629894356218,-0.65625,0.09375,0.734375
1629894356250,-0.671875,0.09375,0.734375
1629894356281,-0.671875,0.09375,0.734375
1629894356312,-0.671875,0.078125,0.734375
1629894356343,-0.671875,0.078125,0.734375
1629894356375,-0.65625,0.09375,0.734375
1629894356406,-0.65625,0.09375,0.734375
1629894356437,-0.671875,0.078125,0.734375
1629894356468,-0.65625,0.078125,0.734375
1629894356500,-0.65625,0.078125,0.734375
1629894356531,-0.671875,0.078125,0.734375
1629894356562,-0.671875,0.078125,0.734375
1629894356593,-0.671875,0.09375,0.71875
1629894356625,-0.65625,0.078125,0.734375
1629894356656,-0.65625,0.078125,0.734375
1629894356687,-0.671875,0.078125,0.734375
1629894356718,-0.65625,0.078125,0.734375
1629894356750,-0.671875,0.078125,0.734375
1629894356781,-0.671875,0.078125,0.71875
1629894356812,-0.65625,0.078125,0.734375
1629894356843,-0.65625,0.078125,0.734375
1629894356875,-0.671875,0.078125,0.734375
1629894356906,-0.65625,0.078125,0.734375
1629894356937,-0.65625,0.078125,0.734375
1629894356968,-0.671875,0.078125,0.734375
1629894357000,-0.671875,0.078125,0.734375
1629894357031,-0.65625,0.078125,0.734375
1629894357062,-0.65625,0.078125,0.734375
1629894357093,-0.671875,0.078125,0.71875
1629894357125,-0.671875,0.078125,0.71875
1629894357156,-0.671875,0.078125,0.734375
1629894357187,-0.65625,0.078125,0.734375
1629894357218,-0.65625,0.09375,0.734375
1629894357250,-0.671875,0.078125,0.734375
1629894357281,-0.671875,0.078125,0.734375
1629894357312,-0.65625,0.078125,0.734375
1629894357343,-0.65625,0.078125,0.71875
1629894357375,-0.671875,0.078125,0.734375
1629894357406,-0.671875,0.078125,0.71875
1629894357437,-0.65625,0.078125,0.734375
1629894357468,-0.65625,0.078125,0.734375
1629894357500,-0.65625,0.078125,0.734375
1629894357531,-0.65625,0.078125,0.734375
1629894357562,-0.671875,0.078125,0.734375
1629894357593,-0.671875,0.078125,0.734375
1629894357625,-0.671875,0.078125,0.734375
1629894357656,-0.65625,0.078125,0.734375
1629894357687,-0.671875,0.078125,0.734375
1629894357718,-0.671875,0.078125,0.734375
1629894357750,-0.65625,0.078125,0.734375
1629894357781,-0.671875,0.078125,0.71875
1629894357812,-0.671875,0.078125,0.734375
1629894357843,-0.65625,0.078125,0.734375
1629894357875,-0.65625,0.09375,0.734375
1629894357906,-0.671875,0.078125,0.734375
1629894357937,-0.671875,0.078125,0.734375
1629894357968,-0.65625,0.078125,0.734375
1629894358000,-0.65625,0.078125,0.734375
1629894358031,-0.671875,0.078125,0.71875
1629894358062,-0.671875,0.078125,0.734375
1629894358093,-0.65625,0.078125,0.734375
1629894358125,-0.65625,0.078125,0.734375
1629894358156,-0.65625,0.09375,0.734375
1629894358187,-0.671875,0.078125,0.71875
1629894358218,-0.671875,0.078125,0.734375
1629894358250,-0.65625,0.078125,0.734375
1629894358281,-0.65625,0.078125,0.71875
1629894358312,-0.671875,0.078125,0.734375
1629894358343,-0.671875,0.09375,0.734375
1629894358375,-0.65625,0.09375,0.734375
1629894358406,-0.65625,0.078125,0.734375
1629894358437,-0.671875,0.09375,0.734375
1629894358468,-0.65625,0.09375,0.734375
1629894358500,-0.65625,0.09375,0.734375
1629894358531,-0.65625,0.09375,0.734375
1629894358562,-0.671875,0.09375,0.734375
1629894358593,-0.65625,0.09375,0.734375
1629894358625,-0.65625,0.09375,0.734375
1629894358656,-0.65625,0.078125,0.734375
1629894358687,-0.671875,0.078125,0.734375
1629894358718,-0.65625,0.09375,0.734375
1629894358750,-0.671875,0.078125,0.71875
1629894358781,-0.65625,0.09375,0.734375
1629894358812,-0.671875,0.09375,0.734375
1629894358843,-0.671875,0.09375,0.734375
1629894358875,-0.65625,0.09375,0.734375
1629894358906,-0.65625,0.09375,0.734375
1629894358937,-0.671875,0.09375,0.734375
1629894358968,-0.671875,0.078125,0.734375
1629894359000,-0.65625,0.078125,0.734375
1629894359031,-0.65625,0.09375,0.71875
1629894359062,-0.65625,0.09375,0.71875
1629894359093,-0.671875,0.09375,0.734375
1629894359125,-0.671875,0.09375,0.734375
1629894359156,-0.65625,0.078125,0.734375
1629894359187,-0.65625,0.078125,0.734375
1629894359218,-0.671875,0.09375,0.734375
1629894359250,-0.671875,0.078125,0.734375
1629894359281,-0.671875,0.09375,0.734375
1629894359312,-0.65625,0.09375,0.734375
1629894359343,-0.65625,0.09375,0.734375
1629894359375,-0.671875,0.09375,0.734375
1629894359406,-0.671875,0.09375,0.734375
1629894359437,-0.671875,0.09375,0.734375
1629894359468,-0.671875,0.09375,0.734375
1629894359500,-0.65625,0.09375,0.734375
1629894359531,-0.671875,0.09375,0.734375
1629894359562,-0.65625,0.078125,0.734375
1629894359593,-0.65625,0.09375,0.734375
1629894359625,-0.65625,0.09375,0.71875
1629894359656,-0.65625,0.09375,0.71875
1629894359687,-0.671875,0.09375,0.734375
1629894359718,-0.65625,0.09375,0.734375
1629894359750,-0.65625,0.09375,0.734375
1629894359781,-0.65625,0.078125,0.734375
1629894359812,-0.65625,0.09375,0.734375
1629894359843,-0.671875,0.09375,0.71875
1629894359875,-0.671875,0.078125,0.734375
1629894359906,-0.65625,0.09375,0.734375
1629894359937,-0.65625,0.09375,0.734375
1629894359968,-0.65625,0.09375,0.734375
1629894360000,-0.671875,0.09375,0.734375
1629894360031,-0.65625,0.078125,0.734375
1629894360062,-0.65625,0.078125,0.734375
1629894360093,-0.65625,0.078125,0.71875
1629894360125,-0.671875,0.078125,0.734375
1629894360156,-0.671875,0.078125,0.734375
1629894360187,-0.65625,0.09375,0.734375
1629894360218,-0.65625,0.09375,0.734375
1629894360250,-0.65625,0.09375,0.734375
1629894360281,-0.65625,0.09375,0.734375
1629894360312,-0.65625,0.078125,0.734375
1629894360343,-0.65625,0.078125,0.734375
1629894360375,-0.671875,0.078125,0.71875
1629894360406,-0.65625,0.078125,0.734375
1629894360437,-0.65625,0.078125,0.734375
1629894360468,-0.65625,0.078125,0.734375
1629894360500,-0.671875,0.078125,0.734375
1629894360531,-0.671875,0.078125,0.734375
1629894360562,-0.65625,0.078125,0.734375
1629894360593,-0.65625,0.09375,0.734375
1629894360625,-0.65625,0.078125,0.734375
1629894360656,-0.671875,0.078125,0.734375
1629894360687,-0.65625,0.078125,0.734375
1629894360718,-0.65625,0.078125,0.734375
1629894360750,-0.671875,0.078125,0.734375
1629894360781,-0.671875,0.078125,0.734375
1629894360812,-0.65625,0.078125,0.734375
1629894360843,-0.65625,0.078125,0.734375
1629894360875,-0.65625,0.078125,0.734375
1629894360906,-0.671875,0.078125,0.734375
1629894360937,-0.65625,0.078125,0.734375
1629894360968,-0.65625,0.078125,0.734375
1629894361000,-0.671875,0.078125,0.734375
1629894361031,-0.671875,0.078125,0.734375
1629894361062,-0.65625,0.078125,0.734375
1629894361093,-0.65625,0.078125,0.734375
1629894361125,-0.65625,0.078125,0.734375
1629894361156,-0.671875,0.078125,0.734375
1629894361187,-0.671875,0.078125,0.71875
1629894361218,-0.65625,0.078125,0.734375
1629894361250,-0.65625,0.078125,0.71875
1629894361281,-0.65625,0.078125,0.734375
1629894361312,-0.65625,0.078125,0.734375
1629894361343,-0.65625,0.078125,0.734375
1629894361375,-0.65625,0.078125,0.734375
1629894361406,-0.65625,0.078125,0.734375
1629894361437,-0.671875,0.078125,0.734375
1629894361468,-0.671875,0.078125,0.734375
1629894361500,-0.671875,0.078125,0.734375
1629894361531,-0.65625,0.078125,0.734375
1629894361562,-0.671875,0.078125,0.734375
1629894361593,-0.671875,0.078125,0.734375
1629894361625,-0.65625,0.078125,0.734375
1629894361656,-0.65625,0.078125,0.734375
1629894361687,-0.671875,0.078125,0.71875
1629894361718,-0.671875,0.078125,0.734375
1629894361750,-0.65625,0.078125,0.734375
1629894361781,-0.65625,0.078125,0.734375
1629894361812,-0.671875,0.09375,0.734375
1629894361843,-0.671875,0.078125,0.734375
1629894361875,-0.671875,0.078125,0.734375
1629894361906,-0.65625,0.078125,0.734375
1629894361937,-0.65625,0.078125,0.71875
1629894361968,-0.671875,0.078125,0.734375
1629894362000,-0.65625,0.078125,0.734375
1629894362031,-0.65625,0.078125,0.734375
1629894362062,-0.65625,0.078125,0.734375
1629894362093,-0.671875,0.09375,0.734375
1629894362125,-0.671875,0.09375,0.734375
1629894362156,-0.65625,0.09375,0.734375
1629894362187,-0.65625,0.078125,0.734375
1629894362218,-0.671875,0.078125,0.734375
1629894362250,-0.671875,0.078125,0.734375
1629894362281,-0.671875,0.078125,0.734375
1629894362312,-0.65625,0.078125,0.734375
1629894362343,-0.65625,0.078125,0.734375
1629894362375,-0.65625,0.078125,0.734375
1629894362406,-0.671875,0.078125,0.734375
1629894362437,-0.671875,0.09375,0.734375
1629894362468,-0.671875,0.078125,0.734375
1629894362500,-0.671875,0.078125,0.734375
1629894362531,-0.65625,0.078125,0.734375
1629894362562,-0.65625,0.09375,0.734375
1629894362593,-0.65625,0.078125,0.734375
1629894362625,-0.671875,0.078125,0.734375
1629894362656,-0.671875,0.078125,0.71875
1629894362687,-0.65625,0.09375,0.734375
1629894362718,-0.65625,0.09375,0.734375
1629894362750,-0.671875,0.09375,0.734375
1629894362781,-0.671875,0.078125,0.734375
1629894362812,-0.671875,0.078125,0.734375
1629894362843,-0.65625,0.078125,0.734375
1629894362875,-0.65625,0.078125,0.734375
1629894362906,-0.671875,0.078125,0.734375
1629894362937,-0.65625,0.09375,0.734375
1629894362968,-0.65625,0.09375,0.71875
1629894363000,-0.671875,0.09375,0.734375
1629894363031,-0.671875,0.09375,0.734375
1629894363062,-0.65625,0.09375,0.734375
1629894363093,-0.65625,0.09375,0.71875
1629894363125,-0.671875,0.09375,0.734375
1629894363156,-0.65625,0.078125,0.734375
1629894363187,-0.671875,0.09375,0.734375
1629894363218,-0.65625,0.09375,0.734375
1629894363250,-0.65625,0.078125,0.734375
1629894363281,-0.65625,0.078125,0.734375
1629894363312,-0.671875,0.078125,0.734375
1629894363343,-0.65625,0.078125,0.734375
1629894363375,-0.671875,0.09375,0.734375
1629894363406,-0.65625,0.09375,0.734375
1629894363437,-0.65625,0.09375,0.734375
1629894363468,-0.65625,0.09375,0.734375
1629894363500,-0.671875,0.078125,0.71875
1629894363531,-0.671875,0.078125,0.734375
1629894363562,-0.65625,0.078125,0.734375
1629894363593,-0.671875,0.078125,0.734375
1629894363625,-0.65625,0.09375,0.734375
1629894363656,-0.671875,0.09375,0.734375
1629894363687,-0.671875,0.078125,0.734375
1629894363718,-0.65625,0.078125,0.734375
1629894363750,-0.65625,0.078125,0.734375
1629894363781,-0.65625,0.078125,0.71875
1629894363812,-0.671875,0.09375,0.734375
1629894363843,-0.671875,0.09375,0.734375
1629894363875,-0.65625,0.09375,0.734375
1629894363906,-0.65625,0.09375,0.734375
1629894363937,-0.65625,0.078125,0.734375
1629894363968,-0.671875,0.09375,0.71875
1629894364000,-0.671875,0.09375,0.71875
1629894364031,-0.65625,0.078125,0.734375
1629894364062,-0.65625,0.078125,0.734375
1629894364093,-0.65625,0.078125,0.734375
1629894364125,-0.65625,0.078125,0.734375
1629894364156,-0.671875,0.078125,0.734375
1629894364187,-0.65625,0.078125,0.734375
1629894364218,-0.671875,0.078125,0.71875
1629894364250,-0.65625,0.09375,0.734375
1629894364281,-0.671875,0.09375,0.734375
1629894364312,-0.671875,0.078125,0.734375
1629894364343,-0.65625,0.078125,0.734375
1629894364375,-0.65625,0.078125,0.734375
1629894364406,-0.65625,0.078125,0.734375
1629894364437,-0.671875,0.078125,0.71875
1629894364468,-0.671875,0.078125,0.734375
1629894364500,-0.671875,0.078125,0.734375
1629894364531,-0.65625,0.078125,0.734375
1629894364562,-0.671875,0.078125,0.71875
1629894364593,-0.671875,0.078125,0.734375
1629894364625,-0.65625,0.078125,0.734375
1629894364656,-0.65625,0.078125,0.734375
1629894364687,-0.671875,0.078125,0.71875
1629894364718,-0.671875,0.078125,0.734375
1629894364750,-0.671875,0.078125,0.71875
1629894364781,-0.65625,0.078125,0.734375
1629894364812,-0.671875,0.078125,0.734375
1629894364843,-0.671875,0.078125,0.734375
1629894364875,-0.671875,0.078125,0.734375
1629894364906,-0.671875,0.078125,0.734375
1629894364937,-0.65625,0.078125,0.734375
1629894364968,-0.65625,0.078125,0.734375
1629894365000,-0.671875,0.078125,0.734375
1629894365031,-0.65625,0.078125,0.734375
1629894365062,-0.671875,0.078125,0.71875
1629894365093,-0.671875,0.078125,0.71875
1629894365125,-0.671875,0.078125,0.734375
1629894365156,-0.671875,0.078125,0.734375
1629894365187,-0.65625,0.09375,0.734375
1629894365218,-0.65625,0.09375,0.734375
1629894365250,-0.65625,0.09375,0.734375
1629894365281,-0.671875,0.078125,0.71875
1629894365312,-0.65625,0.078125,0.734375
1629894365343,-0.671875,0.078125,0.71875
1629894365375,-0.671875,0.078125,0.71875
1629894365406,-0.671875,0.078125,0.734375
1629894365437,-0.65625,0.078125,0.734375
1629894365468,-0.65625,0.078125,0.734375
1629894365500,-0.65625,0.078125,0.734375
1629894365531,-0.671875,0.078125,0.71875
1629894365562,-0.65625,0.078125,0.734375
1629894365593,-0.65625,0.078125,0.734375
1629894365625,-0.671875,0.078125,0.71875
1629894365656,-0.671875,0.078125,0.734375
1629894365687,-0.671875,0.078125,0.734375
1629894365718,-0.65625,0.078125,0.734375
1629894365750,-0.671875,0.078125,0.734375
1629894365781,-0.671875,0.078125,0.734375
1629894365812,-0.671875,0.078125,0.71875
1629894365843,-0.671875,0.078125,0.734375
1629894365875,-0.671875,0.078125,0.734375
1629894365906,-0.671875,0.078125,0.734375
1629894365937,-0.65625,0.078125,0.71875
1629894365968,-0.671875,0.078125,0.734375
1629894366000,-0.671875,0.078125,0.734375
1629894366031,-0.671875,0.078125,0.71875
1629894366062,-0.671875,0.078125,0.734375
1629894366093,-0.671875,0.078125,0.71875
1629894366125,-0.671875,0.078125,0.71875
1629894366156,-0.671875,0.078125,0.734375
1629894366187,-0.671875,0.078125,0.734375
1629894366218,-0.671875,0.078125,0.734375
1629894366250,-0.671875,0.078125,0.71875
1629894366281,-0.65625,0.078125,0.734375
1629894366312,-0.65625,0.078125,0.734375
1629894366343,-0.671875,0.078125,0.71875
1629894366375,-0.671875,0.078125,0.71875
1629894366406,-0.65625,0.078125,0.734375
1629894366437,-0.65625,0.078125,0.71875
1629894366468,-0.671875,0.09375,0.734375
1629894366500,-0.671875,0.09375,0.71875
1629894366531,-0.65625,0.078125,0.734375
1629894366562,-0.65625,0.078125,0.734375
1629894366593,-0.65625,0.078125,0.734375
1629894366625,-0.671875,0.078125,0.71875
1629894366656,-0.671875,0.078125,0.734375
1629894366687,-0.671875,0.078125,0.734375
1629894366718,-0.671875,0.09375,0.734375
1629894366750,-0.671875,0.09375,0.734375
1629894366781,-0.671875,0.078125,0.734375
1629894366812,-0.671875,0.078125,0.71875
1629894366843,-0.671875,0.078125,0.734375
1629894366875,-0.671875,0.078125,0.71875
1629894366906,-0.671875,0.078125,0.734375
1629894366937,-0.671875,0.078125,0.71875
1629894366968,-0.671875,0.078125,0.71875
1629894367000,-0.671875,0.078125,0.71875
1629894367031,-0.671875,0.078125,0.734375
1629894367062,-0.671875,0.09375,0.734375
1629894367093,-0.671875,0.078125,0.71875
1629894367125,-0.671875,0.09375,0.71875
1629894367156,-0.671875,0.078125,0.734375
1629894367187,-0.671875,0.078125,0.71875
1629894367218,-0.671875,0.078125,0.71875
1629894367250,-0.671875,0.09375,0.734375
1629894367281,-0.671875,0.078125,0.71875
1629894367312,-0.671875,0.078125,0.71875
1629894367343,-0.671875,0.078125,0.71875
1629894367375,-0.671875,0.09375,0.734375
1629894367406,-0.671875,0.09375,0.71875
1629894367437,-0.671875,0.09375,0.71875
1629894367468,-0.671875,0.078125,0.734375
1629894367500,-0.65625,0.078125,0.734375
1629894367531,-0.671875,0.078125,0.734375
1629894367562,-0.671875,0.078125,0.71875
1629894367593,-0.671875,0.09375,0.734375
1629894367625,-0.671875,0.078125,0.71875
1629894367656,-0.671875,0.078125,0.734375
1629894367687,-0.671875,0.078125,0.734375
1629894367718,-0.671875,0.078125,0.734375
1629894367750,-0.671875,0.09375,0.71875
1629894367781,-0.671875,0.09375,0.71875
1629894367812,-0.671875,0.078125,0.734375
1629894367843,-0.671875,0.078125,0.734375
1629894367875,-0.671875,0.078125,0.734375
1629894367906,-0.671875,0.078125,0.734375
1629894367937,-0.671875,0.078125,0.71875
1629894367968,-0.671875,0.078125,0.71875
1629894368000,-0.671875,0.078125,0.734375
1629894368031,-0.671875,0.09375,0.734375
1629894368062,-0.671875,0.078125,0.71875
1629894368093,-0.671875,0.078125,0.71875
1629894368125,-0.65625,0.09375,0.734375
1629894368156,-0.671875,0.078125,0.734375
1629894368187,-0.671875,0.078125,0.71875
1629894368218,-0.671875,0.078125,0.734375
1629894368250,-0.65625,0.078125,0.734375
1629894368281,-0.671875,0.09375,0.71875
1629894368312,-0.671875,0.078125,0.734375
1629894368343,-0.671875,0.078125,0.734375
1629894368375,-0.65625,0.078125,0.734375
1629894368406,-0.65625,0.078125,0.71875
1629894368437,-0.671875,0.078125,0.71875
1629894368468,-0.671875,0.078125,0.71875
1629894368500,-0.671875,0.078125,0.734375
1629894368531,-0.671875,0.078125,0.734375
1629894368562,-0.671875,0.078125,0.71875
1629894368593,-0.671875,0.078125,0.71875
1629894368625,-0.671875,0.078125,0.734375
1629894368656,-0.671875,0.078125,0.71875
1629894368687,-0.671875,0.078125,0.71875
1629894368718,-0.671875,0.078125,0.71875
1629894368750,-0.671875,0.078125,0.71875
1629894368781,-0.671875,0.078125,0.734375
1629894368812,-0.671875,0.078125,0.71875
1629894368843,-0.671875,0.078125,0.734375
1629894368875,-0.671875,0.078125,0.734375
1629894368906,-0.671875,0.078125,0.71875
1629894368937,-0.671875,0.078125,0.734375
1629894368968,-0.671875,0.078125,0.734375
1629894369000,-0.671875,0.078125,0.734375
1629894369031,-0.65625,0.078125,0.734375
1629894369062,-0.671875,0.078125,0.71875
1629894369093,-0.671875,0.078125,0.71875
1629894369125,-0.671875,0.078125,0.71875
1629894369156,-0.671875,0.078125,0.734375
1629894369187,-0.671875,0.078125,0.734375
1629894369218,-0.671875,0.078125,0.734375
1629894369250,-0.671875,0.078125,0.734375
1629894369281,-0.65625,0.078125,0.734375
1629894369312,-0.65625,0.078125,0.734375
1629894369343,-0.671875,0.078125,0.71875
1629894369375,-0.671875,0.078125,0.71875
1629894369406,-0.671875,0.078125,0.734375
1629894369437,-0.65625,0.078125,0.71875
1629894369468,-0.671875,0.078125,0.734375
1629894369500,-0.671875,0.078125,0.71875
1629894369531,-0.671875,0.078125,0.71875
1629894369562,-0.671875,0.078125,0.734375
1629894369593,-0.671875,0.078125,0.734375
1629894369625,-0.671875,0.078125,0.734375
1629894369656,-0.671875,0.078125,0.734375
1629894369687,-0.671875,0.078125,0.734375
1629894369718,-0.671875,0.078125,0.734375
1629894369750,-0.671875,0.078125,0.71875
1629894369781,-0.671875,0.078125,0.734375
1629894369812,-0.65625,0.078125,0.71875
1629894369843,-0.671875,0.078125,0.734375
1629894369875,-0.671875,0.078125,0.71875
1629894369906,-0.671875,0.078125,0.734375
1629894369937,-0.65625,0.078125,0.734375
1629894369968,-0.671875,0.078125,0.71875
1629894370000,-0.671875,0.078125,0.71875
1629894370031,-0.671875,0.078125,0.734375
1629894370062,-0.671875,0.078125,0.734375
1629894370093,-0.671875,0.078125,0.734375
1629894370125,-0.671875,0.078125,0.734375
1629894370156,-0.671875,0.078125,0.71875
1629894370187,-0.671875,0.078125,0.734375
1629894370218,-0.65625,0.078125,0.71875
1629894370250,-0.671875,0.078125,0.71875
1629894370281,-0.671875,0.078125,0.71875
1629894370312,-0.671875,0.078125,0.734375
1629894370343,-0.65625,0.078125,0.71875
1629894370375,-0.671875,0.078125,0.71875
1629894370406,-0.671875,0.078125,0.71875
1629894370437,-0.671875,0.078125,0.71875
1629894370468,-0.671875,0.078125,0.71875
1629894370500,-0.671875,0.078125,0.71875
1629894370531,-0.671875,0.078125,0.71875
1629894370562,-0.671875,0.078125,0.734375
1629894370593,-0.671875,0.078125,0.734375
1629894370625,-0.671875,0.078125,0.734375
1629894370656,-0.671875,0.078125,0.734375
1629894370687,-0.671875,0.078125,0.734375
1629894370718,-0.671875,0.078125,0.734375
1629894370750,-0.671875,0.078125,0.71875
1629894370781,-0.671875,0.078125,0.71875
1629894370812,-0.671875,0.078125,0.734375
1629894370843,-0.671875,0.078125,0.734375
1629894370875,-0.671875,0.078125,0.734375
1629894370906,-0.671875,0.078125,0.734375
1629894370937,-0.671875,0.078125,0.71875
1629894370968,-0.671875,0.078125,0.71875
1629894371000,-0.671875,0.078125,0.71875
1629894371031,-0.671875,0.078125,0.71875
1629894371062,-0.671875,0.078125,0.71875
1629894371093,-0.671875,0.09375,0.71875
1629894371125,-0.671875,0.078125,0.734375
1629894371156,-0.671875,0.078125,0.71875
1629894371187,-0.65625,0.078125,0.734375
1629894371218,-0.671875,0.078125,0.71875
1629894371250,-0.671875,0.078125,0.734375
1629894371281,-0.671875,0.078125,0.71875
1629894371312,-0.671875,0.078125,0.734375
1629894371343,-0.671875,0.078125,0.734375
1629894371375,-0.671875,0.078125,0.734375
1629894371406,-0.671875,0.078125,0.734375
1629894371437,-0.671875,0.09375,0.71875
1629894371468,-0.671875,0.078125,0.71875
1629894371500,-0.671875,0.078125,0.71875
1629894371531,-0.671875,0.078125,0.71875
1629894371562,-0.671875,0.078125,0.734375
1629894371593,-0.671875,0.078125,0.734375
1629894371625,-0.671875,0.078125,0.71875
1629894371656,-0.671875,0.09375,0.71875
1629894371687,-0.671875,0.078125,0.71875
1629894371718,-0.671875,0.078125,0.71875
1629894371750,-0.671875,0.078125,0.71875
1629894371781,-0.671875,0.078125,0.734375
1629894371812,-0.671875,0.078125,0.71875
1629894371843,-0.671875,0.078125,0.734375
1629894371875,-0.671875,0.078125,0.734375
1629894371906,-0.671875,0.09375,0.71875
1629894371937,-0.671875,0.078125,0.71875
1629894371968,-0.65625,0.078125,0.71875
1629894372000,-0.671875,0.078125,0.734375
1629894372031,-0.671875,0.09375,0.71875
1629894372062,-0.671875,0.09375,0.734375
1629894372093,-0.671875,0.078125,0.734375
1629894372125,-0.65625,0.078125,0.734375
1629894372156,-0.65625,0.078125,0.71875
1629894372187,-0.671875,0.078125,0.734375
1629894372218,-0.671875,0.078125,0.734375
1629894372250,-0.671875,0.078125,0.71875
1629894372281,-0.671875,0.078125,0.71875
1629894372312,-0.671875,0.09375,0.71875
1629894372343,-0.671875,0.09375,0.71875
1629894372375,-0.671875,0.09375,0.71875
1629894372406,-0.671875,0.078125,0.71875
1629894372437,-0.671875,0.078125,0.71875
1629894372468,-0.671875,0.078125,0.734375
1629894372500,-0.671875,0.078125,0.71875
1629894372531,-0.671875,0.078125,0.71875
1629894372562,-0.671875,0.078125,0.71875
1629894372593,-0.671875,0.078125,0.71875
1629894372625,-0.671875,0.09375,0.71875
1629894372656,-0.671875,0.078125,0.71875
1629894372687,-0.671875,0.078125,0.734375
1629894372718,-0.671875,0.078125,0.71875
1629894372750,-0.671875,0.09375,0.734375
1629894372781,-0.671875,0.078125,0.734375
1629894372812,-0.671875,0.078125,0.71875
1629894372843,-0.671875,0.078125,0.71875
1629894372875,-0.671875,0.078125,0.71875
1629894372906,-0.671875,0.078125,0.734375
1629894372937,-0.671875,0.09375,0.71875
1629894372968,-0.671875,0.09375,0.734375
1629894373000,-0.671875,0.078125,0.734375
1629894373031,-0.65625,0.078125,0.734375
1629894373062,-0.671875,0.078125,0.71875
1629894373093,-0.671875,0.078125,0.71875
1629894373125,-0.671875,0.09375,0.71875
1629894373156,-0.671875,0.078125,0.71875
1629894373187,-0.671875,0.078125,0.71875
1629894373218,-0.671875,0.078125,0.71875
1629894373250,-0.671875,0.078125,0.71875
1629894373281,-0.671875,0.078125,0.71875
1629894373312,-0.671875,0.078125,0.71875
1629894373343,-0.671875,0.078125,0.71875
1629894373375,-0.671875,0.078125,0.71875
1629894373406,-0.671875,0.078125,0.734375
1629894373437,-0.671875,0.078125,0.734375
1629894373468,-0.671875,0.078125,0.734375
1629894373500,-0.671875,0.078125,0.734375
1629894373531,-0.671875,0.078125,0.734375
1629894373562,-0.671875,0.078125,0.71875
1629894373593,-0.671875,0.078125,0.71875
1629894373625,-0.671875,0.09375,0.71875
1629894373656,-0.671875,0.078125,0.71875
1629894373687,-0.671875,0.078125,0.71875
1629894373718,-0.671875,0.078125,0.71875
1629894373750,-0.671875,0.078125,0.71875
1629894373781,-0.671875,0.078125,0.71875
1629894373812,-0.671875,0.078125,0.71875
1629894373843,-0.671875,0.078125,0.71875
1629894373875,-0.671875,0.078125,0.71875
1629894373906,-0.671875,0.078125,0.71875
1629894373937,-0.671875,0.078125,0.71875
1629894373968,-0.671875,0.078125,0.71875
1629894374000,-0.671875,0.078125,0.71875
1629894374031,-0.671875,0.078125,0.71875
1629894374062,-0.671875,0.078125,0.71875
1629894374093,-0.671875,0.078125,0.734375
1629894374125,-0.671875,0.078125,0.734375
1629894374156,-0.671875,0.078125,0.71875
1629894374187,-0.671875,0.078125,0.71875
1629894374218,-0.671875,0.078125,0.71875
1629894374250,-0.671875,0.078125,0.71875
1629894374281,-0.671875,0.078125,0.71875
1629894374312,-0.671875,0.078125,0.71875
1629894374343,-0.671875,0.078125,0.71875
1629894374375,-0.671875,0.078125,0.71875
1629894374406,-0.671875,0.078125,0.71875
1629894374437,-0.671875,0.078125,0.71875
1629894374468,-0.671875,0.078125,0.71875
1629894374500,-0.671875,0.078125,0.71875
1629894374531,-0.671875,0.078125,0.71875
1629894374562,-0.671875,0.078125,0.71875
1629894374593,-0.671875,0.078125,0.71875
1629894374625,-0.671875,0.078125,0.71875
1629894374656,-0.671875,0.078125,0.71875
1629894374687,-0.671875,0.078125,0.734375
1629894374718,-0.671875,0.078125,0.71875
1629894374750,-0.671875,0.078125,0.71875
1629894374781,-0.671875,0.078125,0.71875
1629894374812,-0.671875,0.078125,0.71875
1629894374843,-0.671875,0.078125,0.71875
1629894374875,-0.671875,0.078125,0.71875
1629894374906,-0.671875,0.078125,0.71875
1629894374937,-0.671875,0.0625,0.71875
1629894374968,-0.671875,0.078125,0.71875
1629894375000,-0.671875,0.078125,0.71875
1629894375031,-0.671875,0.078125,0.71875
1629894375062,-0.671875,0.078125,0.71875
1629894375093,-0.671875,0.078125,0.71875
1629894375125,-0.671875,0.078125,0.734375
1629894375156,-0.671875,0.078125,0.71875
1629894375187,-0.671875,0.078125,0.71875
1629894375218,-0.671875,0.078125,0.71875
1629894375250,-0.671875,0.078125,0.71875
1629894375281,-0.671875,0.078125,0.71875
1629894375312,-0.671875,0.078125,0.71875
1629894375343,-0.671875,0.078125,0.71875
1629894375375,-0.671875,0.078125,0.71875
1629894375406,-0.671875,0.078125,0.71875
1629894375437,-0.671875,0.078125,0.71875
1629894375468,-0.671875,0.078125,0.71875
1629894375500,-0.671875,0.078125,0.71875
1629894375531,-0.671875,0.078125,0.71875
1629894375562,-0.671875,0.078125,0.71875
1629894375593,-0.671875,0.078125,0.71875
1629894375625,-0.671875,0.078125,0.71875
1629894375656,-0.671875,0.078125,0.71875
1629894375687,-0.671875,0.078125,0.734375
1629894375718,-0.671875,0.078125,0.71875
1629894375750,-0.671875,0.078125,0.71875
1629894375781,-0.671875,0.078125,0.71875
1629894375812,-0.671875,0.078125,0.71875
1629894375843,-0.671875,0.078125,0.71875
1629894375875,-0.671875,0.078125,0.71875
1629894375906,-0.671875,0.078125,0.71875
1629894375937,-0.671875,0.078125,0.71875
1629894375968,-0.671875,0.078125,0.71875
1629894376000,-0.671875,0.078125,0.71875
1629894376031,-0.671875,0.078125,0.71875
1629894376062,-0.671875,0.078125,0.71875
1629894376093,-0.671875,0.078125,0.71875
1629894376125,-0.671875,0.078125,0.71875
1629894376156,-0.671875,0.078125,0.71875
1629894376187,-0.671875,0.078125,0.71875
1629894376218,-0.671875,0.078125,0.71875
1629894376250,-0.671875,0.078125,0.71875
1629894376281,-0.671875,0.078125,0.71875
1629894376312,-0.671875,0.078125,0.71875
1629894376343,-0.671875,0.078125,0.71875
1629894376375,-0.671875,0.078125,0.71875
1629894376406,-0.671875,0.078125,0.71875
1629894376437,-0.671875,0.078125,0.71875
1629894376468,-0.671875,0.078125,0.71875
1629894376500,-0.671875,0.078125,0.71875
1629894376531,-0.671875,0.078125,0.71875
1629894376562,-0.671875,0.078125,0.71875
1629894376593,-0.671875,0.078125,0.71875
1629894376625,-0.671875,0.078125,0.71875
1629894376656,-0.671875,0.078125,0.71875
1629894376687,-0.6875,0.078125,0.71875
1629894376718,-0.671875,0.078125,0.71875
1629894376750,-0.671875,0.078125,0.71875
1629894376781,-0.671875,0.078125,0.71875
1629894376812,-0.671875,0.09375,0.71875
1629894376843,-0.671875,0.078125,0.71875
1629894376875,-0.671875,0.078125,0.71875
1629894376906,-0.671875,0.078125,0.71875
1629894376937,-0.671875,0.078125,0.71875
1629894376968,-0.671875,0.078125,0.71875
1629894377000,-0.671875,0.078125,0.71875
1629894377031,-0.671875,0.078125,0.71875
1629894377062,-0.671875,0.078125,0.71875
1629894377093,-0.671875,0.078125,0.71875
1629894377125,-0.671875,0.078125,0.71875
1629894377156,-0.671875,0.078125,0.71875
1629894377187,-0.671875,0.09375,0.71875
1629894377218,-0.671875,0.078125,0.71875
1629894377250,-0.671875,0.078125,0.71875
1629894377281,-0.671875,0.078125,0.71875
1629894377312,-0.671875,0.078125,0.71875
1629894377343,-0.671875,0.078125,0.71875
1629894377375,-0.671875,0.078125,0.71875
1629894377406,-0.671875,0.078125,0.71875
1629894377437,-0.671875,0.078125,0.71875
1629894377468,-0.671875,0.078125,0.71875
1629894377500,-0.671875,0.078125,0.71875
1629894377531,-0.671875,0.078125,0.71875
1629894377562,-0.671875,0.078125,0.71875
1629894377593,-0.671875,0.078125,0.734375
1629894377625,-0.671875,0.078125,0.71875
1629894377656,-0.6875,0.078125,0.71875
1629894377687,-0.671875,0.078125,0.71875
1629894377718,-0.671875,0.078125,0.71875
1629894377750,-0.671875,0.078125,0.71875
1629894377781,-0.671875,0.078125,0.71875
1629894377812,-0.671875,0.078125,0.71875
1629894377843,-0.671875,0.078125,0.71875
1629894377875,-0.671875,0.078125,0.71875
1629894377906,-0.671875,0.078125,0.71875
1629894377937,-0.671875,0.078125,0.71875
1629894377968,-0.671875,0.078125,0.71875
1629894378000,-0.671875,0.078125,0.71875
1629894378031,-0.671875,0.078125,0.71875
1629894378062,-0.671875,0.078125,0.71875
1629894378093,-0.671875,0.078125,0.71875
1629894378125,-0.671875,0.078125,0.71875
1629894378156,-0.671875,0.078125,0.71875
1629894378187,-0.671875,0.078125,0.71875
1629894378218,-0.671875,0.078125,0.71875
1629894378250,-0.671875,0.078125,0.71875
1629894378281,-0.671875,0.078125,0.71875
1629894378312,-0.671875,0.078125,0.71875
1629894378343,-0.671875,0.078125,0.71875
1629894378375,-0.671875,0.078125,0.71875
1629894378406,-0.671875,0.078125,0.71875
1629894378437,-0.671875,0.078125,0.71875
1629894378468,-0.671875,0.078125,0.71875
1629894378500,-0.671875,0.078125,0.71875
1629894378531,-0.671875,0.078125,0.71875
1629894378562,-0.671875,0.078125,0.734375
1629894378593,-0.671875,0.078125,0.71875
1629894378625,-0.671875,0.078125,0.71875
1629894378656,-0.6875,0.078125,0.71875
1629894378687,-0.671875,0.078125,0.71875
1629894378718,-0.671875,0.078125,0.71875
1629894378750,-0.671875,0.078125,0.71875
1629894378781,-0.671875,0.078125,0.71875
1629894378812,-0.671875,0.078125,0.71875
1629894378843,-0.671875,0.0625,0.71875
1629894378875,-0.671875,0.078125,0.71875
1629894378906,-0.671875,0.078125,0.71875
1629894378937,-0.671875,0.078125,0.71875
1629894378968,-0.671875,0.078125,0.71875
1629894379000,-0.671875,0.078125,0.71875
1629894379031,-0.671875,0.078125,0.71875
1629894379062,-0.671875,0.078125,0.71875
1629894379093,-0.671875,0.078125,0.71875
1629894379125,-0.671875,0.078125,0.71875
1629894379156,-0.671875,0.078125,0.71875
1629894379187,-0.671875,0.078125,0.71875
1629894379218,-0.671875,0.078125,0.71875
1629894379250,-0.671875,0.078125,0.71875
1629894379281,-0.671875,0.078125,0.71875
1629894379312,-0.671875,0.078125,0.71875
1629894379343,-0.671875,0.078125,0.71875
1629894379375,-0.671875,0.078125,0.71875
1629894379406,-0.671875,0.078125,0.71875
1629894379437,-0.671875,0.078125,0.71875
1629894379468,-0.6875,0.078125,0.71875
1629894379500,-0.6875,0.078125,0.71875
1629894379531,-0.671875,0.078125,0.71875
1629894379562,-0.671875,0.078125,0.71875
1629894379593,-0.671875,0.078125,0.71875
1629894379625,-0.6875,0.078125,0.71875
1629894379656,-0.671875,0.078125,0.71875
1629894379687,-0.671875,0.078125,0.71875
1629894379718,-0.671875,0.078125,0.71875
1629894379750,-0.671875,0.078125,0.71875
1629894379781,-0.671875,0.078125,0.71875
1629894379812,-0.671875,0.078125,0.71875
1629894379843,-0.671875,0.078125,0.71875
1629894379875,-0.671875,0.078125,0.71875
1629894379906,-0.6875,0.078125,0.71875
1629894379937,-0.671875,0.078125,0.71875
1629894379968,-0.671875,0.078125,0.71875
1629894380000,-0.671875,0.078125,0.71875
1629894380031,-0.671875,0.078125,0.71875
1629894380062,-0.671875,0.078125,0.71875
1629894380093,-0.671875,0.078125,0.71875
1629894380125,-0.671875,0.078125,0.71875
1629894380156,-0.671875,0.078125,0.71875
1629894380187,-0.671875,0.078125,0.71875
1629894380218,-0.671875,0.078125,0.71875
1629894380250,-0.671875,0.078125,0.71875
1629894380281,-0.671875,0.078125,0.71875
1629894380312,-0.671875,0.078125,0.71875
1629894380343,-0.671875,0.078125,0.71875
1629894380375,-0.671875,0.078125,0.71875
1629894380406,-0.671875,0.078125,0.71875
1629894380437,-0.671875,0.078125,0.71875
1629894380468,-0.671875,0.078125,0.71875
1629894380500,-0.671875,0.078125,0.71875
1629894380531,-0.671875,0.078125,0.71875
1629894380562,-0.671875,0.078125,0.71875
1629894380593,-0.65625,0.078125,0.71875
1629894380625,-0.671875,0.078125,0.71875
1629894380656,-0.671875,0.078125,0.71875
1629894380687,-0.65625,0.078125,0.734375
1629894380718,-0.671875,0.078125,0.734375
1629894380750,-0.671875,0.078125,0.71875
1629894380781,-0.671875,0.078125,0.71875
1629894380812,-0.6875,0.078125,0.703125
1629894380843,-0.671875,0.078125,0.71875
1629894380875,-0.671875,0.078125,0.71875
1629894380906,-0.671875,0.078125,0.71875
1629894380937,-0.671875,0.078125,0.71875
1629894380968,-0.671875,0.078125,0.71875
1629894381000,-0.671875,0.078125,0.71875
1629894381031,-0.671875,0.078125,0.71875
1629894381062,-0.671875,0.078125,0.71875
1629894381093,-0.671875,0.078125,0.71875
1629894381125,-0.671875,0.078125,0.71875
1629894381156,-0.6875,0.078125,0.71875
1629894381187,-0.671875,0.078125,0.71875
1629894381218,-0.6875,0.078125,0.71875
1629894381250,-0.6875,0.078125,0.71875
1629894381281,-0.671875,0.078125,0.71875
1629894381312,-0.6875,0.078125,0.71875
1629894381343,-0.671875,0.078125,0.71875
1629894381375,-0.671875,0.078125,0.71875
1629894381406,-0.671875,0.078125,0.71875
1629894381437,-0.671875,0.078125,0.71875
1629894381468,-0.6875,0.078125,0.71875
1629894381500,-0.6875,0.078125,0.71875
1629894381531,-0.6875,0.078125,0.71875
1629894381562,-0.671875,0.078125,0.71875
1629894381593,-0.671875,0.078125,0.71875
1629894381625,-0.671875,0.078125,0.71875
1629894381656,-0.6875,0.078125,0.71875
1629894381687,-0.671875,0.078125,0.71875
1629894381718,-0.671875,0.0625,0.71875
1629894381750,-0.671875,0.078125,0.71875
1629894381781,-0.6875,0.078125,0.71875
1629894381812,-0.703125,0.078125,0.71875
1629894381843,-0.671875,0.078125,0.703125
1629894381875,-0.671875,0.078125,0.734375
1629894381906,-0.671875,0.078125,0.734375
1629894381937,-0.6875,0.078125,0.71875
1629894381968,-0.671875,0.078125,0.71875
1629894382000,-0.6875,0.078125,0.71875
1629894382031,-0.671875,0.0625,0.71875
1629894382062,-0.671875,0.078125,0.71875
1629894382093,-0.671875,0.078125,0.71875
1629894382125,-0.671875,0.078125,0.71875
1629894382156,-0.6875,0.078125,0.71875
1629894382187,-0.671875,0.078125,0.71875
1629894382218,-0.671875,0.078125,0.71875
1629894382250,-0.671875,0.078125,0.71875
1629894382281,-0.671875,0.078125,0.71875
1629894382312,-0.6875,0.078125,0.71875
1629894382343,-0.671875,0.078125,0.71875
1629894382375,-0.671875,0.078125,0.71875
1629894382406,-0.671875,0.078125,0.71875
1629894382437,-0.6875,0.078125,0.71875
1629894382468,-0.6875,0.078125,0.71875
1629894382500,-0.671875,0.078125,0.71875
1629894382531,-0.671875,0.078125,0.71875
1629894382562,-0.671875,0.078125,0.71875
1629894382593,-0.671875,0.078125,0.71875
1629894382625,-0.6875,0.078125,0.71875
1629894382656,-0.671875,0.0625,0.71875
1629894382687,-0.671875,0.0625,0.71875
1629894382718,-0.671875,0.078125,0.71875
1629894382750,-0.6875,0.078125,0.71875
1629894382781,-0.6875,0.078125,0.71875
1629894382812,-0.671875,0.078125,0.71875
1629894382843,-0.671875,0.078125,0.71875
1629894382875,-0.671875,0.078125,0.71875
1629894382906,-0.6875,0.078125,0.71875
1629894382937,-0.671875,0.078125,0.71875
1629894382968,-0.671875,0.078125,0.71875
1629894383000,-0.6875,0.078125,0.71875
1629894383031,-0.671875,0.078125,0.71875
1629894383062,-0.671875,0.078125,0.71875
1629894383093,-0.6875,0.078125,0.71875
1629894383125,-0.671875,0.078125,0.71875
1629894383156,-0.671875,0.078125,0.71875
1629894383187,-0.671875,0.078125,0.71875
1629894383218,-0.671875,0.078125,0.71875
1629894383250,-0.671875,0.078125,0.71875
1629894383281,-0.671875,0.078125,0.71875
1629894383312,-0.671875,0.078125,0.71875
1629894383343,-0.671875,0.078125,0.71875
1629894383375,-0.671875,0.078125,0.71875
1629894383406,-0.671875,0.078125,0.71875
1629894383437,-0.6875,0.078125,0.71875
1629894383468,-0.671875,0.078125,0.71875
1629894383500,-0.671875,0.078125,0.71875
1629894383531,-0.671875,0.078125,0.71875
1629894383562,-0.671875,0.078125,0.71875
1629894383593,-0.671875,0.078125,0.71875
1629894383625,-0.671875,0.078125,0.71875
1629894383656,-0.671875,0.078125,0.71875
1629894383687,-0.671875,0.078125,0.71875
1629894383718,-0.6875,0.078125,0.71875
1629894383750,-0.6875,0.078125,0.71875
1629894383781,-0.671875,0.078125,0.71875
1629894383812,-0.671875,0.078125,0.71875
1629894383843,-0.671875,0.09375,0.71875
1629894383875,-0.671875,0.078125,0.71875
1629894383906,-0.671875,0.078125,0.71875
1629894383937,-0.671875,0.078125,0.71875
1629894383968,-0.671875,0.078125,0.71875
1629894384000,-0.671875,0.078125,0.71875
1629894384031,-0.671875,0.078125,0.71875
1629894384062,-0.671875,0.078125,0.71875
1629894384093,-0.671875,0.078125,0.71875
1629894384125,-0.671875,0.078125,0.71875
1629894384156,-0.671875,0.078125,0.71875
1629894384187,-0.671875,0.078125,0.71875
1629894384218,-0.671875,0.078125,0.71875
1629894384250,-0.671875,0.078125,0.71875
1629894384281,-0.671875,0.09375,0.71875
