timestamp,ax,ay,az
1630934667000,0.234375,-0.203125,0.921875
1630934667031,0.234375,-0.203125,0.9375
1630934667062,0.234375,-0.203125,0.9375
1630934667093,0.234375,-0.203125,0.9375
1630934667125,0.21875,-0.203125,0.9375
1630934667156,0.234375,-0.203125,0.9375
1630934667187,0.234375,-0.203125,0.9375
1630934667218,0.234375,-0.203125,0.9375
1630934667250,0.234375,-0.203125,0.9375
1630934667281,0.234375,-0.203125,0.9375
1630934667312,0.234375,-0.203125,0.9375
1630934667343,0.234375,-0.203125,0.9375
1630934667375,0.234375,-0.203125,0.9375
1630934667406,0.234375,-0.203125,0.9375
1630934667437,0.21875,-0.203125,0.9375
1630934667468,0.21875,-0.203125,0.9375
1630934667500,0.234375,-0.203125,0.9375
1630934667531,0.234375,-0.203125,0.9375
1630934667562,0.234375,-0.203125,0.9375
1630934667593,0.234375,-0.203125,0.9375
1630934667625,0.234375,-0.203125,0.9375
1630934667656,0.234375,-0.203125,0.9375
1630934667687,0.234375,-0.203125,0.9375
1630934667718,0.234375,-0.203125,0.9375
1630934667750,0.234375,-0.203125,0.9375
1630934667781,0.234375,-0.203125,0.9375
1630934667812,0.234375,-0.203125,0.9375
1630934667843,0.234375,-0.203125,0.9375
1630934667875,0.234375,-0.203125,0.9375
1630934667906,0.234375,-0.203125,0.9375
1630934667937,0.234375,-0.203125,0.9375
1630934667968,0.234375,-0.203125,0.9375
1630934668000,0.234375,-0.203125,0.9375
1630934668031,0.234375,-0.203125,0.9375
1630934668062,0.234375,-0.203125,0.9375
1630934668093,0.234375,-0.203125,0.9375
1630934668125,0.234375,-0.203125,0.9375
1630934668156,0.234375,-0.203125,0.9375
1630934668187,0.234375,-0.203125,0.9375
1630934668218,0.234375,-0.203125,0.9375
1630934668250,0.234375,-0.203125,0.9375
1630934668281,0.234375,-0.203125,0.9375
1630934668312,0.234375,-0.203125,0.9375
1630934668343,0.234375,-0.203125,0.9375
1630934668375,0.234375,-0.203125,0.9375
1630934668406,0.234375,-0.203125,0.9375
1630934668437,0.234375,-0.203125,0.9375
1630934668468,0.234375,-0.203125,0.9375
1630934668500,0.234375,-0.203125,0.9375
1630934668531,0.234375,-0.203125,0.9375
1630934668562,0.234375,-0.203125,0.9375
1630934668593,0.234375,-0.203125,0.9375
1630934668625,0.234375,-0.203125,0.9375
1630934668656,0.234375,-0.203125,0.9375
1630934668687,0.234375,-0.203125,0.9375
1630934668718,0.234375,-0.203125,0.9375
1630934668750,0.25,-0.203125,0.9375
1630934668781,0.234375,-0.203125,0.9375
1630934668812,0.234375,-0.203125,0.921875
1630934668843,0.234375,-0.203125,0.9375
1630934668875,0.25,-0.203125,0.9375
1630934668906,0.234375,-0.203125,0.9375
1630934668937,0.234375,-0.203125,0.9375
1630934668968,0.234375,-0.203125,0.9375
1630934669000,0.234375,-0.203125,0.9375
1630934669031,0.234375,-0.203125,0.9375
1630934669062,0.234375,-0.203125,0.9375
1630934669093,0.234375,-0.203125,0.9375
1630934669125,0.234375,-0.203125,0.9375
1630934669156,0.234375,-0.203125,0.9375
1630934669187,0.234375,-0.203125,0.9375
1630934669218,0.234375,-0.203125,0.9375
1630934669250,0.234375,-0.203125,0.9375
1630934669281,0.234375,-0.203125,0.9375
1630934669312,0.234375,-0.203125,0.9375
1630934669343,0.25,-0.203125,0.9375
1630934669375,0.234375,-0.203125,0.9375
1630934669406,0.234375,-0.203125,0.9375
1630934669437,0.234375,-0.203125,0.9375
1630934669468,0.234375,-0.203125,0.9375
1630934669500,0.234375,-0.203125,0.9375
1630934669531,0.234375,-0.203125,0.9375
1630934669562,0.234375,-0.203125,0.9375
1630934669593,0.234375,-0.203125,0.9375
1630934669625,0.234375,-0.203125,0.9375
1630934669656,0.234375,-0.203125,0.9375
1630934669687,0.234375,-0.203125,0.9375
1630934669718,0.234375,-0.203125,0.9375
1630934669750,0.234375,-0.203125,0.9375
1630934669781,0.234375,-0.203125,0.9375
1630934669812,0.234375,-0.203125,0.9375
1630934669843,0.234375,-0.203125,0.9375
1630934669875,0.234375,-0.203125,0.9375
1630934669906,0.234375,-0.203125,0.9375
1630934669937,0.234375,-0.203125,0.9375
1630934669968,0.234375,-0.203125,0.9375
1630934670000,0.234375,-0.203125,0.9375
1630934670031,0.234375,-0.203125,0.9375
1630934670062,0.234375,-0.203125,0.9375
1630934670093,0.234375,-0.203125,0.9375
1630934670125,0.234375,-0.203125,0.9375
1630934670156,0.234375,-0.203125,0.9375
1630934670187,0.234375,-0.203125,0.9375
1630934670218,0.234375,-0.203125,0.9375
1630934670250,0.234375,-0.203125,0.9375
1630934670281,0.234375,-0.203125,0.9375
1630934670312,0.234375,-0.203125,0.9375
1630934670343,0.234375,-0.203125,0.9375
1630934670375,0.234375,-0.203125,0.9375
1630934670406,0.234375,-0.203125,0.9375
1630934670437,0.234375,-0.203125,0.9375
1630934670468,0.234375,-0.203125,0.9375
1630934670500,0.234375,-0.203125,0.9375
1630934670531,0.234375,-0.203125,0.9375
1630934670562,0.234375,-0.203125,0.9375
1630934670593,0.234375,-0.203125,0.9375
1630934670625,0.234375,-0.203125,0.9375
1630934670656,0.234375,-0.203125,0.9375
1630934670687,0.234375,-0.203125,0.9375
1630934670718,0.234375,-0.203125,0.9375
1630934670750,0.234375,-0.203125,0.9375
1630934670781,0.234375,-0.203125,0.9375
1630934670812,0.234375,-0.203125,0.9375
1630934670843,0.234375,-0.203125,0.9375
1630934670875,0.234375,-0.203125,0.9375
1630934670906,0.234375,-0.203125,0.9375
1630934670937,0.234375,-0.203125,0.9375
1630934670968,0.234375,-0.203125,0.9375
1630934671000,0.234375,-0.203125,0.9375
1630934671031,0.234375,-0.203125,0.9375
1630934671062,0.234375,-0.203125,0.9375
1630934671093,0.234375,-0.203125,0.9375
1630934671125,0.234375,-0.203125,0.9375
1630934671156,0.234375,-0.203125,0.9375
1630934671187,0.234375,-0.203125,0.9375
1630934671218,0.234375,-0.203125,0.9375
1630934671250,0.234375,-0.203125,0.9375
1630934671281,0.234375,-0.203125,0.9375
1630934671312,0.234375,-0.203125,0.9375
1630934671343,0.234375,-0.203125,0.9375
1630934671375,0.234375,-0.203125,0.9375
1630934671406,0.234375,-0.203125,0.9375
1630934671437,0.234375,-0.203125,0.9375
1630934671468,0.234375,-0.203125,0.9375
1630934671500,0.234375,-0.203125,0.9375
1630934671531,0.234375,-0.203125,0.9375
1630934671562,0.234375,-0.203125,0.9375
1630934671593,0.234375,-0.203125,0.921875
1630934671625,0.234375,-0.203125,0.9375
1630934671656,0.234375,-0.203125,0.9375
1630934671687,0.234375,-0.203125,0.9375
1630934671718,0.234375,-0.203125,0.9375
1630934671750,0.234375,-0.203125,0.9375
1630934671781,0.234375,-0.203125,0.9375
1630934671812,0.234375,-0.203125,0.9375
1630934671843,0.234375,-0.203125,0.9375
1630934671875,0.234375,-0.203125,0.9375
1630934671906,0.234375,-0.203125,0.9375
1630934671937,0.234375,-0.203125,0.9375
1630934671968,0.234375,-0.203125,0.9375
1630934672000,0.234375,-0.203125,0.9375
1630934672031,0.234375,-0.203125,0.9375
1630934672062,0.234375,-0.203125,0.9375
1630934672093,0.234375,-0.203125,0.9375
1630934672125,0.25,-0.203125,0.9375
1630934672156,0.234375,-0.203125,0.9375
1630934672187,0.234375,-0.203125,0.9375
1630934672218,0.234375,-0.203125,0.9375
1630934672250,0.234375,-0.203125,0.9375
1630934672281,0.234375,-0.203125,0.9375
1630934672312,0.234375,-0.203125,0.9375
1630934672343,0.234375,-0.203125,0.9375
1630934672375,0.234375,-0.203125,0.9375
1630934672406,0.234375,-0.203125,0.9375
1630934672437,0.234375,-0.203125,0.9375
1630934672468,0.234375,-0.21875,0.9375
1630934672500,0.25,-0.21875,0.9375
1630934672531,0.234375,-0.203125,0.9375
1630934672562,0.21875,-0.203125,0.921875
1630934672593,0.234375,-0.203125,0.9375
1630934672625,0.234375,-0.21875,0.9375
1630934672656,0.234375,-0.203125,0.9375
1630934672687,0.234375,-0.203125,0.9375
1630934672718,0.234375,-0.203125,0.9375
1630934672750,0.21875,-0.203125,0.9375
1630934672781,0.21875,-0.203125,0.9375
1630934672812,0.21875,-0.203125,0.9375
1630934672843,0.234375,-0.203125,0.9375
1630934672875,0.234375,-0.203125,0.9375
1630934672906,0.234375,-0.203125,0.9375
1630934672937,0.234375,-0.203125,0.9375
1630934672968,0.234375,-0.203125,0.9375
1630934673000,0.25,-0.203125,0.9375
1630934673031,0.25,-0.203125,0.9375
1630934673062,0.25,-0.21875,0.9375
1630934673093,0.25,-0.203125,0.9375
1630934673125,0.25,-0.21875,0.9375
1630934673156,0.25,-0.203125,0.9375
1630934673187,0.25,-0.203125,0.921875
1630934673218,0.25,-0.203125,0.9375
1630934673250,0.234375,-0.203125,0.9375
1630934673281,0.234375,-0.203125,0.9375
1630934673312,0.234375,-0.203125,0.921875
1630934673343,0.234375,-0.203125,0.9375
1630934673375,0.234375,-0.203125,0.9375
1630934673406,0.234375,-0.203125,0.9375
1630934673437,0.234375,-0.203125,0.9375
1630934673468,0.234375,-0.203125,0.9375
1630934673500,0.234375,-0.203125,0.9375
1630934673531,0.234375,-0.203125,0.9375
1630934673562,0.234375,-0.203125,0.9375
1630934673593,0.234375,-0.203125,0.9375
1630934673625,0.234375,-0.203125,0.9375
1630934673656,0.234375,-0.203125,0.9375
1630934673687,0.234375,-0.203125,0.921875
1630934673718,0.234375,-0.203125,0.9375
1630934673750,0.234375,-0.203125,0.9375
1630934673781,0.25,-0.203125,0.9375
1630934673812,0.234375,-0.203125,0.9375
1630934673843,0.25,-0.203125,0.9375
1630934673875,0.234375,-0.203125,0.921875
1630934673906,0.234375,-0.203125,0.9375
1630934673937,0.234375,-0.203125,0.9375
1630934673968,0.25,-0.203125,0.9375
1630934674000,0.234375,-0.203125,0.9375
1630934674031,0.234375,-0.203125,0.9375
1630934674062,0.234375,-0.203125,0.9375
1630934674093,0.234375,-0.203125,0.9375
1630934674125,0.234375,-0.203125,0.9375
1630934674156,0.234375,-0.203125,0.9375
1630934674187,0.234375,-0.203125,0.9375
1630934674218,0.234375,-0.203125,0.9375
1630934674250,0.25,-0.203125,0.9375
1630934674281,0.234375,-0.203125,0.9375
1630934674312,0.25,-0.203125,0.9375
1630934674343,0.25,-0.203125,0.9375
1630934674375,0.234375,-0.203125,0.9375
1630934674406,0.234375,-0.203125,0.9375
1630934674437,0.25,-0.203125,0.921875
1630934674468,0.234375,-0.203125,0.9375
1630934674500,0.234375,-0.203125,0.9375
1630934674531,0.25,-0.203125,0.9375
1630934674562,0.234375,-0.203125,0.9375
1630934674593,0.234375,-0.203125,0.921875
1630934674625,0.234375,-0.203125,0.9375
1630934674656,0.25,-0.203125,0.9375
1630934674687,0.234375,-0.203125,0.921875
1630934674718,0.234375,-0.203125,0.9375
1630934674750,0.234375,-0.203125,0.9375
1630934674781,0.234375,-0.203125,0.9375
1630934674812,0.234375,-0.203125,0.9375
1630934674843,0.234375,-0.203125,0.9375
1630934674875,0.234375,-0.203125,0.921875
1630934674906,0.234375,-0.203125,0.9375
1630934674937,0.234375,-0.203125,0.921875
1630934674968,0.234375,-0.203125,0.9375
1630934675000,0.234375,-0.203125,0.9375
1630934675031,0.234375,-0.203125,0.9375
1630934675062,0.234375,-0.203125,0.9375
1630934675093,0.234375,-0.203125,0.9375
1630934675125,0.234375,-0.203125,0.9375
1630934675156,0.234375,-0.203125,0.9375
1630934675187,0.234375,-0.203125,0.9375
1630934675218,0.234375,-0.203125,0.921875
1630934675250,0.234375,-0.203125,0.9375
1630934675281,0.234375,-0.203125,0.9375
1630934675312,0.234375,-0.203125,0.9375
1630934675343,0.234375,-0.203125,0.9375
1630934675375,0.234375,-0.203125,0.9375
1630934675406,0.234375,-0.203125,0.9375
1630934675437,0.234375,-0.203125,0.9375
1630934675468,0.234375,-0.203125,0.9375
1630934675500,0.234375,-0.203125,0.9375
1630934675531,0.234375,-0.203125,0.9375
1630934675562,0.234375,-0.203125,0.9375
1630934675593,0.234375,-0.203125,0.9375
1630934675625,0.234375,-0.203125,0.9375
1630934675656,0.234375,-0.203125,0.9375
1630934675687,0.234375,-0.203125,0.9375
1630934675718,0.234375,-0.203125,0.9375
1630934675750,0.234375,-0.203125,0.9375
1630934675781,0.234375,-0.203125,0.9375
1630934675812,0.234375,-0.203125,0.9375
1630934675843,0.234375,-0.203125,0.9375
1630934675875,0.234375,-0.203125,0.9375
1630934675906,0.25,-0.203125,0.921875
1630934675937,0.234375,-0.203125,0.9375
1630934675968,0.234375,-0.203125,0.9375
1630934676000,0.234375,-0.203125,0.9375
1630934676031,0.25,-0.203125,0.9375
1630934676062,0.234375,-0.203125,0.921875
1630934676093,0.25,-0.203125,0.9375
1630934676125,0.25,-0.203125,0.921875
1630934676156,0.25,-0.203125,0.9375
1630934676187,0.25,-0.203125,0.9375
1630934676218,0.234375,-0.203125,0.9375
1630934676250,0.25,-0.203125,0.9375
1630934676281,0.234375,-0.203125,0.9375
1630934676312,0.234375,-0.203125,0.9375
1630934676343,0.234375,-0.203125,0.9375
1630934676375,0.234375,-0.203125,0.9375
1630934676406,0.25,-0.203125,0.9375
1630934676437,0.25,-0.203125,0.9375
1630934676468,0.25,-0.203125,0.921875
1630934676500,0.25,-0.203125,0.9375
1630934676531,0.25,-0.203125,0.9375
1630934676562,0.234375,-0.203125,0.9375
1630934676593,0.234375,-0.203125,0.9375
1630934676625,0.234375,-0.203125,0.9375
1630934676656,0.234375,-0.203125,0.9375
1630934676687,0.234375,-0.203125,0.9375
1630934676718,0.234375,-0.203125,0.9375
1630934676750,0.25,-0.203125,0.9375
1630934676781,0.25,-0.203125,0.9375
1630934676812,0.234375,-0.203125,0.9375
1630934676843,0.234375,-0.203125,0.9375
1630934676875,0.234375,-0.203125,0.9375
1630934676906,0.234375,-0.203125,0.9375
1630934676937,0.25,-0.203125,0.9375
1630934676968,0.234375,-0.203125,0.9375
1630934677000,0.234375,-0.203125,0.9375
1630934677031,0.234375,-0.203125,0.9375
1630934677062,0.25,-0.203125,0.9375
1630934677093,0.234375,-0.203125,0.9375
1630934677125,0.234375,-0.203125,0.9375
1630934677156,0.234375,-0.203125,0.9375
1630934677187,0.25,-0.203125,0.9375
1630934677218,0.25,-0.203125,0.9375
1630934677250,0.234375,-0.203125,0.9375
1630934677281,0.234375,-0.203125,0.9375
1630934677312,0.234375,-0.203125,0.9375
1630934677343,0.234375,-0.203125,0.9375
1630934677375,0.234375,-0.203125,0.9375
1630934677406,0.25,-0.203125,0.921875
1630934677437,0.25,-0.203125,0.9375
1630934677468,0.25,-0.203125,0.9375
1630934677500,0.234375,-0.203125,0.9375
1630934677531,0.234375,-0.203125,0.921875
1630934677562,0.234375,-0.203125,0.9375
1630934677593,0.25,-0.203125,0.9375
1630934677625,0.25,-0.203125,0.9375
1630934677656,0.25,-0.203125,0.9375
1630934677687,0.25,-0.203125,0.9375
1630934677718,0.234375,-0.203125,0.9375
1630934677750,0.234375,-0.203125,0.9375
1630934677781,0.25,-0.203125,0.9375
1630934677812,0.25,-0.203125,0.9375
1630934677843,0.234375,-0.203125,0.9375
1630934677875,0.234375,-0.203125,0.9375
1630934677906,0.25,-0.203125,0.9375
1630934677937,0.25,-0.203125,0.9375
1630934677968,0.25,-0.203125,0.9375
1630934678000,0.25,-0.203125,0.9375
1630934678031,0.25,-0.203125,0.9375
1630934678062,0.234375,-0.203125,0.9375
1630934678093,0.25,-0.203125,0.9375
1630934678125,0.25,-0.203125,0.9375
1630934678156,0.25,-0.203125,0.9375
1630934678187,0.25,-0.203125,0.9375
1630934678218,0.25,-0.203125,0.9375
1630934678250,0.234375,-0.203125,0.9375
1630934678281,0.25,-0.203125,0.9375
1630934678312,0.25,-0.203125,0.921875
1630934678343,0.25,-0.203125,0.9375
1630934678375,0.25,-0.203125,0.9375
1630934678406,0.25,-0.203125,0.9375
1630934678437,0.25,-0.203125,0.9375
1630934678468,0.25,-0.203125,0.9375
1630934678500,0.234375,-0.203125,0.9375
1630934678531,0.25,-0.203125,0.9375
1630934678562,0.25,-0.203125,0.9375
1630934678593,0.25,-0.203125,0.9375
1630934678625,0.25,-0.203125,0.9375
1630934678656,0.234375,-0.203125,0.921875
1630934678687,0.25,-0.203125,0.9375
1630934678718,0.25,-0.203125,0.9375
1630934678750,0.25,-0.203125,0.9375
1630934678781,0.25,-0.203125,0.9375
1630934678812,0.234375,-0.203125,0.921875
1630934678843,0.25,-0.203125,0.921875
1630934678875,0.25,-0.203125,0.9375
1630934678906,0.25,-0.203125,0.9375
1630934678937,0.25,-0.203125,0.9375
1630934678968,0.25,-0.203125,0.9375
1630934679000,0.25,-0.203125,0.9375
1630934679031,0.25,-0.203125,0.9375
1630934679062,0.25,-0.203125,0.921875
1630934679093,0.25,-0.203125,0.9375
1630934679125,0.25,-0.203125,0.9375
1630934679156,0.25,-0.203125,0.9375
1630934679187,0.25,-0.203125,0.9375
1630934679218,0.234375,-0.203125,0.9375
1630934679250,0.234375,-0.203125,0.9375
1630934679281,0.25,-0.203125,0.9375
1630934679312,0.25,-0.203125,0.9375
1630934679343,0.25,-0.203125,0.9375
1630934679375,0.234375,-0.203125,0.9375
1630934679406,0.25,-0.203125,0.921875
1630934679437,0.25,-0.203125,0.9375
1630934679468,0.25,-0.203125,0.9375
1630934679500,0.25,-0.203125,0.921875
1630934679531,0.25,-0.203125,0.9375
1630934679562,0.25,-0.203125,0.9375
1630934679593,0.25,-0.203125,0.9375
1630934679625,0.25,-0.203125,0.9375
1630934679656,0.25,-0.203125,0.9375
1630934679687,0.25,-0.203125,0.9375
1630934679718,0.25,-0.203125,0.9375
1630934679750,0.234375,-0.203125,0.9375
1630934679781,0.234375,-0.203125,0.9375
1630934679812,0.25,-0.203125,0.9375
1630934679843,0.25,-0.203125,0.9375
1630934679875,0.25,-0.203125,0.9375
1630934679906,0.25,-0.203125,0.921875
1630934679937,0.234375,-0.203125,0.921875
1630934679968,0.234375,-0.203125,0.9375
1630934680000,0.234375,-0.203125,0.9375
1630934680031,0.25,-0.203125,0.9375
1630934680062,0.25,-0.203125,0.9375
1630934680093,0.234375,-0.203125,0.9375
1630934680125,0.25,-0.203125,0.9375
1630934680156,0.25,-0.203125,0.9375
1630934680187,0.25,-0.203125,0.9375
1630934680218,0.25,-0.203125,0.9375
1630934680250,0.25,-0.203125,0.921875
1630934680281,0.25,-0.203125,0.9375
1630934680312,0.25,-0.203125,0.9375
1630934680343,0.25,-0.203125,0.9375
1630934680375,0.25,-0.203125,0.9375
1630934680406,0.25,-0.203125,0.9375
1630934680437,0.25,-0.203125,0.9375
1630934680468,0.25,-0.203125,0.921875
1630934680500,0.25,-0.203125,0.9375
1630934680531,0.25,-0.203125,0.9375
1630934680562,0.25,-0.203125,0.9375
1630934680593,0.25,-0.203125,0.9375
1630934680625,0.25,-0.203125,0.9375
1630934680656,0.25,-0.203125,0.9375
1630934680687,0.25,-0.203125,0.9375
1630934680718,0.25,-0.203125,0.921875
1630934680750,0.25,-0.203125,0.9375
1630934680781,0.25,-0.203125,0.9375
1630934680812,0.25,-0.203125,0.9375
1630934680843,0.25,-0.203125,0.921875
1630934680875,0.25,-0.203125,0.9375
1630934680906,0.234375,-0.203125,0.9375
1630934680937,0.25,-0.203125,0.9375
1630934680968,0.25,-0.203125,0.9375
1630934681000,0.25,-0.203125,0.9375
1630934681031,0.25,-0.203125,0.9375
1630934681062,0.25,-0.203125,0.9375
1630934681093,0.25,-0.203125,0.921875
1630934681125,0.25,-0.203125,0.9375
1630934681156,0.25,-0.203125,0.9375
1630934681187,0.25,-0.203125,0.921875
1630934681218,0.25,-0.203125,0.9375
1630934681250,0.25,-0.203125,0.9375
1630934681281,0.25,-0.203125,0.9375
1630934681312,0.25,-0.203125,0.921875
1630934681343,0.25,-0.203125,0.9375
1630934681375,0.25,-0.203125,0.9375
1630934681406,0.25,-0.203125,0.9375
1630934681437,0.25,-0.203125,0.9375
1630934681468,0.25,-0.203125,0.9375
1630934681500,0.25,-0.203125,0.9375
1630934681531,0.25,-0.203125,0.9375
1630934681562,0.25,-0.203125,0.9375
1630934681593,0.25,-0.203125,0.9375
1630934681625,0.25,-0.203125,0.921875
1630934681656,0.25,-0.203125,0.9375
1630934681687,0.25,-0.203125,0.921875
1630934681718,0.25,-0.203125,0.9375
1630934681750,0.25,-0.203125,0.9375
1630934681781,0.234375,-0.203125,0.921875
1630934681812,0.25,-0.203125,0.9375
1630934681843,0.25,-0.203125,0.9375
1630934681875,0.25,-0.203125,0.9375
1630934681906,0.234375,-0.203125,0.9375
1630934681937,0.234375,-0.203125,0.9375
1630934681968,0.234375,-0.203125,0.9375
1630934682000,0.25,-0.203125,0.9375
1630934682031,0.25,-0.203125,0.9375
1630934682062,0.234375,-0.203125,0.9375
1630934682093,0.234375,-0.203125,0.9375
1630934682125,0.234375,-0.203125,0.9375
1630934682156,0.25,-0.203125,0.9375
1630934682187,0.25,-0.203125,0.9375
1630934682218,0.234375,-0.203125,0.9375
1630934682250,0.25,-0.203125,0.9375
1630934682281,0.25,-0.203125,0.921875
1630934682312,0.25,-0.203125,0.921875
1630934682343,0.25,-0.203125,0.9375
1630934682375,0.25,-0.203125,0.9375
1630934682406,0.25,-0.203125,0.9375
1630934682437,0.25,-0.203125,0.9375
1630934682468,0.25,-0.203125,0.9375
1630934682500,0.25,-0.203125,0.9375
1630934682531,0.25,-0.203125,0.9375
1630934682562,0.25,-0.203125,0.9375
1630934682593,0.25,-0.203125,0.9375
1630934682625,0.25,-0.203125,0.921875
1630934682656,0.25,-0.203125,0.9375
1630934682687,0.25,-0.203125,0.9375
1630934682718,0.25,-0.203125,0.9375
1630934682750,0.25,-0.203125,0.9375
1630934682781,0.234375,-0.203125,0.9375
1630934682812,0.234375,-0.203125,0.9375
1630934682843,0.234375,-0.203125,0.9375
1630934682875,0.25,-0.203125,0.921875
1630934682906,0.25,-0.203125,0.9375
1630934682937,0.25,-0.203125,0.9375
1630934682968,0.25,-0.203125,0.9375
1630934683000,0.25,-0.203125,0.9375
1630934683031,0.25,-0.203125,0.9375
1630934683062,0.25,-0.203125,0.9375
1630934683093,0.25,-0.203125,0.9375
1630934683125,0.25,-0.203125,0.9375
1630934683156,0.25,-0.203125,0.9375
1630934683187,0.25,-0.203125,0.9375
1630934683218,0.25,-0.203125,0.9375
1630934683250,0.25,-0.203125,0.921875
1630934683281,0.25,-0.203125,0.9375
1630934683312,0.25,-0.203125,0.9375
1630934683343,0.25,-0.203125,0.9375
1630934683375,0.25,-0.203125,0.9375
1630934683406,0.25,-0.203125,0.921875
1630934683437,0.25,-0.203125,0.9375
1630934683468,0.234375,-0.203125,0.9375
1630934683500,0.25,-0.203125,0.9375
1630934683531,0.25,-0.203125,0.921875
1630934683562,0.25,-0.203125,0.9375
1630934683593,0.25,-0.203125,0.9375
1630934683625,0.25,-0.203125,0.9375
1630934683656,0.25,-0.203125,0.9375
1630934683687,0.25,-0.203125,0.9375
1630934683718,0.25,-0.203125,0.9375
1630934683750,0.25,-0.203125,0.9375
1630934683781,0.25,-0.203125,0.921875
1630934683812,0.25,-0.203125,0.9375
1630934683843,0.234375,-0.203125,0.9375
1630934683875,0.234375,-0.203125,0.9375
1630934683906,0.265625,-0.203125,0.9375
1630934683937,0.25,-0.203125,0.9375
1630934683968,0.25,-0.203125,0.9375
1630934684000,0.25,-0.203125,0.9375
1630934684031,0.25,-0.203125,0.921875
1630934684062,0.25,-0.203125,0.921875
1630934684093,0.234375,-0.203125,0.9375
1630934684125,0.25,-0.203125,0.9375
1630934684156,0.25,-0.203125,0.9375
1630934684187,0.234375,-0.203125,0.9375
1630934684218,0.25,-0.203125,0.9375
1630934684250,0.25,-0.203125,0.9375
1630934684281,0.25,-0.203125,0.9375
1630934684312,0.25,-0.203125,0.9375
1630934684343,0.234375,-0.203125,0.9375
1630934684375,0.25,-0.203125,0.9375
1630934684406,0.25,-0.203125,0.9375
1630934684437,0.25,-0.203125,0.9375
1630934684468,0.25,-0.203125,0.9375
1630934684500,0.25,-0.203125,0.9375
1630934684531,0.25,-0.203125,0.921875
1630934684562,0.25,-0.203125,0.921875
1630934684593,0.25,-0.203125,0.9375
1630934684625,0.25,-0.203125,0.9375
1630934684656,0.25,-0.203125,0.9375
1630934684687,0.25,-0.203125,0.9375
1630934684718,0.25,-0.203125,0.9375
1630934684750,0.25,-0.203125,0.9375
1630934684781,0.25,-0.203125,0.921875
1630934684812,0.25,-0.203125,0.9375
1630934684843,0.25,-0.203125,0.9375
1630934684875,0.25,-0.203125,0.9375
1630934684906,0.25,-0.203125,0.9375
1630934684937,0.25,-0.203125,0.9375
1630934684968,0.25,-0.203125,0.921875
1630934685000,0.25,-0.203125,0.9375
1630934685031,0.25,-0.203125,0.921875
1630934685062,0.25,-0.203125,0.9375
1630934685093,0.25,-0.203125,0.9375
1630934685125,0.25,-0.203125,0.9375
1630934685156,0.25,-0.203125,0.9375
1630934685187,0.234375,-0.203125,0.9375
1630934685218,0.25,-0.203125,0.921875
1630934685250,0.25,-0.203125,0.9375
1630934685281,0.25,-0.203125,0.9375
1630934685312,0.25,-0.203125,0.9375
1630934685343,0.25,-0.203125,0.9375
1630934685375,0.25,-0.203125,0.9375
1630934685406,0.25,-0.203125,0.9375
1630934685437,0.25,-0.203125,0.921875
1630934685468,0.25,-0.203125,0.9375
1630934685500,0.25,-0.203125,0.921875
1630934685531,0.25,-0.203125,0.9375
1630934685562,0.25,-0.203125,0.9375
1630934685593,0.25,-0.203125,0.921875
1630934685625,0.25,-0.203125,0.9375
1630934685656,0.25,-0.203125,0.921875
1630934685687,0.25,-0.203125,0.9375
1630934685718,0.25,-0.203125,0.921875
1630934685750,0.25,-0.203125,0.9375
1630934685781,0.25,-0.203125,0.9375
1630934685812,0.25,-0.203125,0.9375
1630934685843,0.25,-0.203125,0.9375
1630934685875,0.25,-0.203125,0.921875
1630934685906,0.25,-0.203125,0.9375
1630934685937,0.25,-0.203125,0.9375
1630934685968,0.25,-0.203125,0.9375
1630934686000,0.25,-0.203125,0.9375
1630934686031,0.25,-0.203125,0.9375
1630934686062,0.25,-0.203125,0.9375
1630934686093,0.25,-0.203125,0.9375
1630934686125,0.25,-0.203125,0.921875
1630934686156,0.25,-0.203125,0.9375
1630934686187,0.234375,-0.203125,0.9375
1630934686218,0.25,-0.203125,0.9375
1630934686250,0.25,-0.203125,0.921875
1630934686281,0.25,-0.203125,0.9375
1630934686312,0.25,-0.203125,0.9375
1630934686343,0.25,-0.203125,0.921875
1630934686375,0.25,-0.203125,0.9375
1630934686406,0.25,-0.203125,0.9375
1630934686437,0.25,-0.203125,0.9375
1630934686468,0.25,-0.203125,0.9375
1630934686500,0.25,-0.203125,0.921875
1630934686531,0.25,-0.203125,0.9375
1630934686562,0.25,-0.203125,0.921875
1630934686593,0.25,-0.203125,0.9375
1630934686625,0.25,-0.203125,0.921875
1630934686656,0.25,-0.203125,0.9375
1630934686687,0.25,-0.203125,0.9375
1630934686718,0.25,-0.203125,0.9375
1630934686750,0.25,-0.203125,0.9375
1630934686781,0.25,-0.203125,0.9375
1630934686812,0.25,-0.203125,0.9375
1630934686843,0.25,-0.203125,0.9375
1630934686875,0.25,-0.203125,0.921875
1630934686906,0.25,-0.203125,0.9375
1630934686937,0.25,-0.203125,0.9375
1630934686968,0.25,-0.203125,0.921875
1630934687000,0.25,-0.203125,0.9375
1630934687031,0.25,-0.203125,0.9375
1630934687062,0.25,-0.203125,0.9375
1630934687093,0.25,-0.203125,0.9375
1630934687125,0.25,-0.203125,0.921875
1630934687156,0.25,-0.203125,0.9375
1630934687187,0.25,-0.203125,0.9375
1630934687218,0.25,-0.203125,0.9375
1630934687250,0.25,-0.203125,0.9375
1630934687281,0.25,-0.203125,0.9375
1630934687312,0.25,-0.203125,0.9375
1630934687343,0.25,-0.203125,0.9375
1630934687375,0.25,-0.203125,0.9375
1630934687406,0.25,-0.203125,0.921875
1630934687437,0.25,-0.203125,0.9375
1630934687468,0.25,-0.203125,0.9375
1630934687500,0.25,-0.203125,0.9375
1630934687531,0.25,-0.203125,0.921875
1630934687562,0.25,-0.203125,0.9375
1630934687593,0.25,-0.203125,0.9375
1630934687625,0.25,-0.203125,0.921875
1630934687656,0.25,-0.203125,0.921875
1630934687687,0.25,-0.203125,0.9375
1630934687718,0.234375,-0.203125,0.9375
1630934687750,0.25,-0.203125,0.9375
1630934687781,0.25,-0.203125,0.9375
1630934687812,0.25,-0.203125,0.9375
1630934687843,0.25,-0.203125,0.9375
1630934687875,0.25,-0.203125,0.9375
1630934687906,0.25,-0.203125,0.9375
1630934687937,0.25,-0.203125,0.9375
1630934687968,0.25,-0.203125,0.9375
1630934688000,0.25,-0.203125,0.9375
1630934688031,0.25,-0.203125,0.9375
1630934688062,0.25,-0.203125,0.9375
1630934688093,0.25,-0.203125,0.9375
1630934688125,0.25,-0.203125,0.9375
1630934688156,0.25,-0.203125,0.9375
1630934688187,0.25,-0.203125,0.9375
1630934688218,0.25,-0.203125,0.9375
1630934688250,0.25,-0.203125,0.9375
1630934688281,0.25,-0.203125,0.921875
1630934688312,0.25,-0.203125,0.9375
1630934688343,0.25,-0.203125,0.9375
1630934688375,0.25,-0.203125,0.9375
1630934688406,0.25,-0.203125,0.9375
1630934688437,0.25,-0.203125,0.9375
1630934688468,0.234375,-0.203125,0.9375
1630934688500,0.234375,-0.203125,0.9375
1630934688531,0.25,-0.203125,0.9375
1630934688562,0.25,-0.203125,0.9375
1630934688593,0.25,-0.203125,0.9375
1630934688625,0.234375,-0.203125,0.9375
1630934688656,0.25,-0.203125,0.9375
1630934688687,0.25,-0.203125,0.9375
1630934688718,0.25,-0.203125,0.9375
1630934688750,0.25,-0.203125,0.9375
1630934688781,0.25,-0.203125,0.9375
1630934688812,0.25,-0.203125,0.9375
1630934688843,0.25,-0.203125,0.9375
1630934688875,0.25,-0.203125,0.9375
1630934688906,0.25,-0.203125,0.9375
1630934688937,0.25,-0.203125,0.921875
1630934688968,0.25,-0.203125,0.9375
1630934689000,0.25,-0.203125,0.9375
1630934689031,0.25,-0.203125,0.9375
1630934689062,0.25,-0.203125,0.921875
1630934689093,0.25,-0.203125,0.921875
1630934689125,0.25,-0.203125,0.9375
1630934689156,0.25,-0.203125,0.9375
1630934689187,0.25,-0.203125,0.9375
1630934689218,0.25,-0.203125,0.9375
1630934689250,0.25,-0.203125,0.921875
1630934689281,0.25,-0.203125,0.9375
1630934689312,0.25,-0.203125,0.921875
1630934689343,0.25,-0.203125,0.9375
1630934689375,0.25,-0.203125,0.9375
1630934689406,0.25,-0.203125,0.9375
1630934689437,0.25,-0.203125,0.921875
1630934689468,0.25,-0.203125,0.9375
1630934689500,0.25,-0.203125,0.9375
1630934689531,0.25,-0.203125,0.9375
1630934689562,0.25,-0.203125,0.9375
1630934689593,0.25,-0.203125,0.921875
1630934689625,0.25,-0.203125,0.9375
1630934689656,0.25,-0.203125,0.9375
1630934689687,0.25,-0.203125,0.9375
1630934689718,0.25,-0.203125,0.9375
1630934689750,0.25,-0.203125,0.921875
1630934689781,0.25,-0.203125,0.9375
1630934689812,0.25,-0.203125,0.9375
1630934689843,0.25,-0.203125,0.921875
1630934689875,0.25,-0.203125,0.9375
1630934689906,0.25,-0.203125,0.9375
1630934689937,0.25,-0.203125,0.9375
1630934689968,0.25,-0.203125,0.9375
1630934690000,0.25,-0.203125,0.9375
1630934690031,0.25,-0.203125,0.9375
1630934690062,0.25,-0.203125,0.921875
1630934690093,0.25,-0.203125,0.9375
1630934690125,0.25,-0.203125,0.9375
1630934690156,0.25,-0.203125,0.9375
1630934690187,0.25,-0.203125,0.9375
1630934690218,0.25,-0.203125,0.9375
1630934690250,0.25,-0.203125,0.9375
1630934690281,0.25,-0.203125,0.9375
1630934690312,0.25,-0.203125,0.9375
1630934690343,0.25,-0.203125,0.9375
1630934690375,0.25,-0.203125,0.9375
1630934690406,0.25,-0.203125,0.9375
1630934690437,0.25,-0.203125,0.9375
1630934690468,0.25,-0.203125,0.9375
1630934690500,0.25,-0.203125,0.9375
1630934690531,0.25,-0.203125,0.9375
1630934690562,0.234375,-0.203125,0.9375
1630934690593,0.25,-0.203125,0.9375
1630934690625,0.25,-0.203125,0.9375
1630934690656,0.25,-0.203125,0.9375
1630934690687,0.25,-0.203125,0.9375
1630934690718,0.25,-0.203125,0.9375
1630934690750,0.25,-0.203125,0.9375
1630934690781,0.25,-0.203125,0.9375
1630934690812,0.234375,-0.203125,0.9375
1630934690843,0.25,-0.203125,0.9375
1630934690875,0.25,-0.203125,0.890625
1630934690906,0.25,-0.203125,0.9375
1630934690937,0.25,-0.203125,0.9375
1630934690968,0.25,-0.203125,0.9375
1630934691000,0.25,-0.203125,0.9375
1630934691031,0.25,-0.203125,0.9375
1630934691062,0.25,-0.203125,0.9375
1630934691093,0.25,-0.203125,0.9375
1630934691125,0.25,-0.203125,0.9375
1630934691156,0.25,-0.203125,0.9375
1630934691187,0.25,-0.203125,0.9375
1630934691218,0.25,-0.203125,0.921875
1630934691250,0.25,-0.203125,0.9375
1630934691281,0.25,-0.203125,0.9375
1630934691312,0.25,-0.203125,0.9375
1630934691343,0.25,-0.203125,0.9375
1630934691375,0.25,-0.203125,0.9375
1630934691406,0.25,-0.203125,0.9375
1630934691437,0.25,-0.203125,0.9375
1630934691468,0.25,-0.203125,0.9375
1630934691500,0.25,-0.203125,0.921875
1630934691531,0.25,-0.203125,0.9375
1630934691562,0.25,-0.203125,0.9375
1630934691593,0.25,-0.203125,0.9375
1630934691625,0.25,-0.203125,0.9375
1630934691656,0.25,-0.203125,0.921875
1630934691687,0.25,-0.203125,0.9375
1630934691718,0.25,-0.203125,0.921875
1630934691750,0.25,-0.203125,0.9375
1630934691781,0.265625,-0.203125,0.9375
1630934691812,0.25,-0.203125,0.9375
1630934691843,0.25,-0.203125,0.9375
1630934691875,0.25,-0.203125,0.9375
1630934691906,0.25,-0.203125,0.9375
1630934691937,0.25,-0.203125,0.921875
1630934691968,0.25,-0.203125,0.921875
1630934692000,0.25,-0.203125,0.9375
1630934692031,0.25,-0.203125,0.9375
1630934692062,0.25,-0.203125,0.9375
1630934692093,0.25,-0.203125,0.9375
1630934692125,0.25,-0.203125,0.9375
1630934692156,0.25,-0.203125,0.9375
1630934692187,0.25,-0.203125,0.9375
1630934692218,0.25,-0.203125,0.921875
1630934692250,0.25,-0.203125,0.921875
1630934692281,0.25,-0.203125,0.9375
1630934692312,0.25,-0.203125,0.9375
1630934692343,0.25,-0.203125,0.9375
1630934692375,0.25,-0.203125,0.9375
1630934692406,0.25,-0.203125,0.921875
1630934692437,0.25,-0.203125,0.921875
1630934692468,0.25,-0.203125,0.921875
1630934692500,0.25,-0.203125,0.921875
1630934692531,0.25,-0.203125,0.9375
1630934692562,0.25,-0.203125,0.9375
1630934692593,0.25,-0.203125,0.9375
1630934692625,0.25,-0.203125,0.9375
1630934692656,0.25,-0.203125,0.9375
1630934692687,0.25,-0.203125,0.921875
1630934692718,0.25,-0.203125,0.921875
1630934692750,0.25,-0.203125,0.9375
1630934692781,0.25,-0.203125,0.9375
1630934692812,0.25,-0.203125,0.921875
1630934692843,0.25,-0.203125,0.921875
1630934692875,0.25,-0.203125,0.9375
1630934692906,0.25,-0.203125,0.921875
1630934692937,0.265625,-0.203125,0.921875
1630934692968,0.25,-0.203125,0.9375
1630934693000,0.25,-0.203125,0.921875
1630934693031,0.25,-0.203125,0.921875
1630934693062,0.25,-0.203125,0.921875
1630934693093,0.265625,-0.203125,0.9375
1630934693125,0.265625,-0.203125,0.9375
1630934693156,0.25,-0.203125,0.921875
1630934693187,0.25,-0.203125,0.9375
1630934693218,0.25,-0.203125,0.9375
1630934693250,0.25,-0.203125,0.921875
1630934693281,0.25,-0.203125,0.9375
1630934693312,0.25,-0.203125,0.921875
1630934693343,0.25,-0.203125,0.9375
1630934693375,0.25,-0.203125,0.921875
1630934693406,0.25,-0.203125,0.9375
1630934693437,0.25,-0.203125,0.9375
1630934693468,0.265625,-0.203125,0.9375
1630934693500,0.265625,-0.203125,0.9375
1630934693531,0.25,-0.203125,0.9375
1630934693562,0.265625,-0.203125,0.9375
1630934693593,0.25,-0.203125,0.921875
1630934693625,0.265625,-0.203125,0.921875
1630934693656,0.265625,-0.203125,0.9375
1630934693687,0.265625,-0.203125,0.9375
1630934693718,0.265625,-0.203125,0.921875
1630934693750,0.265625,-0.203125,0.921875
1630934693781,0.265625,-0.203125,0.921875
1630934693812,0.25,-0.203125,0.921875
1630934693843,0.25,-0.203125,0.9375
1630934693875,0.265625,-0.203125,0.9375
1630934693906,0.265625,-0.203125,0.9375
1630934693937,0.25,-0.203125,0.9375
1630934693968,0.25,-0.203125,0.9375
1630934694000,0.265625,-0.203125,0.921875
1630934694031,0.265625,-0.203125,0.9375
1630934694062,0.25,-0.203125,0.921875
1630934694093,0.25,-0.203125,0.9375
1630934694125,0.265625,-0.203125,0.9375
1630934694156,0.25,-0.203125,0.9375
1630934694187,0.265625,-0.203125,0.9375
1630934694218,0.25,-0.203125,0.921875
1630934694250,0.265625,-0.203125,0.921875
1630934694281,0.265625,-0.203125,0.9375
1630934694312,0.265625,-0.203125,0.9375
1630934694343,0.25,-0.203125,0.9375
1630934694375,0.25,-0.203125,0.921875
1630934694406,0.25,-0.203125,0.921875
1630934694437,0.25,-0.203125,0.9375
1630934694468,0.25,-0.203125,0.921875
1630934694500,0.25,-0.203125,0.9375
1630934694531,0.25,-0.203125,0.9375
1630934694562,0.25,-0.203125,0.921875
1630934694593,0.25,-0.203125,0.9375
1630934694625,0.25,-0.203125,0.9375
1630934694656,0.25,-0.203125,0.9375
1630934694687,0.25,-0.203125,0.9375
1630934694718,0.25,-0.203125,0.9375
1630934694750,0.25,-0.203125,0.9375
1630934694781,0.25,-0.203125,0.921875
1630934694812,0.25,-0.203125,0.921875
1630934694843,0.25,-0.203125,0.9375
1630934694875,0.25,-0.203125,0.9375
1630934694906,0.25,-0.203125,0.921875
1630934694937,0.25,-0.203125,0.921875
1630934694968,0.25,-0.203125,0.921875
1630934695000,0.25,-0.203125,0.9375
1630934695031,0.25,-0.203125,0.9375
1630934695062,0.25,-0.203125,0.9375
1630934695093,0.25,-0.203125,0.921875
1630934695125,0.25,-0.203125,0.9375
1630934695156,0.25,-0.203125,0.921875
1630934695187,0.25,-0.203125,0.921875
1630934695218,0.25,-0.203125,0.921875
1630934695250,0.265625,-0.203125,0.921875
1630934695281,0.25,-0.203125,0.9375
1630934695312,0.25,-0.203125,0.9375
1630934695343,0.25,-0.203125,0.921875
1630934695375,0.25,-0.203125,0.9375
1630934695406,0.25,-0.203125,0.9375
1630934695437,0.25,-0.203125,0.9375
1630934695468,0.25,-0.203125,0.9375
1630934695500,0.25,-0.203125,0.921875
1630934695531,0.25,-0.203125,0.9375
1630934695562,0.25,-0.203125,0.921875
1630934695593,0.265625,-0.203125,0.921875
1630934695625,0.265625,-0.203125,0.9375
1630934695656,0.265625,-0.203125,0.921875
1630934695687,0.25,-0.203125,0.921875
1630934695718,0.25,-0.203125,0.9375
1630934695750,0.265625,-0.203125,0.9375
1630934695781,0.25,-0.203125,0.9375
1630934695812,0.25,-0.203125,0.9375
1630934695843,0.25,-0.203125,0.921875
1630934695875,0.265625,-0.203125,0.9375
1630934695906,0.265625,-0.203125,0.921875
1630934695937,0.25,-0.203125,0.9375
1630934695968,0.25,-0.203125,0.9375
1630934696000,0.25,-0.203125,0.921875
1630934696031,0.265625,-0.203125,0.921875
1630934696062,0.265625,-0.203125,0.921875
1630934696093,0.25,-0.203125,0.921875
1630934696125,0.265625,-0.203125,0.9375
1630934696156,0.265625,-0.203125,0.9375
1630934696187,0.25,-0.203125,0.921875
1630934696218,0.25,-0.203125,0.921875
1630934696250,0.25,-0.203125,0.9375
1630934696281,0.265625,-0.203125,0.9375
1630934696312,0.265625,-0.203125,0.9375
1630934696343,0.25,-0.203125,0.9375
1630934696375,0.25,-0.203125,0.921875
1630934696406,0.25,-0.203125,0.9375
1630934696437,0.25,-0.203125,0.921875
1630934696468,0.25,-0.203125,0.921875
1630934696500,0.25,-0.203125,0.9375
1630934696531,0.25,-0.203125,0.9375
1630934696562,0.25,-0.203125,0.921875
1630934696593,0.25,-0.203125,0.921875
1630934696625,0.25,-0.203125,0.921875
1630934696656,0.25,-0.203125,0.921875
1630934696687,0.25,-0.203125,0.921875
1630934696718,0.25,-0.203125,0.9375
1630934696750,0.25,-0.203125,0.921875
1630934696781,0.25,-0.203125,0.9375
1630934696812,0.25,-0.203125,0.9375
1630934696843,0.25,-0.203125,0.9375
1630934696875,0.25,-0.203125,0.9375
1630934696906,0.25,-0.203125,0.921875
1630934696937,0.25,-0.203125,0.9375
1630934696968,0.25,-0.203125,0.9375
1630934697000,0.25,-0.203125,0.921875
1630934697031,0.25,-0.203125,0.921875
1630934697062,0.25,-0.203125,0.9375
1630934697093,0.25,-0.203125,0.9375
1630934697125,0.25,-0.203125,0.9375
1630934697156,0.25,-0.203125,0.9375
1630934697187,0.25,-0.203125,0.921875
1630934697218,0.25,-0.203125,0.921875
1630934697250,0.25,-0.203125,0.9375
1630934697281,0.25,-0.203125,0.9375
1630934697312,0.25,-0.203125,0.9375
1630934697343,0.25,-0.203125,0.9375
1630934697375,0.25,-0.203125,0.9375
1630934697406,0.25,-0.203125,0.9375
1630934697437,0.25,-0.203125,0.9375
1630934697468,0.25,-0.203125,0.9375
1630934697500,0.25,-0.203125,0.921875
1630934697531,0.25,-0.203125,0.921875
1630934697562,0.25,-0.203125,0.921875
1630934697593,0.25,-0.203125,0.9375
1630934697625,0.25,-0.203125,0.9375
1630934697656,0.25,-0.203125,0.9375
1630934697687,0.25,-0.203125,0.9375
1630934697718,0.25,-0.203125,0.9375
1630934697750,0.265625,-0.203125,0.921875
1630934697781,0.265625,-0.203125,0.921875
1630934697812,0.25,-0.203125,0.921875
1630934697843,0.25,-0.203125,0.9375
1630934697875,0.25,-0.203125,0.921875
1630934697906,0.25,-0.203125,0.9375
1630934697937,0.25,-0.203125,0.9375
1630934697968,0.25,-0.203125,0.9375
1630934698000,0.25,-0.203125,0.9375
1630934698031,0.25,-0.203125,0.921875
1630934698062,0.25,-0.203125,0.921875
1630934698093,0.25,-0.203125,0.921875
1630934698125,0.25,-0.203125,0.9375
1630934698156,0.265625,-0.203125,0.921875
1630934698187,0.265625,-0.203125,0.921875
1630934698218,0.265625,-0.203125,0.9375
1630934698250,0.25,-0.203125,0.9375
1630934698281,0.25,-0.203125,0.921875
1630934698312,0.25,-0.203125,0.921875
1630934698343,0.25,-0.203125,0.921875
1630934698375,0.25,-0.203125,0.9375
1630934698406,0.25,-0.203125,0.9375
1630934698437,0.25,-0.203125,0.9375
1630934698468,0.25,-0.203125,0.9375
1630934698500,0.25,-0.203125,0.921875
1630934698531,0.25,-0.203125,0.9375
1630934698562,0.25,-0.203125,0.9375
1630934698593,0.25,-0.203125,0.9375
1630934698625,0.25,-0.203125,0.921875
1630934698656,0.25,-0.203125,0.9375
1630934698687,0.25,-0.203125,0.9375
1630934698718,0.25,-0.203125,0.9375
1630934698750,0.25,-0.203125,0.9375
1630934698781,0.25,-0.203125,0.9375
1630934698812,0.25,-0.203125,0.9375
1630934698843,0.25,-0.203125,0.9375
1630934698875,0.25,-0.203125,0.921875
1630934698906,0.25,-0.203125,0.9375
1630934698937,0.25,-0.203125,0.9375
1630934698968,0.25,-0.203125,0.9375
1630934699000,0.25,-0.203125,0.9375
1630934699031,0.25,-0.203125,0.9375
1630934699062,0.25,-0.203125,0.9375
1630934699093,0.25,-0.203125,0.9375
1630934699125,0.25,-0.203125,0.921875
1630934699156,0.25,-0.203125,0.9375
1630934699187,0.25,-0.203125,0.9375
1630934699218,0.25,-0.203125,0.9375
1630934699250,0.25,-0.203125,0.9375
1630934699281,0.25,-0.203125,0.9375
1630934699312,0.25,-0.203125,0.921875
1630934699343,0.25,-0.203125,0.9375
1630934699375,0.25,-0.203125,0.9375
1630934699406,0.25,-0.203125,0.921875
1630934699437,0.265625,-0.203125,0.921875
1630934699468,0.25,-0.203125,0.921875
1630934699500,0.25,-0.203125,0.9375
1630934699531,0.25,-0.203125,0.921875
1630934699562,0.25,-0.203125,0.921875
1630934699593,0.265625,-0.203125,0.9375
1630934699625,0.25,-0.203125,0.9375
1630934699656,0.25,-0.203125,0.9375
1630934699687,0.25,-0.203125,0.9375
1630934699718,0.25,-0.203125,0.921875
1630934699750,0.265625,-0.203125,0.9375
1630934699781,0.25,-0.203125,0.921875
1630934699812,0.265625,-0.203125,0.9375
1630934699843,0.265625,-0.203125,0.921875
1630934699875,0.25,-0.203125,0.9375
1630934699906,0.25,-0.203125,0.921875
1630934699937,0.265625,-0.203125,0.9375
1630934699968,0.25,-0.203125,0.9375
1630934700000,0.25,-0.203125,0.9375
1630934700031,0.25,-0.203125,0.921875
1630934700062,0.25,-0.203125,0.9375
1630934700093,0.25,-0.203125,0.921875
1630934700125,0.265625,-0.203125,0.9375
1630934700156,0.265625,-0.203125,0.9375
1630934700187,0.25,-0.203125,0.921875
1630934700218,0.265625,-0.203125,0.9375
1630934700250,0.25,-0.203125,0.9375
1630934700281,0.25,-0.203125,0.921875
1630934700312,0.265625,-0.203125,0.921875
1630934700343,0.25,-0.203125,0.921875
1630934700375,0.25,-0.203125,0.9375
1630934700406,0.265625,-0.203125,0.9375
1630934700437,0.25,-0.203125,0.9375
1630934700468,0.265625,-0.203125,0.921875
1630934700500,0.25,-0.203125,0.921875
1630934700531,0.25,-0.203125,0.921875
1630934700562,0.25,-0.203125,0.9375
1630934700593,0.25,-0.203125,0.9375
1630934700625,0.25,-0.203125,0.9375
1630934700656,0.25,-0.203125,0.9375
1630934700687,0.25,-0.203125,0.9375
1630934700718,0.25,-0.203125,0.9375
1630934700750,0.25,-0.203125,0.921875
1630934700781,0.25,-0.203125,0.921875
1630934700812,0.25,-0.203125,0.9375
1630934700843,0.25,-0.203125,0.9375
1630934700875,0.25,-0.203125,0.9375
1630934700906,0.25,-0.203125,0.9375
1630934700937,0.25,-0.203125,0.921875
1630934700968,0.25,-0.203125,0.9375
1630934701000,0.25,-0.203125,0.9375
1630934701031,0.25,-0.203125,0.9375
1630934701062,0.25,-0.203125,0.921875
1630934701093,0.25,-0.203125,0.9375
1630934701125,0.25,-0.203125,0.9375
1630934701156,0.25,-0.203125,0.9375
1630934701187,0.25,-0.203125,0.9375
1630934701218,0.25,-0.203125,0.921875
1630934701250,0.25,-0.203125,0.921875
1630934701281,0.25,-0.203125,0.9375
1630934701312,0.25,-0.203125,0.9375
1630934701343,0.25,-0.203125,0.9375
1630934701375,0.25,-0.203125,0.9375
1630934701406,0.25,-0.203125,0.9375
1630934701437,0.25,-0.203125,0.9375
1630934701468,0.25,-0.203125,0.9375
1630934701500,0.25,-0.203125,0.921875
1630934701531,0.25,-0.203125,0.9375
1630934701562,0.25,-0.203125,0.9375
1630934701593,0.25,-0.203125,0.9375
1630934701625,0.265625,-0.203125,0.921875
1630934701656,0.265625,-0.203125,0.9375
1630934701687,0.25,-0.203125,0.9375
1630934701718,0.25,-0.203125,0.9375
1630934701750,0.25,-0.203125,0.921875
1630934701781,0.25,-0.203125,0.9375
1630934701812,0.25,-0.203125,0.9375
1630934701843,0.25,-0.203125,0.9375
1630934701875,0.25,-0.203125,0.9375
1630934701906,0.25,-0.203125,0.921875
1630934701937,0.25,-0.203125,0.9375
1630934701968,0.25,-0.203125,0.9375
1630934702000,0.25,-0.203125,0.9375
1630934702031,0.25,-0.203125,0.921875
1630934702062,0.265625,-0.203125,0.921875
1630934702093,0.25,-0.203125,0.9375
1630934702125,0.25,-0.203125,0.9375
1630934702156,0.25,-0.203125,0.921875
1630934702187,0.25,-0.203125,0.921875
1630934702218,0.25,-0.203125,0.921875
1630934702250,0.25,-0.203125,0.9375
1630934702281,0.25,-0.203125,0.921875
1630934702312,0.25,-0.203125,0.921875
1630934702343,0.25,-0.203125,0.9375
1630934702375,0.25,-0.203125,0.9375
1630934702406,0.25,-0.203125,0.9375
1630934702437,0.265625,-0.203125,0.921875
1630934702468,0.25,-0.203125,0.9375
1630934702500,0.25,-0.203125,0.9375
1630934702531,0.25,-0.203125,0.921875
1630934702562,0.25,-0.203125,0.9375
1630934702593,0.25,-0.203125,0.9375
1630934702625,0.25,-0.203125,0.921875
1630934702656,0.25,-0.203125,0.9375
1630934702687,0.25,-0.203125,0.9375
1630934702718,0.25,-0.203125,0.9375
1630934702750,0.25,-0.203125,0.921875
1630934702781,0.25,-0.203125,0.9375
1630934702812,0.25,-0.203125,0.9375
1630934702843,0.25,-0.203125,0.9375
1630934702875,0.25,-0.203125,0.9375
1630934702906,0.25,-0.203125,0.921875
1630934702937,0.25,-0.203125,0.9375
1630934702968,0.25,-0.203125,0.921875
1630934703000,0.25,-0.203125,0.921875
1630934703031,0.25,-0.203125,0.9375
1630934703062,0.25,-0.203125,0.9375
1630934703093,0.25,-0.203125,0.9375
1630934703125,0.25,-0.203125,0.9375
1630934703156,0.25,-0.203125,0.9375
1630934703187,0.25,-0.203125,0.9375
1630934703218,0.25,-0.203125,0.9375
1630934703250,0.25,-0.203125,0.921875
1630934703281,0.25,-0.203125,0.9375
1630934703312,0.25,-0.203125,0.921875
1630934703343,0.25,-0.203125,0.9375
1630934703375,0.25,-0.203125,0.921875
1630934703406,0.25,-0.203125,0.921875
1630934703437,0.25,-0.203125,0.9375
1630934703468,0.25,-0.203125,0.9375
1630934703500,0.25,-0.203125,0.921875
1630934703531,0.25,-0.203125,0.9375
1630934703562,0.25,-0.203125,0.921875
1630934703593,0.25,-0.203125,0.9375
1630934703625,0.25,-0.203125,0.921875
1630934703656,0.25,-0.203125,0.9375
1630934703687,0.25,-0.203125,0.9375
1630934703718,0.25,-0.203125,0.921875
1630934703750,0.265625,-0.203125,0.9375
1630934703781,0.25,-0.203125,0.9375
1630934703812,0.265625,-0.203125,0.921875
1630934703843,0.25,-0.203125,0.921875
1630934703875,0.265625,-0.203125,0.921875
1630934703906,0.25,-0.203125,0.9375
1630934703937,0.25,-0.203125,0.921875
1630934703968,0.25,-0.203125,0.9375
1630934704000,0.25,-0.203125,0.921875
1630934704031,0.25,-0.203125,0.9375
1630934704062,0.25,-0.203125,0.9375
1630934704093,0.25,-0.203125,0.9375
1630934704125,0.25,-0.203125,0.9375
1630934704156,0.265625,-0.203125,0.921875
1630934704187,0.265625,-0.203125,0.9375
1630934704218,0.265625,-0.203125,0.921875
1630934704250,0.265625,-0.203125,0.921875
1630934704281,0.265625,-0.203125,0.921875
1630934704312,0.25,-0.203125,0.921875
1630934704343,0.265625,-0.203125,0.921875
1630934704375,0.25,-0.203125,0.921875
1630934704406,0.25,-0.203125,0.9375
1630934704437,0.25,-0.203125,0.921875
1630934704468,0.25,-0.203125,0.9375
1630934704500,0.25,-0.203125,0.9375
1630934704531,0.25,-0.203125,0.9375
1630934704562,0.25,-0.203125,0.921875
1630934704593,0.25,-0.203125,0.9375
1630934704625,0.25,-0.203125,0.921875
1630934704656,0.265625,-0.203125,0.921875
1630934704687,0.25,-0.203125,0.9375
1630934704718,0.25,-0.203125,0.921875
1630934704750,0.25,-0.203125,0.9375
1630934704781,0.25,-0.203125,0.9375
1630934704812,0.25,-0.203125,0.9375
1630934704843,0.25,-0.203125,0.9375
1630934704875,0.25,-0.203125,0.9375
1630934704906,0.25,-0.203125,0.9375
1630934704937,0.25,-0.203125,0.9375
1630934704968,0.25,-0.203125,0.9375
1630934705000,0.265625,-0.203125,0.921875
1630934705031,0.25,-0.203125,0.921875
1630934705062,0.25,-0.203125,0.9375
1630934705093,0.25,-0.203125,0.9375
1630934705125,0.25,-0.203125,0.9375
1630934705156,0.25,-0.203125,0.921875
1630934705187,0.25,-0.203125,0.9375
1630934705218,0.25,-0.203125,0.9375
1630934705250,0.25,-0.203125,0.9375
1630934705281,0.25,-0.203125,0.9375
1630934705312,0.25,-0.203125,0.9375
1630934705343,0.25,-0.203125,0.9375
1630934705375,0.25,-0.203125,0.9375
1630934705406,0.25,-0.203125,0.9375
1630934705437,0.25,-0.203125,0.9375
1630934705468,0.25,-0.203125,0.921875
1630934705500,0.25,-0.203125,0.9375
1630934705531,0.25,-0.203125,0.921875
1630934705562,0.25,-0.203125,0.921875
1630934705593,0.25,-0.203125,0.921875
1630934705625,0.25,-0.203125,0.921875
1630934705656,0.25,-0.203125,0.921875
1630934705687,0.265625,-0.203125,0.9375
1630934705718,0.25,-0.203125,0.921875
1630934705750,0.25,-0.203125,0.9375
1630934705781,0.25,-0.203125,0.9375
1630934705812,0.265625,-0.203125,0.9375
1630934705843,0.265625,-0.203125,0.9375
1630934705875,0.25,-0.203125,0.921875
1630934705906,0.265625,-0.203125,0.921875
1630934705937,0.265625,-0.203125,0.921875
1630934705968,0.265625,-0.203125,0.921875
1630934706000,0.25,-0.203125,0.9375
1630934706031,0.25,-0.203125,0.921875
1630934706062,0.265625,-0.203125,0.921875
1630934706093,0.25,-0.203125,0.921875
1630934706125,0.25,-0.203125,0.921875
1630934706156,0.25,-0.203125,0.921875
1630934706187,0.25,-0.203125,0.921875
1630934706218,0.265625,-0.203125,0.921875
1630934706250,0.265625,-0.203125,0.9375
1630934706281,0.25,-0.203125,0.9375
1630934706312,0.25,-0.203125,0.921875
1630934706343,0.265625,-0.203125,0.921875
1630934706375,0.265625,-0.203125,0.921875
1630934706406,0.265625,-0.203125,0.921875
1630934706437,0.265625,-0.203125,0.921875
1630934706468,0.265625,-0.203125,0.921875
1630934706500,0.265625,-0.203125,0.9375
1630934706531,0.265625,-0.203125,0.9375
1630934706562,0.25,-0.203125,0.9375
1630934706593,0.265625,-0.203125,0.9375
1630934706625,0.265625,-0.203125,0.9375
1630934706656,0.25,-0.203125,0.921875
1630934706687,0.25,-0.203125,0.9375
1630934706718,0.25,-0.203125,0.9375
1630934706750,0.25,-0.203125,0.9375
1630934706781,0.25,-0.203125,0.9375
1630934706812,0.25,-0.203125,0.9375
1630934706843,0.25,-0.203125,0.921875
1630934706875,0.25,-0.203125,0.9375
1630934706906,0.25,-0.203125,0.921875
1630934706937,0.25,-0.203125,0.9375
1630934706968,0.25,-0.203125,0.921875
1630934707000,0.25,-0.203125,0.921875
1630934707031,0.25,-0.203125,0.9375
1630934707062,0.25,-0.203125,0.9375
1630934707093,0.25,-0.203125,0.9375
1630934707125,0.25,-0.203125,0.9375
1630934707156,0.25,-0.203125,0.921875
1630934707187,0.25,-0.203125,0.9375
1630934707218,0.25,-0.203125,0.9375
1630934707250,0.25,-0.203125,0.921875
1630934707281,0.25,-0.203125,0.921875
1630934707312,0.25,-0.203125,0.9375
1630934707343,0.25,-0.203125,0.9375
1630934707375,0.25,-0.203125,0.9375
1630934707406,0.25,-0.203125,0.9375
1630934707437,0.25,-0.203125,0.921875
1630934707468,0.25,-0.203125,0.9375
1630934707500,0.25,-0.203125,0.9375
1630934707531,0.25,-0.203125,0.9375
1630934707562,0.25,-0.203125,0.921875
1630934707593,0.25,-0.203125,0.9375
1630934707625,0.25,-0.203125,0.9375
1630934707656,0.25,-0.203125,0.921875
1630934707687,0.25,-0.203125,0.921875
1630934707718,0.25,-0.203125,0.921875
1630934707750,0.25,-0.203125,0.921875
1630934707781,0.25,-0.203125,0.921875
1630934707812,0.25,-0.203125,0.921875
1630934707843,0.25,-0.203125,0.9375
1630934707875,0.25,-0.203125,0.9375
1630934707906,0.25,-0.203125,0.9375
1630934707937,0.25,-0.203125,0.9375
1630934707968,0.25,-0.203125,0.9375
1630934708000,0.25,-0.203125,0.921875
1630934708031,0.25,-0.203125,0.9375
1630934708062,0.25,-0.203125,0.9375
1630934708093,0.25,-0.203125,0.9375
1630934708125,0.25,-0.203125,0.9375
1630934708156,0.25,-0.203125,0.9375
1630934708187,0.25,-0.203125,0.921875
1630934708218,0.25,-0.203125,0.921875
1630934708250,0.25,-0.203125,0.9375
1630934708281,0.25,-0.203125,0.9375
1630934708312,0.25,-0.203125,0.9375
1630934708343,0.25,-0.203125,0.9375
1630934708375,0.25,-0.203125,0.9375
1630934708406,0.25,-0.203125,0.9375
1630934708437,0.25,-0.203125,0.921875
1630934708468,0.25,-0.203125,0.921875
1630934708500,0.25,-0.203125,0.9375
1630934708531,0.25,-0.203125,0.9375
1630934708562,0.25,-0.203125,0.9375
1630934708593,0.25,-0.203125,0.921875
1630934708625,0.25,-0.203125,0.9375
1630934708656,0.25,-0.203125,0.921875
1630934708687,0.25,-0.203125,0.9375
1630934708718,0.25,-0.203125,0.9375
1630934708750,0.25,-0.203125,0.9375
1630934708781,0.25,-0.203125,0.9375
1630934708812,0.25,-0.203125,0.9375
1630934708843,0.25,-0.203125,0.921875
1630934708875,0.25,-0.203125,0.9375
1630934708906,0.25,-0.203125,0.9375
1630934708937,0.25,-0.203125,0.9375
1630934708968,0.25,-0.203125,0.921875
1630934709000,0.25,-0.203125,0.9375
1630934709031,0.25,-0.203125,0.9375
1630934709062,0.25,-0.203125,0.9375
1630934709093,0.25,-0.203125,0.9375
1630934709125,0.25,-0.203125,0.921875
1630934709156,0.25,-0.203125,0.921875
1630934709187,0.25,-0.203125,0.921875
1630934709218,0.25,-0.203125,0.9375
1630934709250,0.25,-0.203125,0.9375
1630934709281,0.25,-0.203125,0.9375
1630934709312,0.25,-0.203125,0.9375
1630934709343,0.25,-0.203125,0.9375
1630934709375,0.25,-0.203125,0.9375
1630934709406,0.25,-0.203125,0.9375
1630934709437,0.25,-0.203125,0.9375
1630934709468,0.25,-0.203125,0.921875
1630934709500,0.25,-0.203125,0.9375
1630934709531,0.25,-0.203125,0.9375
1630934709562,0.25,-0.203125,0.9375
1630934709593,0.25,-0.203125,0.9375
1630934709625,0.25,-0.203125,0.9375
1630934709656,0.25,-0.203125,0.9375
1630934709687,0.25,-0.203125,0.9375
1630934709718,0.25,-0.203125,0.9375
1630934709750,0.25,-0.203125,0.9375
1630934709781,0.25,-0.203125,0.9375
1630934709812,0.25,-0.203125,0.921875
1630934709843,0.25,-0.203125,0.921875
1630934709875,0.25,-0.203125,0.921875
1630934709906,0.25,-0.203125,0.9375
1630934709937,0.25,-0.203125,0.9375
1630934709968,0.25,-0.203125,0.9375
1630934710000,0.25,-0.203125,0.921875
1630934710031,0.25,-0.203125,0.921875
1630934710062,0.25,-0.203125,0.921875
1630934710093,0.25,-0.203125,0.9375
1630934710125,0.25,-0.203125,0.921875
1630934710156,0.25,-0.203125,0.921875
1630934710187,0.265625,-0.203125,0.9375
1630934710218,0.265625,-0.203125,0.921875
1630934710250,0.25,-0.203125,0.921875
1630934710281,0.265625,-0.203125,0.921875
1630934710312,0.25,-0.203125,0.921875
1630934710343,0.25,-0.203125,0.9375
1630934710375,0.25,-0.203125,0.9375
1630934710406,0.25,-0.203125,0.921875
1630934710437,0.265625,-0.203125,0.921875
1630934710468,0.265625,-0.203125,0.921875
1630934710500,0.265625,-0.203125,0.9375
1630934710531,0.25,-0.203125,0.921875
1630934710562,0.265625,-0.203125,0.921875
1630934710593,0.25,-0.203125,0.921875
1630934710625,0.25,-0.203125,0.921875
1630934710656,0.25,-0.203125,0.9375
1630934710687,0.25,-0.203125,0.9375
1630934710718,0.25,-0.203125,0.9375
1630934710750,0.25,-0.203125,0.9375
1630934710781,0.25,-0.203125,0.9375
1630934710812,0.25,-0.203125,0.9375
1630934710843,0.25,-0.203125,0.921875
1630934710875,0.25,-0.203125,0.921875
1630934710906,0.25,-0.203125,0.921875
1630934710937,0.265625,-0.203125,0.9375
1630934710968,0.265625,-0.203125,0.921875
1630934711000,0.25,-0.203125,0.921875
1630934711031,0.25,-0.203125,0.921875
1630934711062,0.25,-0.203125,0.9375
1630934711093,0.25,-0.203125,0.921875
1630934711125,0.25,-0.203125,0.9375
1630934711156,0.25,-0.203125,0.921875
1630934711187,0.25,-0.203125,0.9375
1630934711218,0.25,-0.203125,0.9375
1630934711250,0.25,-0.203125,0.9375
1630934711281,0.25,-0.203125,0.921875
1630934711312,0.25,-0.203125,0.921875
1630934711343,0.25,-0.203125,0.921875
1630934711375,0.25,-0.203125,0.921875
1630934711406,0.25,-0.203125,0.921875
1630934711437,0.25,-0.203125,0.9375
1630934711468,0.25,-0.203125,0.9375
1630934711500,0.25,-0.203125,0.9375
1630934711531,0.25,-0.203125,0.921875
1630934711562,0.25,-0.203125,0.921875
1630934711593,0.25,-0.203125,0.9375
1630934711625,0.25,-0.203125,0.9375
1630934711656,0.25,-0.203125,0.9375
1630934711687,0.234375,-0.203125,0.921875
1630934711718,0.25,-0.203125,0.9375
1630934711750,0.25,-0.203125,0.921875
1630934711781,0.234375,-0.203125,0.9375
1630934711812,0.25,-0.203125,0.9375
1630934711843,0.25,-0.203125,0.9375
1630934711875,0.25,-0.203125,0.9375
1630934711906,0.25,-0.203125,0.9375
1630934711937,0.25,-0.203125,0.9375
1630934711968,0.25,-0.203125,0.9375
1630934712000,0.25,-0.203125,0.9375
1630934712031,0.25,-0.203125,0.9375
1630934712062,0.25,-0.203125,0.921875
1630934712093,0.25,-0.203125,0.9375
1630934712125,0.25,-0.203125,0.9375
1630934712156,0.25,-0.203125,0.9375
1630934712187,0.25,-0.203125,0.9375
1630934712218,0.25,-0.203125,0.9375
1630934712250,0.25,-0.203125,0.9375
1630934712281,0.25,-0.203125,0.9375
1630934712312,0.234375,-0.203125,0.9375
1630934712343,0.234375,-0.203125,0.9375
1630934712375,0.234375,-0.203125,0.9375
1630934712406,0.234375,-0.203125,0.921875
1630934712437,0.234375,-0.203125,0.9375
1630934712468,0.234375,-0.203125,0.9375
1630934712500,0.25,-0.203125,0.9375
1630934712531,0.234375,-0.203125,0.9375
1630934712562,0.25,-0.203125,0.9375
1630934712593,0.25,-0.203125,0.9375
1630934712625,0.25,-0.203125,0.9375
1630934712656,0.25,-0.203125,0.9375
1630934712687,0.25,-0.203125,0.9375
1630934712718,0.25,-0.203125,0.9375
1630934712750,0.25,-0.203125,0.9375
1630934712781,0.25,-0.203125,0.9375
1630934712812,0.25,-0.203125,0.9375
1630934712843,0.234375,-0.203125,0.9375
1630934712875,0.25,-0.203125,0.9375
1630934712906,0.25,-0.203125,0.9375
1630934712937,0.25,-0.203125,0.9375
1630934712968,0.234375,-0.203125,0.921875
1630934713000,0.234375,-0.203125,0.9375
1630934713031,0.25,-0.203125,0.9375
1630934713062,0.25,-0.203125,0.9375
1630934713093,0.234375,-0.203125,0.9375
1630934713125,0.234375,-0.203125,0.921875
1630934713156,0.25,-0.203125,0.921875
1630934713187,0.25,-0.203125,0.9375
1630934713218,0.25,-0.203125,0.9375
1630934713250,0.234375,-0.203125,0.9375
1630934713281,0.25,-0.203125,0.9375
1630934713312,0.25,-0.203125,0.9375
1630934713343,0.25,-0.203125,0.921875
1630934713375,0.25,-0.203125,0.9375
1630934713406,0.234375,-0.203125,0.9375
1630934713437,0.234375,-0.203125,0.921875
1630934713468,0.234375,-0.203125,0.9375
1630934713500,0.234375,-0.203125,0.9375
1630934713531,0.234375,-0.203125,0.9375
1630934713562,0.234375,-0.203125,0.9375
1630934713593,0.25,-0.203125,0.9375
1630934713625,0.234375,-0.203125,0.9375
1630934713656,0.234375,-0.203125,0.9375
1630934713687,0.234375,-0.203125,0.9375
1630934713718,0.25,-0.203125,0.9375
1630934713750,0.25,-0.203125,0.9375
1630934713781,0.234375,-0.203125,0.9375
1630934713812,0.234375,-0.203125,0.9375
1630934713843,0.234375,-0.203125,0.921875
1630934713875,0.234375,-0.203125,0.9375
1630934713906,0.234375,-0.203125,0.9375
1630934713937,0.234375,-0.203125,0.921875
1630934713968,0.234375,-0.203125,0.9375
1630934714000,0.234375,-0.203125,0.9375
1630934714031,0.234375,-0.203125,0.9375
1630934714062,0.234375,-0.203125,0.9375
1630934714093,0.25,-0.203125,0.9375
1630934714125,0.234375,-0.203125,0.9375
1630934714156,0.234375,-0.203125,0.9375
1630934714187,0.234375,-0.203125,0.9375
1630934714218,0.234375,-0.203125,0.921875
1630934714250,0.25,-0.203125,0.9375
1630934714281,0.25,-0.203125,0.9375
1630934714312,0.25,-0.203125,0.9375
1630934714343,0.234375,-0.203125,0.9375
1630934714375,0.234375,-0.203125,0.921875
1630934714406,0.25,-0.203125,0.9375
1630934714437,0.234375,-0.203125,0.9375
1630934714468,0.234375,-0.203125,0.9375
1630934714500,0.25,-0.203125,0.9375
1630934714531,0.25,-0.203125,0.9375
1630934714562,0.25,-0.203125,0.921875
1630934714593,0.25,-0.203125,0.9375
1630934714625,0.234375,-0.203125,0.9375
1630934714656,0.25,-0.203125,0.9375
1630934714687,0.234375,-0.203125,0.9375
1630934714718,0.234375,-0.203125,0.9375
1630934714750,0.234375,-0.203125,0.9375
1630934714781,0.234375,-0.203125,0.9375
1630934714812,0.234375,-0.203125,0.9375
1630934714843,0.25,-0.203125,0.9375
1630934714875,0.25,-0.203125,0.9375
1630934714906,0.25,-0.203125,0.9375
1630934714937,0.25,-0.203125,0.9375
1630934714968,0.234375,-0.203125,0.9375
1630934715000,0.25,-0.203125,0.9375
1630934715031,0.25,-0.203125,0.9375
1630934715062,0.234375,-0.203125,0.921875
1630934715093,0.234375,-0.203125,0.9375
1630934715125,0.25,-0.203125,0.9375
1630934715156,0.234375,-0.203125,0.9375
1630934715187,0.25,-0.203125,0.9375
1630934715218,0.25,-0.203125,0.9375
1630934715250,0.234375,-0.203125,0.9375
1630934715281,0.25,-0.203125,0.9375
1630934715312,0.25,-0.203125,0.9375
1630934715343,0.234375,-0.203125,0.9375
1630934715375,0.234375,-0.203125,0.9375
1630934715406,0.234375,-0.203125,0.9375
1630934715437,0.25,-0.203125,0.9375
1630934715468,0.234375,-0.203125,0.9375
1630934715500,0.234375,-0.203125,0.9375
1630934715531,0.234375,-0.203125,0.9375
1630934715562,0.234375,-0.203125,0.9375
1630934715593,0.234375,-0.203125,0.9375
1630934715625,0.234375,-0.203125,0.9375
1630934715656,0.25,-0.203125,0.9375
1630934715687,0.234375,-0.203125,0.9375
1630934715718,0.234375,-0.203125,0.9375
1630934715750,0.234375,-0.203125,0.9375
1630934715781,0.234375,-0.203125,0.9375
1630934715812,0.234375,-0.203125,0.921875
1630934715843,0.234375,-0.203125,0.9375
1630934715875,0.234375,-0.203125,0.9375
1630934715906,0.234375,-0.203125,0.9375
1630934715937,0.234375,-0.203125,0.9375
1630934715968,0.234375,-0.203125,0.9375
1630934716000,0.234375,-0.203125,0.9375
1630934716031,0.234375,-0.203125,0.9375
1630934716062,0.234375,-0.203125,0.921875
1630934716093,0.234375,-0.203125,0.9375
1630934716125,0.234375,-0.203125,0.9375
1630934716156,0.234375,-0.203125,0.9375
1630934716187,0.234375,-0.203125,0.9375
1630934716218,0.234375,-0.203125,0.9375
1630934716250,0.234375,-0.203125,0.9375
1630934716281,0.234375,-0.203125,0.9375
1630934716312,0.234375,-0.203125,0.9375
1630934716343,0.234375,-0.203125,0.9375
1630934716375,0.234375,-0.203125,0.9375
1630934716406,0.234375,-0.203125,0.9375
1630934716437,0.234375,-0.203125,0.9375
1630934716468,0.234375,-0.203125,0.9375
1630934716500,0.25,-0.203125,0.9375
1630934716531,0.234375,-0.203125,0.921875
1630934716562,0.234375,-0.203125,0.9375
1630934716593,0.234375,-0.203125,0.9375
1630934716625,0.25,-0.203125,0.921875
1630934716656,0.25,-0.203125,0.9375
1630934716687,0.25,-0.203125,0.9375
1630934716718,0.25,-0.203125,0.9375
1630934716750,0.234375,-0.203125,0.9375
1630934716781,0.25,-0.203125,0.9375
1630934716812,0.25,-0.203125,0.921875
1630934716843,0.234375,-0.203125,0.9375
1630934716875,0.234375,-0.203125,0.9375
1630934716906,0.25,-0.203125,0.9375
1630934716937,0.25,-0.203125,0.9375
1630934716968,0.25,-0.203125,0.9375
1630934717000,0.234375,-0.203125,0.9375
1630934717031,0.25,-0.203125,0.9375
1630934717062,0.234375,-0.203125,0.9375
1630934717093,0.25,-0.203125,0.921875
1630934717125,0.25,-0.203125,0.9375
1630934717156,0.25,-0.203125,0.9375
1630934717187,0.25,-0.203125,0.9375
1630934717218,0.25,-0.203125,0.9375
1630934717250,0.25,-0.203125,0.921875
1630934717281,0.25,-0.203125,0.9375
1630934717312,0.25,-0.203125,0.9375
1630934717343,0.234375,-0.203125,0.9375
1630934717375,0.25,-0.203125,0.9375
1630934717406,0.234375,-0.203125,0.9375
1630934717437,0.234375,-0.203125,0.921875
1630934717468,0.234375,-0.203125,0.9375
1630934717500,0.234375,-0.203125,0.9375
1630934717531,0.234375,-0.203125,0.9375
1630934717562,0.234375,-0.203125,0.9375
1630934717593,0.234375,-0.203125,0.9375
1630934717625,0.234375,-0.203125,0.921875
1630934717656,0.234375,-0.203125,0.9375
1630934717687,0.234375,-0.203125,0.9375
1630934717718,0.234375,-0.203125,0.9375
1630934717750,0.234375,-0.203125,0.9375
1630934717781,0.234375,-0.203125,0.9375
1630934717812,0.234375,-0.203125,0.9375
1630934717843,0.234375,-0.203125,0.9375
1630934717875,0.234375,-0.203125,0.9375
1630934717906,0.234375,-0.203125,0.9375
1630934717937,0.234375,-0.203125,0.9375
1630934717968,0.234375,-0.203125,0.9375
1630934718000,0.234375,-0.203125,0.9375
1630934718031,0.234375,-0.203125,0.9375
1630934718062,0.234375,-0.203125,0.921875
1630934718093,0.25,-0.203125,0.9375
1630934718125,0.234375,-0.203125,0.9375
1630934718156,0.234375,-0.203125,0.9375
1630934718187,0.234375,-0.203125,0.9375
1630934718218,0.234375,-0.203125,0.9375
1630934718250,0.234375,-0.203125,0.9375
1630934718281,0.234375,-0.203125,0.9375
1630934718312,0.234375,-0.203125,0.9375
1630934718343,0.234375,-0.203125,0.9375
1630934718375,0.234375,-0.203125,0.9375
1630934718406,0.234375,-0.203125,0.9375
1630934718437,0.234375,-0.203125,0.921875
1630934718468,0.234375,-0.203125,0.9375
1630934718500,0.25,-0.203125,0.9375
1630934718531,0.25,-0.203125,0.9375
1630934718562,0.234375,-0.203125,0.9375
1630934718593,0.234375,-0.203125,0.9375
1630934718625,0.25,-0.203125,0.9375
1630934718656,0.25,-0.203125,0.9375
1630934718687,0.234375,-0.203125,0.9375
1630934718718,0.234375,-0.203125,0.9375
1630934718750,0.234375,-0.203125,0.921875
1630934718781,0.234375,-0.203125,0.921875
1630934718812,0.25,-0.203125,0.9375
1630934718843,0.234375,-0.203125,0.9375
1630934718875,0.234375,-0.203125,0.9375
1630934718906,0.25,-0.203125,0.9375
1630934718937,0.25,-0.203125,0.9375
1630934718968,0.234375,-0.203125,0.9375
1630934719000,0.234375,-0.203125,0.9375
1630934719031,0.25,-0.203125,0.9375
1630934719062,0.25,-0.203125,0.9375
1630934719093,0.234375,-0.203125,0.9375
1630934719125,0.234375,-0.203125,0.9375
1630934719156,0.25,-0.203125,0.9375
1630934719187,0.25,-0.203125,0.9375
1630934719218,0.234375,-0.203125,0.9375
1630934719250,0.234375,-0.203125,0.9375
1630934719281,0.25,-0.203125,0.9375
1630934719312,0.25,-0.203125,0.9375
1630934719343,0.234375,-0.203125,0.9375
1630934719375,0.234375,-0.203125,0.9375
1630934719406,0.25,-0.203125,0.9375
1630934719437,0.234375,-0.203125,0.9375
1630934719468,0.25,-0.203125,0.9375
1630934719500,0.234375,-0.203125,0.9375
1630934719531,0.234375,-0.203125,0.9375
1630934719562,0.25,-0.203125,0.9375
1630934719593,0.25,-0.203125,0.9375
1630934719625,0.234375,-0.203125,0.9375
1630934719656,0.234375,-0.203125,0.921875
1630934719687,0.234375,-0.203125,0.9375
1630934719718,0.25,-0.203125,0.9375
1630934719750,0.234375,-0.203125,0.921875
1630934719781,0.234375,-0.203125,0.9375
1630934719812,0.234375,-0.203125,0.9375
1630934719843,0.234375,-0.203125,0.9375
1630934719875,0.234375,-0.203125,0.9375
1630934719906,0.234375,-0.203125,0.9375
1630934719937,0.234375,-0.203125,0.9375
1630934719968,0.234375,-0.203125,0.9375
1630934720000,0.234375,-0.203125,0.9375
1630934720031,0.234375,-0.203125,0.9375
1630934720062,0.234375,-0.203125,0.9375
1630934720093,0.234375,-0.203125,0.9375
1630934720125,0.234375,-0.203125,0.9375
1630934720156,0.234375,-0.203125,0.9375
1630934720187,0.234375,-0.203125,0.9375
1630934720218,0.234375,-0.203125,0.9375
1630934720250,0.234375,-0.203125,0.9375
1630934720281,0.234375,-0.203125,0.9375
1630934720312,0.234375,-0.203125,0.9375
1630934720343,0.234375,-0.203125,0.9375
1630934720375,0.234375,-0.203125,0.9375
1630934720406,0.234375,-0.203125,0.9375
1630934720437,0.234375,-0.203125,0.9375
1630934720468,0.234375,-0.203125,0.9375
1630934720500,0.234375,-0.203125,0.9375
1630934720531,0.234375,-0.203125,0.9375
1630934720562,0.25,-0.203125,0.9375
1630934720593,0.25,-0.203125,0.9375
1630934720625,0.234375,-0.203125,0.9375
1630934720656,0.234375,-0.203125,0.9375
1630934720687,0.234375,-0.203125,0.9375
1630934720718,0.234375,-0.203125,0.9375
1630934720750,0.25,-0.203125,0.9375
1630934720781,0.234375,-0.203125,0.9375
1630934720812,0.234375,-0.203125,0.9375
1630934720843,0.25,-0.203125,0.9375
1630934720875,0.25,-0.203125,0.9375
1630934720906,0.25,-0.203125,0.9375
1630934720937,0.25,-0.203125,0.9375
1630934720968,0.25,-0.203125,0.921875
1630934721000,0.25,-0.203125,0.9375
1630934721031,0.234375,-0.203125,0.9375
1630934721062,0.234375,-0.203125,0.9375
1630934721093,0.234375,-0.203125,0.9375
1630934721125,0.234375,-0.203125,0.9375
1630934721156,0.234375,-0.203125,0.9375
1630934721187,0.25,-0.203125,0.9375
1630934721218,0.25,-0.203125,0.9375
1630934721250,0.25,-0.203125,0.9375
1630934721281,0.234375,-0.203125,0.9375
1630934721312,0.25,-0.203125,0.9375
1630934721343,0.25,-0.203125,0.9375
1630934721375,0.234375,-0.203125,0.9375
1630934721406,0.25,-0.203125,0.9375
1630934721437,0.25,-0.203125,0.9375
1630934721468,0.25,-0.203125,0.9375
1630934721500,0.25,-0.203125,0.9375
1630934721531,0.234375,-0.203125,0.9375
1630934721562,0.234375,-0.203125,0.9375
1630934721593,0.234375,-0.203125,0.9375
1630934721625,0.25,-0.203125,0.9375
1630934721656,0.234375,-0.203125,0.9375
1630934721687,0.234375,-0.203125,0.9375
1630934721718,0.234375,-0.203125,0.921875
1630934721750,0.25,-0.203125,0.9375
1630934721781,0.25,-0.203125,0.9375
1630934721812,0.234375,-0.203125,0.9375
1630934721843,0.25,-0.203125,0.9375
1630934721875,0.234375,-0.203125,0.9375
1630934721906,0.234375,-0.203125,0.9375
1630934721937,0.234375,-0.203125,0.9375
1630934721968,0.234375,-0.203125,0.9375
1630934722000,0.234375,-0.203125,0.9375
1630934722031,0.234375,-0.203125,0.9375
1630934722062,0.234375,-0.203125,0.921875
1630934722093,0.234375,-0.203125,0.9375
1630934722125,0.234375,-0.203125,0.9375
1630934722156,0.234375,-0.203125,0.9375
1630934722187,0.234375,-0.203125,0.9375
1630934722218,0.234375,-0.203125,0.9375
1630934722250,0.234375,-0.203125,0.9375
1630934722281,0.234375,-0.203125,0.9375
1630934722312,0.234375,-0.203125,0.9375
1630934722343,0.234375,-0.203125,0.9375
1630934722375,0.234375,-0.203125,0.9375
1630934722406,0.234375,-0.203125,0.9375
1630934722437,0.234375,-0.203125,0.9375
1630934722468,0.234375,-0.203125,0.9375
1630934722500,0.234375,-0.203125,0.9375
1630934722531,0.234375,-0.203125,0.9375
1630934722562,0.234375,-0.203125,0.9375
1630934722593,0.234375,-0.203125,0.9375
1630934722625,0.234375,-0.203125,0.9375
1630934722656,0.234375,-0.203125,0.9375
1630934722687,0.234375,-0.203125,0.9375
1630934722718,0.234375,-0.203125,0.9375
1630934722750,0.25,-0.203125,0.9375
1630934722781,0.234375,-0.203125,0.9375
1630934722812,0.234375,-0.203125,0.9375
1630934722843,0.25,-0.203125,0.9375
1630934722875,0.234375,-0.203125,0.9375
1630934722906,0.25,-0.203125,0.9375
1630934722937,0.234375,-0.203125,0.9375
1630934722968,0.234375,-0.203125,0.9375
1630934723000,0.25,-0.203125,0.9375
1630934723031,0.25,-0.203125,0.9375
1630934723062,0.234375,-0.203125,0.9375
1630934723093,0.234375,-0.203125,0.9375
1630934723125,0.234375,-0.203125,0.9375
1630934723156,0.25,-0.203125,0.9375
1630934723187,0.234375,-0.203125,0.9375
1630934723218,0.234375,-0.203125,0.9375
1630934723250,0.234375,-0.203125,0.9375
1630934723281,0.25,-0.203125,0.9375
1630934723312,0.234375,-0.203125,0.9375
1630934723343,0.234375,-0.203125,0.9375
1630934723375,0.234375,-0.203125,0.9375
1630934723406,0.25,-0.203125,0.9375
1630934723437,0.234375,-0.203125,0.9375
1630934723468,0.25,-0.203125,0.921875
1630934723500,0.25,-0.203125,0.9375
1630934723531,0.234375,-0.203125,0.9375
1630934723562,0.25,-0.203125,0.9375
1630934723593,0.234375,-0.203125,0.9375
1630934723625,0.234375,-0.203125,0.9375
1630934723656,0.234375,-0.203125,0.9375
1630934723687,0.25,-0.203125,0.9375
1630934723718,0.234375,-0.203125,0.9375
1630934723750,0.234375,-0.203125,0.9375
1630934723781,0.234375,-0.203125,0.9375
1630934723812,0.234375,-0.203125,0.9375
1630934723843,0.234375,-0.203125,0.9375
1630934723875,0.234375,-0.203125,0.9375
1630934723906,0.234375,-0.203125,0.9375
1630934723937,0.234375,-0.203125,0.9375
1630934723968,0.234375,-0.203125,0.9375
1630934724000,0.234375,-0.203125,0.9375
1630934724031,0.234375,-0.203125,0.9375
1630934724062,0.234375,-0.203125,0.9375
1630934724093,0.234375,-0.203125,0.9375
1630934724125,0.234375,-0.203125,0.9375
1630934724156,0.234375,-0.203125,0.9375
1630934724187,0.234375,-0.203125,0.9375
1630934724218,0.234375,-0.203125,0.9375
1630934724250,0.234375,-0.203125,0.9375
1630934724281,0.234375,-0.203125,0.9375
1630934724312,0.234375,-0.203125,0.9375
1630934724343,0.234375,-0.203125,0.9375
1630934724375,0.234375,-0.203125,0.9375
1630934724406,0.234375,-0.203125,0.9375
1630934724437,0.234375,-0.203125,0.9375
1630934724468,0.234375,-0.203125,0.9375
1630934724500,0.234375,-0.203125,0.9375
1630934724531,0.234375,-0.203125,0.9375
1630934724562,0.234375,-0.203125,0.9375
1630934724593,0.234375,-0.203125,0.9375
1630934724625,0.234375,-0.203125,0.9375
1630934724656,0.234375,-0.203125,0.9375
1630934724687,0.234375,-0.203125,0.9375
1630934724718,0.234375,-0.203125,0.9375
1630934724750,0.234375,-0.203125,0.9375
1630934724781,0.234375,-0.203125,0.9375
1630934724812,0.25,-0.203125,0.9375
1630934724843,0.234375,-0.203125,0.9375
1630934724875,0.234375,-0.203125,0.9375
1630934724906,0.234375,-0.203125,0.9375
1630934724937,0.25,-0.203125,0.9375
1630934724968,0.25,-0.203125,0.9375
1630934725000,0.234375,-0.203125,0.9375
1630934725031,0.234375,-0.203125,0.9375
1630934725062,0.234375,-0.203125,0.9375
1630934725093,0.234375,-0.203125,0.9375
1630934725125,0.234375,-0.203125,0.9375
1630934725156,0.25,-0.203125,0.9375
1630934725187,0.234375,-0.203125,0.9375
1630934725218,0.25,-0.203125,0.9375
1630934725250,0.234375,-0.203125,0.9375
1630934725281,0.234375,-0.203125,0.9375
1630934725312,0.25,-0.203125,0.9375
1630934725343,0.234375,-0.203125,0.9375
1630934725375,0.234375,-0.203125,0.9375
1630934725406,0.234375,-0.203125,0.921875
1630934725437,0.25,-0.203125,0.9375
1630934725468,0.25,-0.203125,0.9375
1630934725500,0.234375,-0.203125,0.9375
1630934725531,0.25,-0.203125,0.9375
1630934725562,0.25,-0.203125,0.9375
1630934725593,0.234375,-0.203125,0.921875
1630934725625,0.234375,-0.203125,0.9375
1630934725656,0.25,-0.203125,0.9375
1630934725687,0.25,-0.203125,0.9375
1630934725718,0.25,-0.203125,0.9375
1630934725750,0.234375,-0.203125,0.9375
1630934725781,0.234375,-0.203125,0.9375
1630934725812,0.25,-0.203125,0.9375
1630934725843,0.234375,-0.203125,0.9375
1630934725875,0.234375,-0.203125,0.9375
1630934725906,0.234375,-0.203125,0.9375
1630934725937,0.234375,-0.203125,0.9375
1630934725968,0.25,-0.203125,0.9375
1630934726000,0.234375,-0.203125,0.9375
1630934726031,0.25,-0.203125,0.9375
1630934726062,0.25,-0.203125,0.9375
1630934726093,0.234375,-0.203125,0.9375
1630934726125,0.234375,-0.203125,0.9375
1630934726156,0.234375,-0.203125,0.9375
1630934726187,0.234375,-0.203125,0.921875
1630934726218,0.234375,-0.203125,0.9375
1630934726250,0.234375,-0.203125,0.9375
1630934726281,0.234375,-0.203125,0.921875
1630934726312,0.234375,-0.203125,0.9375
1630934726343,0.234375,-0.203125,0.9375
1630934726375,0.234375,-0.203125,0.9375
1630934726406,0.234375,-0.203125,0.9375
1630934726437,0.234375,-0.203125,0.9375
1630934726468,0.234375,-0.203125,0.9375
1630934726500,0.234375,-0.203125,0.921875
1630934726531,0.234375,-0.203125,0.9375
1630934726562,0.234375,-0.203125,0.9375
1630934726593,0.234375,-0.203125,0.9375
1630934726625,0.234375,-0.203125,0.9375
1630934726656,0.234375,-0.203125,0.9375
1630934726687,0.25,-0.203125,0.9375
1630934726718,0.234375,-0.203125,0.9375
1630934726750,0.234375,-0.203125,0.9375
1630934726781,0.234375,-0.203125,0.9375
1630934726812,0.234375,-0.203125,0.921875
1630934726843,0.25,-0.203125,0.9375
1630934726875,0.234375,-0.203125,0.9375
1630934726906,0.25,-0.203125,0.9375
1630934726937,0.234375,-0.203125,0.9375
1630934726968,0.25,-0.203125,0.9375
1630934727000,0.234375,-0.203125,0.921875
1630934727031,0.234375,-0.203125,0.9375
1630934727062,0.25,-0.203125,0.9375
1630934727093,0.234375,-0.203125,0.9375
1630934727125,0.234375,-0.203125,0.9375
1630934727156,0.25,-0.203125,0.9375
1630934727187,0.25,-0.203125,0.921875
1630934727218,0.25,-0.203125,0.9375
1630934727250,0.234375,-0.203125,0.9375
1630934727281,0.25,-0.203125,0.9375
1630934727312,0.25,-0.203125,0.9375
1630934727343,0.25,-0.203125,0.9375
1630934727375,0.25,-0.203125,0.9375
1630934727406,0.25,-0.203125,0.9375
1630934727437,0.25,-0.203125,0.9375
1630934727468,0.234375,-0.203125,0.9375
1630934727500,0.234375,-0.203125,0.9375
1630934727531,0.234375,-0.203125,0.9375
1630934727562,0.25,-0.203125,0.9375
1630934727593,0.234375,-0.203125,0.9375
1630934727625,0.234375,-0.203125,0.9375
1630934727656,0.234375,-0.203125,0.9375
1630934727687,0.25,-0.203125,0.9375
1630934727718,0.25,-0.203125,0.9375
1630934727750,0.25,-0.203125,0.9375
1630934727781,0.25,-0.203125,0.9375
1630934727812,0.25,-0.203125,0.9375
1630934727843,0.25,-0.203125,0.9375
1630934727875,0.234375,-0.203125,0.9375
1630934727906,0.234375,-0.203125,0.9375
1630934727937,0.234375,-0.203125,0.9375
1630934727968,0.25,-0.203125,0.9375
1630934728000,0.25,-0.203125,0.9375
1630934728031,0.25,-0.203125,0.9375
1630934728062,0.25,-0.203125,0.9375
1630934728093,0.25,-0.203125,0.9375
1630934728125,0.25,-0.203125,0.9375
1630934728156,0.25,-0.203125,0.9375
1630934728187,0.234375,-0.203125,0.921875
1630934728218,0.234375,-0.203125,0.9375
1630934728250,0.25,-0.203125,0.9375
1630934728281,0.25,-0.203125,0.9375
1630934728312,0.234375,-0.203125,0.921875
1630934728343,0.234375,-0.203125,0.9375
1630934728375,0.234375,-0.203125,0.9375
1630934728406,0.234375,-0.203125,0.9375
1630934728437,0.234375,-0.203125,0.9375
1630934728468,0.234375,-0.203125,0.9375
1630934728500,0.234375,-0.203125,0.9375
1630934728531,0.234375,-0.203125,0.9375
1630934728562,0.234375,-0.203125,0.9375
1630934728593,0.234375,-0.203125,0.9375
1630934728625,0.25,-0.203125,0.9375
1630934728656,0.234375,-0.203125,0.9375
1630934728687,0.234375,-0.203125,0.9375
1630934728718,0.234375,-0.203125,0.9375
1630934728750,0.234375,-0.203125,0.9375
1630934728781,0.234375,-0.203125,0.9375
1630934728812,0.234375,-0.203125,0.9375
1630934728843,0.234375,-0.203125,0.9375
1630934728875,0.234375,-0.203125,0.9375
1630934728906,0.234375,-0.203125,0.9375
1630934728937,0.234375,-0.203125,0.9375
1630934728968,0.234375,-0.203125,0.9375
1630934729000,0.234375,-0.203125,0.921875
1630934729031,0.25,-0.203125,0.9375
1630934729062,0.234375,-0.203125,0.9375
1630934729093,0.234375,-0.203125,0.9375
1630934729125,0.25,-0.203125,0.9375
1630934729156,0.25,-0.203125,0.9375
1630934729187,0.25,-0.203125,0.9375
1630934729218,0.234375,-0.203125,0.9375
1630934729250,0.234375,-0.203125,0.9375
1630934729281,0.25,-0.203125,0.9375
1630934729312,0.25,-0.203125,0.9375
1630934729343,0.25,-0.203125,0.9375
1630934729375,0.234375,-0.203125,0.9375
1630934729406,0.234375,-0.203125,0.9375
1630934729437,0.25,-0.203125,0.9375
1630934729468,0.25,-0.203125,0.9375
1630934729500,0.25,-0.203125,0.9375
1630934729531,0.25,-0.203125,0.9375
1630934729562,0.25,-0.203125,0.921875
1630934729593,0.234375,-0.203125,0.9375
1630934729625,0.234375,-0.203125,0.9375
1630934729656,0.25,-0.203125,0.9375
1630934729687,0.234375,-0.203125,0.9375
1630934729718,0.234375,-0.203125,0.9375
1630934729750,0.25,-0.203125,0.9375
1630934729781,0.25,-0.203125,0.9375
1630934729812,0.234375,-0.203125,0.9375
1630934729843,0.25,-0.203125,0.921875
1630934729875,0.25,-0.203125,0.9375
1630934729906,0.25,-0.203125,0.9375
1630934729937,0.25,-0.203125,0.9375
1630934729968,0.25,-0.203125,0.921875
1630934730000,0.25,-0.203125,0.9375
1630934730031,0.25,-0.203125,0.9375
1630934730062,0.234375,-0.203125,0.9375
1630934730093,0.234375,-0.203125,0.9375
1630934730125,0.25,-0.203125,0.9375
1630934730156,0.25,-0.203125,0.9375
1630934730187,0.234375,-0.203125,0.9375
1630934730218,0.234375,-0.203125,0.9375
1630934730250,0.25,-0.203125,0.9375
1630934730281,0.25,-0.203125,0.9375
1630934730312,0.25,-0.203125,0.9375
1630934730343,0.25,-0.203125,0.9375
1630934730375,0.25,-0.203125,0.9375
1630934730406,0.25,-0.203125,0.9375
1630934730437,0.25,-0.203125,0.9375
1630934730468,0.25,-0.203125,0.9375
1630934730500,0.234375,-0.203125,0.9375
1630934730531,0.234375,-0.203125,0.9375
1630934730562,0.25,-0.203125,0.921875
1630934730593,0.234375,-0.203125,0.9375
1630934730625,0.25,-0.203125,0.9375
1630934730656,0.234375,-0.203125,0.9375
1630934730687,0.234375,-0.203125,0.921875
1630934730718,0.25,-0.203125,0.9375
1630934730750,0.234375,-0.203125,0.9375
1630934730781,0.234375,-0.203125,0.9375
1630934730812,0.25,-0.203125,0.9375
1630934730843,0.234375,-0.203125,0.9375
1630934730875,0.234375,-0.203125,0.9375
1630934730906,0.234375,-0.203125,0.9375
1630934730937,0.25,-0.203125,0.9375
1630934730968,0.25,-0.203125,0.9375
1630934731000,0.234375,-0.203125,0.9375
1630934731031,0.234375,-0.203125,0.9375
1630934731062,0.234375,-0.203125,0.921875
1630934731093,0.25,-0.203125,0.9375
1630934731125,0.25,-0.203125,0.9375
1630934731156,0.234375,-0.203125,0.9375
1630934731187,0.234375,-0.203125,0.9375
1630934731218,0.25,-0.203125,0.9375
1630934731250,0.25,-0.203125,0.9375
1630934731281,0.25,-0.203125,0.9375
1630934731312,0.234375,-0.203125,0.9375
1630934731343,0.25,-0.203125,0.9375
1630934731375,0.25,-0.203125,0.9375
1630934731406,0.25,-0.203125,0.9375
1630934731437,0.234375,-0.203125,0.9375
1630934731468,0.234375,-0.203125,0.9375
1630934731500,0.25,-0.203125,0.9375
1630934731531,0.25,-0.203125,0.9375
1630934731562,0.25,-0.203125,0.921875
1630934731593,0.25,-0.203125,0.9375
1630934731625,0.25,-0.203125,0.9375
1630934731656,0.25,-0.203125,0.9375
1630934731687,0.25,-0.203125,0.9375
1630934731718,0.25,-0.203125,0.9375
1630934731750,0.234375,-0.203125,0.9375
1630934731781,0.25,-0.203125,0.9375
1630934731812,0.25,-0.203125,0.9375
1630934731843,0.25,-0.203125,0.9375
1630934731875,0.25,-0.203125,0.921875
1630934731906,0.25,-0.203125,0.9375
1630934731937,0.25,-0.203125,0.921875
1630934731968,0.25,-0.203125,0.921875
1630934732000,0.25,-0.203125,0.921875
1630934732031,0.25,-0.203125,0.9375
1630934732062,0.25,-0.203125,0.9375
1630934732093,0.25,-0.203125,0.9375
1630934732125,0.25,-0.203125,0.9375
1630934732156,0.25,-0.203125,0.9375
1630934732187,0.25,-0.203125,0.921875
1630934732218,0.25,-0.203125,0.921875
1630934732250,0.25,-0.203125,0.9375
1630934732281,0.25,-0.203125,0.9375
1630934732312,0.234375,-0.203125,0.9375
1630934732343,0.25,-0.203125,0.9375
1630934732375,0.25,-0.203125,0.921875
1630934732406,0.25,-0.203125,0.9375
1630934732437,0.25,-0.203125,0.9375
1630934732468,0.25,-0.203125,0.9375
1630934732500,0.25,-0.203125,0.9375
1630934732531,0.25,-0.203125,0.9375
1630934732562,0.234375,-0.203125,0.9375
1630934732593,0.234375,-0.203125,0.9375
1630934732625,0.25,-0.203125,0.9375
1630934732656,0.25,-0.203125,0.9375
1630934732687,0.234375,-0.203125,0.9375
1630934732718,0.234375,-0.203125,0.9375
1630934732750,0.25,-0.203125,0.9375
1630934732781,0.25,-0.203125,0.9375
1630934732812,0.25,-0.203125,0.9375
1630934732843,0.234375,-0.203125,0.9375
1630934732875,0.234375,-0.203125,0.9375
1630934732906,0.234375,-0.203125,0.9375
1630934732937,0.234375,-0.203125,0.9375
1630934732968,0.234375,-0.203125,0.921875
1630934733000,0.234375,-0.203125,0.9375
1630934733031,0.234375,-0.203125,0.9375
1630934733062,0.234375,-0.203125,0.9375
1630934733093,0.234375,-0.203125,0.9375
1630934733125,0.234375,-0.203125,0.9375
1630934733156,0.234375,-0.203125,0.9375
1630934733187,0.25,-0.203125,0.9375
1630934733218,0.25,-0.203125,0.9375
1630934733250,0.234375,-0.203125,0.9375
1630934733281,0.25,-0.203125,0.9375
1630934733312,0.25,-0.203125,0.9375
1630934733343,0.25,-0.203125,0.9375
1630934733375,0.25,-0.203125,0.9375
1630934733406,0.25,-0.203125,0.9375
1630934733437,0.25,-0.203125,0.921875
1630934733468,0.25,-0.203125,0.9375
1630934733500,0.25,-0.203125,0.9375
1630934733531,0.25,-0.203125,0.9375
1630934733562,0.25,-0.203125,0.9375
1630934733593,0.25,-0.203125,0.9375
1630934733625,0.25,-0.203125,0.921875
1630934733656,0.25,-0.203125,0.921875
1630934733687,0.25,-0.203125,0.921875
1630934733718,0.25,-0.203125,0.921875
1630934733750,0.25,-0.203125,0.921875
1630934733781,0.25,-0.203125,0.921875
1630934733812,0.25,-0.203125,0.9375
1630934733843,0.25,-0.203125,0.9375
1630934733875,0.25,-0.203125,0.9375
1630934733906,0.25,-0.203125,0.9375
1630934733937,0.25,-0.203125,0.9375
1630934733968,0.25,-0.203125,0.9375
1630934734000,0.234375,-0.203125,0.9375
1630934734031,0.25,-0.203125,0.9375
1630934734062,0.25,-0.203125,0.9375
1630934734093,0.25,-0.203125,0.921875
1630934734125,0.25,-0.203125,0.921875
1630934734156,0.25,-0.203125,0.921875
1630934734187,0.25,-0.203125,0.9375
1630934734218,0.25,-0.203125,0.9375
1630934734250,0.25,-0.203125,0.9375
1630934734281,0.234375,-0.203125,0.9375
1630934734312,0.25,-0.203125,0.9375
1630934734343,0.25,-0.203125,0.9375
1630934734375,0.25,-0.203125,0.921875
1630934734406,0.25,-0.203125,0.9375
1630934734437,0.25,-0.203125,0.9375
1630934734468,0.25,-0.203125,0.9375
1630934734500,0.25,-0.203125,0.9375
1630934734531,0.25,-0.203125,0.921875
1630934734562,0.25,-0.203125,0.9375
1630934734593,0.25,-0.203125,0.921875
1630934734625,0.25,-0.203125,0.9375
1630934734656,0.25,-0.203125,0.9375
1630934734687,0.25,-0.203125,0.9375
1630934734718,0.234375,-0.203125,0.9375
1630934734750,0.25,-0.203125,0.9375
1630934734781,0.25,-0.203125,0.9375
1630934734812,0.25,-0.203125,0.921875
1630934734843,0.25,-0.203125,0.921875
1630934734875,0.25,-0.203125,0.9375
1630934734906,0.25,-0.203125,0.9375
1630934734937,0.25,-0.203125,0.921875
1630934734968,0.25,-0.203125,0.9375
1630934735000,0.234375,-0.203125,0.9375
1630934735031,0.234375,-0.203125,0.9375
1630934735062,0.25,-0.203125,0.9375
1630934735093,0.25,-0.203125,0.9375
1630934735125,0.234375,-0.203125,0.9375
1630934735156,0.234375,-0.203125,0.9375
1630934735187,0.234375,-0.203125,0.9375
1630934735218,0.25,-0.203125,0.9375
1630934735250,0.234375,-0.203125,0.9375
1630934735281,0.25,-0.203125,0.9375
1630934735312,0.234375,-0.203125,0.9375
1630934735343,0.25,-0.203125,0.9375
1630934735375,0.25,-0.203125,0.9375
1630934735406,0.25,-0.203125,0.9375
1630934735437,0.234375,-0.203125,0.921875
1630934735468,0.234375,-0.203125,0.9375
1630934735500,0.25,-0.203125,0.9375
1630934735531,0.234375,-0.203125,0.9375
1630934735562,0.234375,-0.203125,0.9375
1630934735593,0.234375,-0.203125,0.9375
1630934735625,0.25,-0.203125,0.9375
1630934735656,0.25,-0.203125,0.9375
1630934735687,0.25,-0.203125,0.9375
1630934735718,0.234375,-0.203125,0.9375
1630934735750,0.25,-0.203125,0.9375
1630934735781,0.25,-0.203125,0.9375
1630934735812,0.25,-0.203125,0.921875
1630934735843,0.25,-0.203125,0.9375
1630934735875,0.25,-0.203125,0.9375
1630934735906,0.25,-0.203125,0.9375
1630934735937,0.25,-0.203125,0.9375
1630934735968,0.25,-0.203125,0.9375
1630934736000,0.25,-0.203125,0.9375
1630934736031,0.25,-0.203125,0.9375
1630934736062,0.25,-0.203125,0.9375
1630934736093,0.234375,-0.203125,0.9375
1630934736125,0.234375,-0.203125,0.9375
1630934736156,0.25,-0.203125,0.9375
1630934736187,0.25,-0.203125,0.9375
1630934736218,0.25,-0.203125,0.9375
1630934736250,0.25,-0.203125,0.9375
1630934736281,0.25,-0.203125,0.9375
1630934736312,0.25,-0.203125,0.9375
1630934736343,0.25,-0.203125,0.9375
1630934736375,0.25,-0.203125,0.9375
1630934736406,0.25,-0.203125,0.9375
1630934736437,0.25,-0.203125,0.921875
1630934736468,0.25,-0.203125,0.921875
1630934736500,0.25,-0.203125,0.9375
1630934736531,0.234375,-0.203125,0.9375
1630934736562,0.25,-0.203125,0.921875
1630934736593,0.25,-0.203125,0.9375
1630934736625,0.25,-0.203125,0.9375
1630934736656,0.25,-0.203125,0.9375
1630934736687,0.25,-0.203125,0.9375
1630934736718,0.25,-0.203125,0.9375
1630934736750,0.234375,-0.203125,0.9375
1630934736781,0.25,-0.203125,0.9375
1630934736812,0.234375,-0.203125,0.9375
1630934736843,0.25,-0.203125,0.9375
1630934736875,0.25,-0.203125,0.9375
1630934736906,0.25,-0.203125,0.9375
1630934736937,0.25,-0.203125,0.9375
1630934736968,0.234375,-0.203125,0.921875
1630934737000,0.25,-0.203125,0.9375
1630934737031,0.25,-0.203125,0.9375
1630934737062,0.25,-0.203125,0.9375
1630934737093,0.25,-0.203125,0.9375
1630934737125,0.234375,-0.203125,0.9375
1630934737156,0.234375,-0.203125,0.9375
1630934737187,0.234375,-0.203125,0.9375
1630934737218,0.234375,-0.203125,0.9375
1630934737250,0.234375,-0.203125,0.9375
1630934737281,0.25,-0.203125,0.9375
1630934737312,0.234375,-0.203125,0.9375
1630934737343,0.234375,-0.203125,0.9375
1630934737375,0.25,-0.203125,0.9375
1630934737406,0.234375,-0.203125,0.9375
1630934737437,0.234375,-0.203125,0.9375
1630934737468,0.234375,-0.203125,0.9375
1630934737500,0.25,-0.203125,0.9375
1630934737531,0.25,-0.203125,0.9375
1630934737562,0.234375,-0.203125,0.9375
1630934737593,0.234375,-0.203125,0.921875
1630934737625,0.25,-0.203125,0.9375
1630934737656,0.25,-0.203125,0.9375
1630934737687,0.234375,-0.203125,0.9375
1630934737718,0.234375,-0.203125,0.9375
1630934737750,0.234375,-0.203125,0.9375
1630934737781,0.25,-0.203125,0.9375
1630934737812,0.25,-0.203125,0.9375
1630934737843,0.25,-0.203125,0.921875
1630934737875,0.25,-0.203125,0.9375
1630934737906,0.25,-0.203125,0.921875
1630934737937,0.25,-0.203125,0.9375
1630934737968,0.25,-0.203125,0.9375
1630934738000,0.25,-0.203125,0.921875
1630934738031,0.25,-0.203125,0.9375
1630934738062,0.25,-0.203125,0.9375
1630934738093,0.25,-0.203125,0.9375
1630934738125,0.25,-0.203125,0.921875
1630934738156,0.25,-0.203125,0.9375
1630934738187,0.25,-0.203125,0.9375
1630934738218,0.25,-0.203125,0.921875
1630934738250,0.25,-0.203125,0.9375
1630934738281,0.25,-0.203125,0.921875
1630934738312,0.25,-0.203125,0.921875
1630934738343,0.25,-0.203125,0.9375
1630934738375,0.25,-0.203125,0.9375
1630934738406,0.25,-0.203125,0.9375
1630934738437,0.234375,-0.203125,0.9375
1630934738468,0.25,-0.203125,0.9375
1630934738500,0.25,-0.203125,0.9375
1630934738531,0.25,-0.203125,0.9375
1630934738562,0.25,-0.203125,0.9375
1630934738593,0.234375,-0.203125,0.9375
1630934738625,0.25,-0.203125,0.9375
1630934738656,0.25,-0.203125,0.921875
1630934738687,0.25,-0.203125,0.9375
1630934738718,0.25,-0.203125,0.9375
1630934738750,0.25,-0.203125,0.921875
1630934738781,0.25,-0.203125,0.9375
1630934738812,0.25,-0.203125,0.921875
1630934738843,0.25,-0.203125,0.9375
1630934738875,0.25,-0.203125,0.9375
1630934738906,0.25,-0.203125,0.9375
1630934738937,0.25,-0.203125,0.9375
1630934738968,0.25,-0.203125,0.9375
1630934739000,0.25,-0.203125,0.921875
1630934739031,0.25,-0.203125,0.9375
1630934739062,0.25,-0.203125,0.9375
1630934739093,0.25,-0.203125,0.9375
1630934739125,0.25,-0.203125,0.9375
1630934739156,0.25,-0.203125,0.921875
1630934739187,0.25,-0.203125,0.9375
1630934739218,0.234375,-0.203125,0.9375
1630934739250,0.25,-0.203125,0.9375
1630934739281,0.25,-0.203125,0.921875
1630934739312,0.25,-0.203125,0.9375
1630934739343,0.25,-0.203125,0.9375
1630934739375,0.25,-0.203125,0.9375
1630934739406,0.25,-0.203125,0.9375
1630934739437,0.25,-0.203125,0.9375
1630934739468,0.25,-0.203125,0.9375
1630934739500,0.25,-0.203125,0.921875
1630934739531,0.25,-0.203125,0.9375
1630934739562,0.234375,-0.203125,0.9375
1630934739593,0.25,-0.203125,0.9375
1630934739625,0.25,-0.203125,0.9375
1630934739656,0.25,-0.203125,0.921875
1630934739687,0.25,-0.203125,0.9375
1630934739718,0.25,-0.203125,0.9375
1630934739750,0.25,-0.203125,0.9375
1630934739781,0.25,-0.203125,0.921875
1630934739812,0.25,-0.203125,0.921875
1630934739843,0.25,-0.203125,0.921875
1630934739875,0.25,-0.203125,0.921875
1630934739906,0.25,-0.203125,0.9375
1630934739937,0.25,-0.203125,0.9375
1630934739968,0.25,-0.203125,0.9375
1630934740000,0.234375,-0.203125,0.9375
1630934740031,0.25,-0.203125,0.9375
1630934740062,0.25,-0.203125,0.9375
1630934740093,0.25,-0.203125,0.9375
1630934740125,0.25,-0.203125,0.9375
1630934740156,0.25,-0.203125,0.921875
1630934740187,0.25,-0.203125,0.9375
1630934740218,0.25,-0.203125,0.9375
1630934740250,0.25,-0.203125,0.9375
1630934740281,0.25,-0.203125,0.921875
1630934740312,0.25,-0.203125,0.9375
1630934740343,0.25,-0.203125,0.921875
1630934740375,0.25,-0.203125,0.921875
1630934740406,0.25,-0.203125,0.921875
1630934740437,0.25,-0.203125,0.921875
1630934740468,0.25,-0.203125,0.9375
1630934740500,0.25,-0.203125,0.9375
1630934740531,0.25,-0.203125,0.9375
1630934740562,0.25,-0.203125,0.921875
1630934740593,0.25,-0.203125,0.9375
1630934740625,0.25,-0.203125,0.9375
1630934740656,0.25,-0.203125,0.9375
1630934740687,0.25,-0.203125,0.9375
1630934740718,0.25,-0.203125,0.9375
1630934740750,0.25,-0.203125,0.9375
1630934740781,0.25,-0.203125,0.9375
1630934740812,0.25,-0.203125,0.9375
1630934740843,0.25,-0.203125,0.9375
1630934740875,0.25,-0.203125,0.9375
1630934740906,0.25,-0.203125,0.9375
1630934740937,0.25,-0.203125,0.9375
1630934740968,0.25,-0.203125,0.921875
1630934741000,0.25,-0.203125,0.921875
1630934741031,0.25,-0.203125,0.921875
1630934741062,0.25,-0.203125,0.9375
1630934741093,0.25,-0.203125,0.9375
1630934741125,0.25,-0.203125,0.9375
1630934741156,0.25,-0.203125,0.9375
1630934741187,0.25,-0.203125,0.9375
1630934741218,0.25,-0.203125,0.921875
1630934741250,0.25,-0.203125,0.9375
1630934741281,0.25,-0.203125,0.9375
1630934741312,0.25,-0.203125,0.921875
1630934741343,0.25,-0.203125,0.9375
1630934741375,0.25,-0.203125,0.9375
1630934741406,0.25,-0.203125,0.921875
1630934741437,0.25,-0.203125,0.9375
1630934741468,0.25,-0.203125,0.9375
1630934741500,0.25,-0.203125,0.9375
1630934741531,0.25,-0.203125,0.921875
1630934741562,0.25,-0.203125,0.9375
1630934741593,0.25,-0.203125,0.9375
1630934741625,0.25,-0.203125,0.921875
1630934741656,0.25,-0.203125,0.9375
1630934741687,0.25,-0.203125,0.9375
1630934741718,0.25,-0.203125,0.921875
1630934741750,0.25,-0.203125,0.9375
1630934741781,0.25,-0.203125,0.921875
1630934741812,0.25,-0.203125,0.9375
1630934741843,0.25,-0.203125,0.9375
1630934741875,0.25,-0.203125,0.9375
1630934741906,0.25,-0.203125,0.9375
1630934741937,0.25,-0.203125,0.9375
1630934741968,0.25,-0.203125,0.9375
1630934742000,0.25,-0.203125,0.921875
1630934742031,0.25,-0.203125,0.921875
1630934742062,0.25,-0.203125,0.921875
1630934742093,0.25,-0.203125,0.921875
1630934742125,0.25,-0.203125,0.921875
1630934742156,0.25,-0.203125,0.921875
1630934742187,0.25,-0.203125,0.9375
1630934742218,0.25,-0.203125,0.9375
1630934742250,0.25,-0.203125,0.921875
1630934742281,0.25,-0.203125,0.921875
1630934742312,0.25,-0.203125,0.9375
1630934742343,0.25,-0.203125,0.9375
1630934742375,0.25,-0.203125,0.9375
1630934742406,0.25,-0.203125,0.9375
1630934742437,0.25,-0.203125,0.9375
1630934742468,0.25,-0.203125,0.921875
1630934742500,0.25,-0.203125,0.9375
1630934742531,0.25,-0.203125,0.9375
1630934742562,0.25,-0.203125,0.9375
1630934742593,0.25,-0.203125,0.921875
1630934742625,0.25,-0.203125,0.921875
1630934742656,0.25,-0.203125,0.9375
1630934742687,0.25,-0.203125,0.9375
1630934742718,0.25,-0.203125,0.921875
1630934742750,0.25,-0.203125,0.921875
1630934742781,0.25,-0.203125,0.9375
1630934742812,0.25,-0.203125,0.9375
1630934742843,0.25,-0.203125,0.9375
1630934742875,0.25,-0.203125,0.9375
1630934742906,0.25,-0.203125,0.9375
1630934742937,0.25,-0.203125,0.9375
1630934742968,0.25,-0.203125,0.9375
1630934743000,0.25,-0.203125,0.9375
1630934743031,0.25,-0.203125,0.9375
1630934743062,0.25,-0.203125,0.921875
1630934743093,0.25,-0.203125,0.921875
1630934743125,0.25,-0.203125,0.9375
1630934743156,0.25,-0.203125,0.9375
1630934743187,0.25,-0.203125,0.9375
1630934743218,0.25,-0.203125,0.9375
1630934743250,0.25,-0.203125,0.921875
1630934743281,0.25,-0.203125,0.921875
1630934743312,0.25,-0.203125,0.9375
1630934743343,0.25,-0.203125,0.921875
1630934743375,0.25,-0.203125,0.921875
1630934743406,0.25,-0.203125,0.921875
1630934743437,0.25,-0.203125,0.9375
1630934743468,0.25,-0.203125,0.9375
1630934743500,0.25,-0.203125,0.9375
1630934743531,0.25,-0.203125,0.9375
1630934743562,0.25,-0.203125,0.9375
1630934743593,0.25,-0.203125,0.921875
1630934743625,0.25,-0.203125,0.9375
1630934743656,0.25,-0.203125,0.9375
1630934743687,0.25,-0.203125,0.921875
1630934743718,0.25,-0.203125,0.9375
1630934743750,0.25,-0.203125,0.9375
1630934743781,0.25,-0.203125,0.921875
1630934743812,0.25,-0.203125,0.9375
1630934743843,0.25,-0.203125,0.9375
1630934743875,0.25,-0.203125,0.9375
1630934743906,0.25,-0.203125,0.9375
1630934743937,0.25,-0.203125,0.9375
1630934743968,0.25,-0.203125,0.9375
1630934744000,0.25,-0.203125,0.9375
1630934744031,0.25,-0.203125,0.9375
1630934744062,0.25,-0.203125,0.921875
1630934744093,0.25,-0.203125,0.921875
1630934744125,0.25,-0.203125,0.921875
1630934744156,0.25,-0.203125,0.9375
1630934744187,0.25,-0.203125,0.9375
1630934744218,0.25,-0.203125,0.9375
1630934744250,0.25,-0.203125,0.9375
1630934744281,0.25,-0.203125,0.9375
1630934744312,0.25,-0.203125,0.921875
1630934744343,0.25,-0.203125,0.9375
1630934744375,0.25,-0.203125,0.921875
1630934744406,0.25,-0.203125,0.9375
1630934744437,0.25,-0.203125,0.9375
1630934744468,0.25,-0.203125,0.921875
1630934744500,0.25,-0.203125,0.921875
1630934744531,0.25,-0.203125,0.9375
1630934744562,0.25,-0.203125,0.9375
1630934744593,0.25,-0.203125,0.921875
1630934744625,0.25,-0.203125,0.9375
1630934744656,0.25,-0.203125,0.9375
1630934744687,0.25,-0.203125,0.9375
1630934744718,0.25,-0.203125,0.9375
1630934744750,0.25,-0.203125,0.921875
1630934744781,0.25,-0.203125,0.921875
1630934744812,0.25,-0.203125,0.9375
1630934744843,0.25,-0.203125,0.9375
1630934744875,0.25,-0.203125,0.921875
1630934744906,0.25,-0.203125,0.921875
1630934744937,0.25,-0.203125,0.921875
1630934744968,0.25,-0.203125,0.9375
1630934745000,0.25,-0.203125,0.921875
1630934745031,0.25,-0.203125,0.9375
1630934745062,0.25,-0.203125,0.9375
1630934745093,0.25,-0.203125,0.921875
1630934745125,0.25,-0.203125,0.9375
1630934745156,0.25,-0.203125,0.921875
1630934745187,0.25,-0.203125,0.921875
1630934745218,0.25,-0.203125,0.9375
1630934745250,0.25,-0.203125,0.9375
1630934745281,0.25,-0.203125,0.921875
1630934745312,0.265625,-0.203125,0.921875
1630934745343,0.25,-0.203125,0.9375
1630934745375,0.25,-0.203125,0.921875
1630934745406,0.25,-0.203125,0.9375
1630934745437,0.25,-0.203125,0.921875
1630934745468,0.25,-0.203125,0.9375
1630934745500,0.25,-0.203125,0.9375
1630934745531,0.25,-0.203125,0.9375
1630934745562,0.25,-0.203125,0.921875
1630934745593,0.25,-0.203125,0.9375
1630934745625,0.25,-0.203125,0.9375
1630934745656,0.25,-0.203125,0.921875
1630934745687,0.25,-0.203125,0.9375
1630934745718,0.25,-0.203125,0.921875
1630934745750,0.25,-0.203125,0.921875
1630934745781,0.25,-0.203125,0.9375
1630934745812,0.25,-0.203125,0.9375
1630934745843,0.25,-0.203125,0.921875
1630934745875,0.25,-0.203125,0.921875
1630934745906,0.25,-0.203125,0.921875
1630934745937,0.25,-0.203125,0.9375
1630934745968,0.25,-0.203125,0.921875
1630934746000,0.25,-0.203125,0.921875
1630934746031,0.25,-0.203125,0.9375
1630934746062,0.25,-0.203125,0.921875
1630934746093,0.25,-0.203125,0.9375
1630934746125,0.25,-0.203125,0.9375
1630934746156,0.25,-0.203125,0.921875
1630934746187,0.25,-0.203125,0.9375
1630934746218,0.25,-0.203125,0.921875
1630934746250,0.25,-0.203125,0.921875
1630934746281,0.25,-0.203125,0.9375
1630934746312,0.265625,-0.203125,0.9375
1630934746343,0.25,-0.203125,0.921875
1630934746375,0.25,-0.203125,0.921875
1630934746406,0.25,-0.203125,0.921875
1630934746437,0.25,-0.203125,0.9375
1630934746468,0.25,-0.203125,0.9375
1630934746500,0.25,-0.203125,0.921875
1630934746531,0.25,-0.203125,0.921875
1630934746562,0.25,-0.203125,0.9375
1630934746593,0.25,-0.203125,0.921875
1630934746625,0.265625,-0.203125,0.921875
1630934746656,0.25,-0.203125,0.921875
1630934746687,0.265625,-0.203125,0.921875
1630934746718,0.25,-0.203125,0.921875
1630934746750,0.25,-0.203125,0.921875
1630934746781,0.25,-0.203125,0.9375
1630934746812,0.25,-0.203125,0.921875
1630934746843,0.25,-0.203125,0.921875
1630934746875,0.25,-0.203125,0.9375
1630934746906,0.25,-0.203125,0.921875
1630934746937,0.25,-0.203125,0.9375
1630934746968,0.25,-0.203125,0.921875
1630934747000,0.25,-0.203125,0.921875
1630934747031,0.25,-0.203125,0.921875
1630934747062,0.25,-0.203125,0.9375
1630934747093,0.25,-0.203125,0.921875
1630934747125,0.25,-0.203125,0.9375
1630934747156,0.265625,-0.203125,0.9375
1630934747187,0.25,-0.203125,0.921875
1630934747218,0.25,-0.203125,0.921875
1630934747250,0.25,-0.203125,0.9375
1630934747281,0.25,-0.203125,0.921875
1630934747312,0.25,-0.203125,0.921875
1630934747343,0.25,-0.203125,0.921875
1630934747375,0.25,-0.203125,0.9375
1630934747406,0.25,-0.203125,0.9375
1630934747437,0.25,-0.203125,0.921875
1630934747468,0.25,-0.203125,0.9375
1630934747500,0.25,-0.203125,0.921875
1630934747531,0.25,-0.203125,0.921875
1630934747562,0.25,-0.203125,0.921875
1630934747593,0.25,-0.203125,0.9375
1630934747625,0.25,-0.203125,0.9375
1630934747656,0.25,-0.203125,0.921875
1630934747687,0.25,-0.203125,0.921875
1630934747718,0.25,-0.203125,0.9375
1630934747750,0.25,-0.203125,0.9375
1630934747781,0.25,-0.203125,0.9375
1630934747812,0.25,-0.203125,0.9375
1630934747843,0.25,-0.203125,0.9375
1630934747875,0.25,-0.203125,0.9375
1630934747906,0.25,-0.203125,0.9375
1630934747937,0.25,-0.203125,0.9375
1630934747968,0.25,-0.203125,0.921875
1630934748000,0.25,-0.203125,0.9375
1630934748031,0.25,-0.203125,0.9375
1630934748062,0.25,-0.203125,0.9375
1630934748093,0.25,-0.203125,0.921875
1630934748125,0.25,-0.203125,0.9375
1630934748156,0.25,-0.203125,0.9375
1630934748187,0.25,-0.203125,0.921875
1630934748218,0.25,-0.203125,0.921875
1630934748250,0.25,-0.203125,0.921875
1630934748281,0.265625,-0.203125,0.921875
1630934748312,0.25,-0.203125,0.9375
1630934748343,0.265625,-0.203125,0.9375
1630934748375,0.265625,-0.203125,0.921875
1630934748406,0.265625,-0.203125,0.9375
1630934748437,0.25,-0.203125,0.921875
1630934748468,0.25,-0.203125,0.9375
1630934748500,0.25,-0.203125,0.9375
1630934748531,0.25,-0.203125,0.9375
1630934748562,0.25,-0.203125,0.921875
1630934748593,0.25,-0.203125,0.921875
1630934748625,0.25,-0.203125,0.921875
1630934748656,0.265625,-0.203125,0.921875
1630934748687,0.265625,-0.203125,0.921875
1630934748718,0.265625,-0.203125,0.9375
1630934748750,0.25,-0.203125,0.921875
1630934748781,0.25,-0.203125,0.921875
1630934748812,0.265625,-0.203125,0.921875
1630934748843,0.265625,-0.203125,0.921875
1630934748875,0.25,-0.203125,0.9375
1630934748906,0.25,-0.203125,0.921875
1630934748937,0.25,-0.203125,0.921875
1630934748968,0.265625,-0.203125,0.921875
1630934749000,0.265625,-0.203125,0.9375
1630934749031,0.265625,-0.203125,0.921875
1630934749062,0.25,-0.203125,0.921875
1630934749093,0.25,-0.203125,0.9375
1630934749125,0.25,-0.203125,0.921875
1630934749156,0.25,-0.203125,0.921875
1630934749187,0.25,-0.203125,0.9375
1630934749218,0.25,-0.203125,0.921875
1630934749250,0.25,-0.203125,0.921875
1630934749281,0.25,-0.203125,0.9375
1630934749312,0.25,-0.203125,0.9375
1630934749343,0.25,-0.203125,0.921875
1630934749375,0.265625,-0.203125,0.921875
1630934749406,0.25,-0.203125,0.921875
1630934749437,0.25,-0.203125,0.921875
1630934749468,0.265625,-0.203125,0.921875
1630934749500,0.265625,-0.203125,0.921875
1630934749531,0.25,-0.203125,0.9375
1630934749562,0.25,-0.203125,0.921875
1630934749593,0.25,-0.203125,0.9375
1630934749625,0.265625,-0.203125,0.9375
1630934749656,0.25,-0.203125,0.9375
1630934749687,0.25,-0.203125,0.9375
1630934749718,0.25,-0.203125,0.921875
1630934749750,0.25,-0.203125,0.921875
1630934749781,0.25,-0.203125,0.921875
1630934749812,0.265625,-0.203125,0.921875
1630934749843,0.265625,-0.203125,0.9375
1630934749875,0.25,-0.203125,0.9375
1630934749906,0.25,-0.203125,0.921875
1630934749937,0.25,-0.203125,0.921875
1630934749968,0.25,-0.203125,0.921875
1630934750000,0.265625,-0.203125,0.921875
1630934750031,0.265625,-0.203125,0.921875
1630934750062,0.265625,-0.203125,0.9375
1630934750093,0.265625,-0.203125,0.921875
1630934750125,0.265625,-0.203125,0.921875
1630934750156,0.265625,-0.203125,0.921875
1630934750187,0.265625,-0.203125,0.921875
1630934750218,0.265625,-0.203125,0.921875
1630934750250,0.265625,-0.203125,0.921875
1630934750281,0.265625,-0.203125,0.921875
1630934750312,0.265625,-0.203125,0.921875
1630934750343,0.265625,-0.203125,0.921875
1630934750375,0.265625,-0.203125,0.921875
1630934750406,0.265625,-0.203125,0.921875
1630934750437,0.265625,-0.203125,0.921875
1630934750468,0.265625,-0.203125,0.9375
1630934750500,0.265625,-0.203125,0.921875
1630934750531,0.265625,-0.203125,0.921875
1630934750562,0.265625,-0.203125,0.921875
1630934750593,0.265625,-0.203125,0.921875
1630934750625,0.265625,-0.203125,0.921875
1630934750656,0.265625,-0.203125,0.921875
1630934750687,0.265625,-0.203125,0.921875
1630934750718,0.265625,-0.203125,0.921875
1630934750750,0.265625,-0.203125,0.921875
1630934750781,0.265625,-0.203125,0.921875
1630934750812,0.265625,-0.203125,0.921875
1630934750843,0.265625,-0.203125,0.921875
1630934750875,0.265625,-0.203125,0.921875
1630934750906,0.265625,-0.203125,0.9375
1630934750937,0.265625,-0.203125,0.921875
1630934750968,0.25,-0.203125,0.921875
1630934751000,0.25,-0.203125,0.9375
1630934751031,0.265625,-0.203125,0.921875
1630934751062,0.265625,-0.203125,0.921875
1630934751093,0.265625,-0.203125,0.921875
1630934751125,0.265625,-0.203125,0.921875
1630934751156,0.265625,-0.203125,0.921875
1630934751187,0.265625,-0.203125,0.921875
1630934751218,0.265625,-0.203125,0.921875
1630934751250,0.25,-0.203125,0.921875
1630934751281,0.265625,-0.203125,0.921875
1630934751312,0.265625,-0.203125,0.921875
1630934751343,0.265625,-0.203125,0.921875
1630934751375,0.265625,-0.203125,0.921875
1630934751406,0.265625,-0.203125,0.921875
1630934751437,0.265625,-0.203125,0.921875
1630934751468,0.265625,-0.203125,0.921875
1630934751500,0.265625,-0.203125,0.921875
1630934751531,0.265625,-0.203125,0.921875
1630934751562,0.265625,-0.203125,0.921875
1630934751593,0.265625,-0.203125,0.921875
1630934751625,0.265625,-0.203125,0.9375
1630934751656,0.265625,-0.203125,0.921875
1630934751687,0.265625,-0.203125,0.921875
1630934751718,0.265625,-0.203125,0.921875
1630934751750,0.265625,-0.203125,0.921875
1630934751781,0.265625,-0.203125,0.921875
1630934751812,0.265625,-0.203125,0.921875
1630934751843,0.265625,-0.203125,0.9375
1630934751875,0.265625,-0.203125,0.921875
1630934751906,0.265625,-0.203125,0.921875
1630934751937,0.265625,-0.203125,0.921875
1630934751968,0.265625,-0.203125,0.921875
1630934752000,0.265625,-0.203125,0.921875
1630934752031,0.265625,-0.203125,0.921875
1630934752062,0.265625,-0.203125,0.921875
1630934752093,0.265625,-0.203125,0.921875
1630934752125,0.265625,-0.203125,0.921875
1630934752156,0.265625,-0.203125,0.921875
1630934752187,0.265625,-0.203125,0.921875
1630934752218,0.265625,-0.203125,0.921875
1630934752250,0.265625,-0.203125,0.921875
1630934752281,0.265625,-0.203125,0.921875
1630934752312,0.265625,-0.203125,0.921875
1630934752343,0.265625,-0.203125,0.921875
1630934752375,0.265625,-0.21875,0.921875
1630934752406,0.265625,-0.203125,0.921875
1630934752437,0.265625,-0.203125,0.9375
1630934752468,0.265625,-0.203125,0.921875
1630934752500,0.265625,-0.203125,0.921875
1630934752531,0.265625,-0.203125,0.921875
1630934752562,0.265625,-0.203125,0.921875
1630934752593,0.265625,-0.203125,0.9375
1630934752625,0.265625,-0.203125,0.9375
1630934752656,0.25,-0.203125,0.921875
1630934752687,0.265625,-0.203125,0.9375
1630934752718,0.265625,-0.203125,0.921875
1630934752750,0.265625,-0.203125,0.921875
1630934752781,0.265625,-0.203125,0.921875
1630934752812,0.265625,-0.203125,0.9375
1630934752843,0.265625,-0.203125,0.921875
1630934752875,0.265625,-0.203125,0.921875
1630934752906,0.265625,-0.203125,0.9375
1630934752937,0.265625,-0.203125,0.921875
1630934752968,0.265625,-0.203125,0.921875
1630934753000,0.265625,-0.203125,0.921875
1630934753031,0.265625,-0.203125,0.921875
1630934753062,0.265625,-0.203125,0.921875
1630934753093,0.265625,-0.203125,0.921875
1630934753125,0.265625,-0.203125,0.921875
1630934753156,0.265625,-0.203125,0.921875
1630934753187,0.265625,-0.203125,0.921875
1630934753218,0.265625,-0.203125,0.921875
1630934753250,0.265625,-0.203125,0.9375
1630934753281,0.265625,-0.203125,0.921875
1630934753312,0.265625,-0.203125,0.921875
1630934753343,0.265625,-0.203125,0.921875
1630934753375,0.265625,-0.203125,0.921875
1630934753406,0.265625,-0.203125,0.921875
1630934753437,0.265625,-0.203125,0.921875
1630934753468,0.25,-0.203125,0.9375
1630934753500,0.265625,-0.203125,0.9375
1630934753531,0.265625,-0.203125,0.921875
1630934753562,0.265625,-0.203125,0.921875
1630934753593,0.265625,-0.203125,0.921875
1630934753625,0.265625,-0.203125,0.921875
1630934753656,0.265625,-0.203125,0.921875
1630934753687,0.265625,-0.203125,0.921875
1630934753718,0.265625,-0.203125,0.921875
1630934753750,0.25,-0.203125,0.921875
1630934753781,0.265625,-0.203125,0.921875
1630934753812,0.265625,-0.203125,0.9375
1630934753843,0.265625,-0.203125,0.921875
1630934753875,0.265625,-0.203125,0.921875
1630934753906,0.265625,-0.203125,0.921875
1630934753937,0.265625,-0.203125,0.921875
1630934753968,0.265625,-0.203125,0.921875
1630934754000,0.265625,-0.203125,0.921875
1630934754031,0.265625,-0.203125,0.921875
1630934754062,0.265625,-0.203125,0.921875
1630934754093,0.265625,-0.203125,0.921875
1630934754125,0.265625,-0.203125,0.9375
1630934754156,0.265625,-0.203125,0.921875
1630934754187,0.265625,-0.203125,0.921875
1630934754218,0.265625,-0.203125,0.921875
1630934754250,0.265625,-0.203125,0.921875
1630934754281,0.265625,-0.203125,0.921875
1630934754312,0.265625,-0.203125,0.921875
1630934754343,0.265625,-0.203125,0.921875
1630934754375,0.265625,-0.203125,0.921875
1630934754406,0.265625,-0.203125,0.921875
1630934754437,0.25,-0.203125,0.921875
1630934754468,0.265625,-0.203125,0.921875
1630934754500,0.265625,-0.203125,0.9375
1630934754531,0.25,-0.203125,0.921875
1630934754562,0.25,-0.203125,0.921875
1630934754593,0.25,-0.203125,0.921875
1630934754625,0.265625,-0.203125,0.921875
1630934754656,0.265625,-0.203125,0.921875
1630934754687,0.25,-0.203125,0.921875
1630934754718,0.265625,-0.203125,0.9375
1630934754750,0.265625,-0.203125,0.921875
1630934754781,0.265625,-0.203125,0.921875
1630934754812,0.265625,-0.203125,0.9375
1630934754843,0.265625,-0.203125,0.921875
1630934754875,0.265625,-0.203125,0.921875
1630934754906,0.265625,-0.203125,0.921875
1630934754937,0.265625,-0.203125,0.921875
1630934754968,0.265625,-0.203125,0.921875
1630934755000,0.265625,-0.203125,0.921875
1630934755031,0.265625,-0.203125,0.921875
1630934755062,0.265625,-0.203125,0.921875
1630934755093,0.265625,-0.203125,0.921875
1630934755125,0.265625,-0.203125,0.9375
1630934755156,0.265625,-0.203125,0.921875
1630934755187,0.265625,-0.203125,0.921875
1630934755218,0.265625,-0.203125,0.921875
1630934755250,0.265625,-0.203125,0.921875
1630934755281,0.265625,-0.203125,0.921875
1630934755312,0.265625,-0.203125,0.9375
1630934755343,0.265625,-0.203125,0.921875
1630934755375,0.25,-0.203125,0.921875
1630934755406,0.265625,-0.203125,0.921875
1630934755437,0.265625,-0.203125,0.921875
1630934755468,0.265625,-0.203125,0.9375
1630934755500,0.265625,-0.203125,0.9375
1630934755531,0.265625,-0.203125,0.921875
1630934755562,0.265625,-0.203125,0.921875
1630934755593,0.265625,-0.203125,0.921875
1630934755625,0.265625,-0.203125,0.921875
1630934755656,0.265625,-0.203125,0.921875
1630934755687,0.265625,-0.203125,0.921875
1630934755718,0.265625,-0.203125,0.921875
1630934755750,0.265625,-0.203125,0.9375
1630934755781,0.265625,-0.203125,0.921875
1630934755812,0.265625,-0.203125,0.9375
1630934755843,0.265625,-0.203125,0.921875
1630934755875,0.265625,-0.203125,0.921875
1630934755906,0.265625,-0.203125,0.921875
1630934755937,0.25,-0.203125,0.921875
1630934755968,0.25,-0.203125,0.921875
1630934756000,0.265625,-0.203125,0.921875
1630934756031,0.265625,-0.203125,0.921875
1630934756062,0.265625,-0.203125,0.9375
1630934756093,0.265625,-0.203125,0.921875
1630934756125,0.265625,-0.203125,0.921875
1630934756156,0.265625,-0.203125,0.921875
1630934756187,0.265625,-0.203125,0.921875
1630934756218,0.25,-0.203125,0.921875
1630934756250,0.265625,-0.203125,0.921875
1630934756281,0.265625,-0.203125,0.921875
1630934756312,0.265625,-0.203125,0.9375
1630934756343,0.265625,-0.203125,0.921875
1630934756375,0.265625,-0.203125,0.921875
1630934756406,0.265625,-0.203125,0.921875
1630934756437,0.265625,-0.203125,0.9375
1630934756468,0.265625,-0.203125,0.921875
1630934756500,0.265625,-0.203125,0.9375
1630934756531,0.265625,-0.203125,0.921875
1630934756562,0.265625,-0.203125,0.921875
1630934756593,0.265625,-0.203125,0.9375
1630934756625,0.265625,-0.203125,0.921875
1630934756656,0.265625,-0.203125,0.9375
1630934756687,0.265625,-0.203125,0.921875
1630934756718,0.265625,-0.203125,0.921875
1630934756750,0.265625,-0.203125,0.921875
1630934756781,0.265625,-0.203125,0.9375
1630934756812,0.265625,-0.203125,0.921875
1630934756843,0.265625,-0.203125,0.921875
1630934756875,0.265625,-0.203125,0.9375
1630934756906,0.265625,-0.203125,0.921875
1630934756937,0.265625,-0.203125,0.921875
1630934756968,0.265625,-0.203125,0.921875
1630934757000,0.265625,-0.203125,0.921875
1630934757031,0.265625,-0.203125,0.9375
1630934757062,0.265625,-0.203125,0.921875
1630934757093,0.265625,-0.203125,0.9375
1630934757125,0.265625,-0.203125,0.921875
1630934757156,0.265625,-0.203125,0.921875
1630934757187,0.265625,-0.203125,0.9375
1630934757218,0.265625,-0.203125,0.9375
1630934757250,0.265625,-0.203125,0.921875
1630934757281,0.265625,-0.203125,0.921875
1630934757312,0.265625,-0.203125,0.921875
1630934757343,0.265625,-0.203125,0.9375
1630934757375,0.25,-0.203125,0.9375
1630934757406,0.25,-0.203125,0.9375
1630934757437,0.265625,-0.203125,0.921875
1630934757468,0.25,-0.203125,0.921875
1630934757500,0.265625,-0.203125,0.9375
1630934757531,0.265625,-0.203125,0.9375
1630934757562,0.265625,-0.203125,0.921875
1630934757593,0.265625,-0.203125,0.9375
1630934757625,0.25,-0.203125,0.921875
1630934757656,0.25,-0.203125,0.921875
1630934757687,0.265625,-0.203125,0.9375
1630934757718,0.265625,-0.203125,0.921875
1630934757750,0.265625,-0.203125,0.9375
1630934757781,0.25,-0.203125,0.921875
1630934757812,0.25,-0.203125,0.921875
1630934757843,0.265625,-0.203125,0.921875
1630934757875,0.265625,-0.203125,0.921875
1630934757906,0.265625,-0.203125,0.9375
1630934757937,0.265625,-0.203125,0.921875
1630934757968,0.25,-0.203125,0.921875
1630934758000,0.265625,-0.203125,0.9375
1630934758031,0.265625,-0.203125,0.921875
1630934758062,0.265625,-0.203125,0.921875
1630934758093,0.25,-0.203125,0.9375
1630934758125,0.265625,-0.203125,0.9375
1630934758156,0.265625,-0.203125,0.9375
1630934758187,0.265625,-0.203125,0.921875
1630934758218,0.265625,-0.203125,0.921875
1630934758250,0.265625,-0.203125,0.921875
1630934758281,0.265625,-0.203125,0.9375
1630934758312,0.265625,-0.203125,0.921875
1630934758343,0.265625,-0.203125,0.921875
1630934758375,0.25,-0.203125,0.921875
1630934758406,0.265625,-0.203125,0.921875
1630934758437,0.265625,-0.203125,0.921875
1630934758468,0.265625,-0.203125,0.921875
1630934758500,0.265625,-0.203125,0.921875
1630934758531,0.25,-0.203125,0.921875
1630934758562,0.265625,-0.203125,0.921875
1630934758593,0.265625,-0.203125,0.921875
1630934758625,0.265625,-0.203125,0.921875
1630934758656,0.265625,-0.203125,0.921875
1630934758687,0.265625,-0.203125,0.921875
1630934758718,0.265625,-0.203125,0.921875
1630934758750,0.265625,-0.203125,0.921875
1630934758781,0.265625,-0.203125,0.921875
1630934758812,0.265625,-0.203125,0.921875
1630934758843,0.265625,-0.203125,0.921875
1630934758875,0.265625,-0.203125,0.921875
1630934758906,0.265625,-0.203125,0.921875
1630934758937,0.265625,-0.203125,0.921875
1630934758968,0.265625,-0.203125,0.921875
1630934759000,0.265625,-0.203125,0.921875
1630934759031,0.265625,-0.203125,0.921875
1630934759062,0.265625,-0.203125,0.921875
1630934759093,0.265625,-0.203125,0.921875
1630934759125,0.265625,-0.203125,0.921875
1630934759156,0.265625,-0.203125,0.921875
1630934759187,0.25,-0.203125,0.9375
1630934759218,0.265625,-0.203125,0.921875
1630934759250,0.265625,-0.203125,0.921875
1630934759281,0.265625,-0.203125,0.921875
1630934759312,0.265625,-0.203125,0.921875
1630934759343,0.265625,-0.203125,0.921875
1630934759375,0.265625,-0.203125,0.921875
1630934759406,0.265625,-0.203125,0.921875
1630934759437,0.265625,-0.203125,0.921875
1630934759468,0.265625,-0.203125,0.921875
1630934759500,0.265625,-0.203125,0.921875
1630934759531,0.265625,-0.203125,0.921875
1630934759562,0.265625,-0.203125,0.921875
1630934759593,0.265625,-0.203125,0.921875
1630934759625,0.265625,-0.203125,0.921875
1630934759656,0.265625,-0.203125,0.921875
1630934759687,0.265625,-0.203125,0.921875
1630934759718,0.25,-0.203125,0.921875
1630934759750,0.265625,-0.203125,0.921875
1630934759781,0.265625,-0.203125,0.921875
1630934759812,0.265625,-0.203125,0.921875
1630934759843,0.265625,-0.203125,0.921875
1630934759875,0.265625,-0.203125,0.921875
1630934759906,0.265625,-0.203125,0.921875
1630934759937,0.265625,-0.203125,0.921875
1630934759968,0.265625,-0.203125,0.921875
1630934760000,0.265625,-0.203125,0.921875
1630934760031,0.265625,-0.203125,0.921875
1630934760062,0.265625,-0.203125,0.921875
1630934760093,0.265625,-0.203125,0.921875
1630934760125,0.265625,-0.203125,0.921875
1630934760156,0.265625,-0.203125,0.921875
1630934760187,0.265625,-0.203125,0.9375
1630934760218,0.265625,-0.203125,0.921875
1630934760250,0.265625,-0.203125,0.921875
1630934760281,0.265625,-0.203125,0.9375
1630934760312,0.265625,-0.203125,0.921875
1630934760343,0.265625,-0.203125,0.921875
1630934760375,0.265625,-0.203125,0.921875
1630934760406,0.265625,-0.203125,0.9375
1630934760437,0.265625,-0.203125,0.921875
1630934760468,0.265625,-0.203125,0.921875
1630934760500,0.265625,-0.203125,0.921875
1630934760531,0.25,-0.203125,0.9375
1630934760562,0.265625,-0.203125,0.921875
1630934760593,0.265625,-0.203125,0.9375
1630934760625,0.265625,-0.203125,0.921875
1630934760656,0.265625,-0.203125,0.921875
1630934760687,0.265625,-0.203125,0.9375
1630934760718,0.265625,-0.203125,0.921875
1630934760750,0.265625,-0.203125,0.9375
1630934760781,0.265625,-0.203125,0.921875
1630934760812,0.265625,-0.203125,0.921875
1630934760843,0.265625,-0.203125,0.921875
1630934760875,0.265625,-0.203125,0.921875
1630934760906,0.265625,-0.203125,0.921875
1630934760937,0.265625,-0.203125,0.921875
1630934760968,0.265625,-0.203125,0.921875
1630934761000,0.265625,-0.203125,0.9375
1630934761031,0.265625,-0.203125,0.921875
1630934761062,0.265625,-0.203125,0.921875
1630934761093,0.265625,-0.203125,0.921875
1630934761125,0.265625,-0.203125,0.921875
1630934761156,0.265625,-0.203125,0.921875
1630934761187,0.265625,-0.203125,0.921875
1630934761218,0.265625,-0.203125,0.9375
1630934761250,0.265625,-0.203125,0.921875
1630934761281,0.265625,-0.203125,0.921875
1630934761312,0.25,-0.203125,0.921875
1630934761343,0.265625,-0.203125,0.921875
1630934761375,0.265625,-0.203125,0.921875
1630934761406,0.265625,-0.203125,0.9375
1630934761437,0.265625,-0.203125,0.9375
1630934761468,0.265625,-0.203125,0.921875
1630934761500,0.265625,-0.203125,0.921875
1630934761531,0.265625,-0.203125,0.921875
1630934761562,0.265625,-0.203125,0.921875
1630934761593,0.265625,-0.203125,0.921875
1630934761625,0.265625,-0.203125,0.921875
1630934761656,0.265625,-0.203125,0.9375
1630934761687,0.265625,-0.203125,0.921875
1630934761718,0.265625,-0.203125,0.921875
1630934761750,0.265625,-0.203125,0.921875
1630934761781,0.265625,-0.203125,0.921875
1630934761812,0.265625,-0.203125,0.9375
1630934761843,0.265625,-0.203125,0.921875
1630934761875,0.265625,-0.203125,0.921875
1630934761906,0.265625,-0.203125,0.921875
1630934761937,0.265625,-0.203125,0.921875
1630934761968,0.265625,-0.203125,0.921875
1630934762000,0.265625,-0.203125,0.921875
1630934762031,0.265625,-0.203125,0.921875
1630934762062,0.265625,-0.203125,0.9375
1630934762093,0.265625,-0.203125,0.921875
1630934762125,0.265625,-0.203125,0.9375
1630934762156,0.265625,-0.203125,0.9375
1630934762187,0.265625,-0.203125,0.9375
1630934762218,0.265625,-0.203125,0.921875
1630934762250,0.265625,-0.203125,0.921875
1630934762281,0.265625,-0.203125,0.921875
1630934762312,0.265625,-0.203125,0.921875
1630934762343,0.265625,-0.203125,0.921875
1630934762375,0.265625,-0.203125,0.921875
1630934762406,0.265625,-0.203125,0.921875
1630934762437,0.265625,-0.203125,0.921875
1630934762468,0.265625,-0.203125,0.921875
1630934762500,0.265625,-0.203125,0.921875
1630934762531,0.265625,-0.203125,0.921875
1630934762562,0.265625,-0.203125,0.921875
1630934762593,0.265625,-0.203125,0.921875
1630934762625,0.265625,-0.203125,0.9375
1630934762656,0.265625,-0.203125,0.921875
1630934762687,0.265625,-0.203125,0.9375
1630934762718,0.265625,-0.203125,0.921875
1630934762750,0.265625,-0.203125,0.921875
1630934762781,0.25,-0.203125,0.921875
1630934762812,0.265625,-0.203125,0.921875
1630934762843,0.265625,-0.203125,0.921875
1630934762875,0.265625,-0.203125,0.921875
1630934762906,0.25,-0.203125,0.921875
1630934762937,0.25,-0.203125,0.921875
1630934762968,0.265625,-0.203125,0.921875
1630934763000,0.265625,-0.203125,0.921875
1630934763031,0.25,-0.203125,0.921875
1630934763062,0.265625,-0.203125,0.921875
1630934763093,0.265625,-0.203125,0.921875
1630934763125,0.265625,-0.203125,0.921875
1630934763156,0.265625,-0.203125,0.921875
1630934763187,0.265625,-0.203125,0.921875
1630934763218,0.265625,-0.203125,0.921875
1630934763250,0.265625,-0.203125,0.921875
1630934763281,0.265625,-0.203125,0.921875
1630934763312,0.25,-0.203125,0.921875
1630934763343,0.265625,-0.203125,0.921875
1630934763375,0.265625,-0.203125,0.921875
1630934763406,0.265625,-0.203125,0.921875
1630934763437,0.265625,-0.203125,0.921875
1630934763468,0.265625,-0.203125,0.921875
1630934763500,0.265625,-0.203125,0.921875
1630934763531,0.265625,-0.203125,0.921875
1630934763562,0.265625,-0.203125,0.9375
1630934763593,0.265625,-0.203125,0.921875
1630934763625,0.265625,-0.203125,0.921875
1630934763656,0.265625,-0.203125,0.921875
1630934763687,0.265625,-0.203125,0.921875
1630934763718,0.265625,-0.203125,0.921875
1630934763750,0.265625,-0.203125,0.921875
1630934763781,0.265625,-0.203125,0.921875
1630934763812,0.25,-0.203125,0.921875
1630934763843,0.265625,-0.203125,0.9375
1630934763875,0.265625,-0.203125,0.921875
1630934763906,0.265625,-0.203125,0.921875
1630934763937,0.265625,-0.203125,0.921875
1630934763968,0.265625,-0.203125,0.921875
1630934764000,0.265625,-0.203125,0.921875
1630934764031,0.265625,-0.203125,0.921875
1630934764062,0.265625,-0.203125,0.921875
1630934764093,0.265625,-0.203125,0.921875
1630934764125,0.265625,-0.203125,0.921875
1630934764156,0.265625,-0.203125,0.921875
1630934764187,0.265625,-0.203125,0.921875
1630934764218,0.265625,-0.203125,0.921875
1630934764250,0.265625,-0.203125,0.921875
1630934764281,0.265625,-0.203125,0.921875
1630934764312,0.265625,-0.203125,0.921875
1630934764343,0.265625,-0.203125,0.921875
1630934764375,0.265625,-0.203125,0.921875
1630934764406,0.265625,-0.203125,0.921875
1630934764437,0.265625,-0.203125,0.921875
1630934764468,0.265625,-0.203125,0.9375
1630934764500,0.265625,-0.203125,0.921875
1630934764531,0.265625,-0.203125,0.921875
1630934764562,0.265625,-0.203125,0.921875
1630934764593,0.265625,-0.203125,0.921875
1630934764625,0.265625,-0.203125,0.921875
1630934764656,0.265625,-0.203125,0.921875
1630934764687,0.265625,-0.203125,0.921875
1630934764718,0.265625,-0.203125,0.9375
