timestamp,ax,ay,az
1630678967000,-0.828125,0.296875,0.453125
1630678967031,-0.828125,0.296875,0.453125
1630678967062,-0.828125,0.296875,0.453125
1630678967093,-0.828125,0.3125,0.46875
1630678967125,-0.828125,0.296875,0.46875
1630678967156,-0.828125,0.3125,0.453125
1630678967187,-0.828125,0.3125,0.453125
1630678967218,-0.828125,0.3125,0.4375
1630678967250,-0.84375,0.328125,0.453125
1630678967281,-0.828125,0.328125,0.453125
1630678967312,-0.84375,0.328125,0.421875
1630678967343,-0.84375,0.328125,0.4375
1630678967375,-0.84375,0.328125,0.421875
1630678967406,-0.84375,0.328125,0.4375
1630678967437,-0.828125,0.328125,0.421875
1630678967468,-0.84375,0.3125,0.4375
1630678967500,-0.84375,0.3125,0.4375
1630678967531,-0.828125,0.3125,0.453125
1630678967562,-0.828125,0.3125,0.453125
1630678967593,-0.828125,0.3125,0.453125
1630678967625,-0.828125,0.296875,0.453125
1630678967656,-0.828125,0.296875,0.453125
1630678967687,-0.828125,0.296875,0.453125
1630678967718,-0.828125,0.3125,0.453125
1630678967750,-0.828125,0.3125,0.46875
1630678967781,-0.828125,0.3125,0.453125
1630678967812,-0.828125,0.3125,0.453125
1630678967843,-0.828125,0.328125,0.453125
1630678967875,-0.828125,0.328125,0.4375
1630678967906,-0.828125,0.328125,0.4375
1630678967937,-0.84375,0.328125,0.4375
1630678967968,-0.84375,0.328125,0.4375
1630678968000,-0.828125,0.3125,0.453125
1630678968031,-0.828125,0.3125,0.4375
1630678968062,-0.828125,0.3125,0.4375
1630678968093,-0.828125,0.3125,0.4375
1630678968125,-0.78125,0.328125,0.40625
1630678968156,-0.828125,0.296875,0.46875
1630678968187,-0.828125,0.296875,0.453125
1630678968218,-0.828125,0.296875,0.453125
1630678968250,-0.84375,0.3125,0.453125
1630678968281,-0.828125,0.3125,0.46875
1630678968312,-0.8125,0.3125,0.453125
1630678968343,-0.828125,0.328125,0.453125
1630678968375,-0.84375,0.3125,0.4375
1630678968406,-0.828125,0.3125,0.4375
1630678968437,-0.828125,0.3125,0.453125
1630678968468,-0.828125,0.3125,0.453125
1630678968500,-0.828125,0.328125,0.4375
1630678968531,-0.84375,0.328125,0.4375
1630678968562,-0.859375,0.328125,0.4375
1630678968593,-0.828125,0.328125,0.4375
1630678968625,-0.8125,0.328125,0.4375
1630678968656,-0.84375,0.34375,0.4375
1630678968687,-0.84375,0.328125,0.453125
1630678968718,-0.828125,0.3125,0.453125
1630678968750,-0.828125,0.3125,0.453125
1630678968781,-0.828125,0.3125,0.453125
1630678968812,-0.828125,0.296875,0.453125
1630678968843,-0.84375,0.296875,0.453125
1630678968875,-0.84375,0.296875,0.453125
1630678968906,-0.828125,0.3125,0.453125
1630678968937,-0.828125,0.3125,0.453125
1630678968968,-0.828125,0.3125,0.4375
1630678969000,-0.828125,0.328125,0.4375
1630678969031,-0.796875,0.34375,0.40625
1630678969062,-0.84375,0.328125,0.453125
1630678969093,-0.84375,0.3125,0.453125
1630678969125,-0.828125,0.3125,0.4375
1630678969156,-0.84375,0.296875,0.453125
1630678969187,-0.84375,0.296875,0.453125
1630678969218,-0.84375,0.28125,0.453125
1630678969250,-0.84375,0.28125,0.453125
1630678969281,-0.84375,0.296875,0.4375
1630678969312,-0.828125,0.296875,0.453125
1630678969343,-0.8125,0.3125,0.484375
1630678969375,-0.78125,0.328125,0.53125
1630678969406,-0.765625,0.3125,0.53125
1630678969437,-0.8125,0.328125,0.46875
1630678969468,-0.828125,0.328125,0.4375
1630678969500,-0.828125,0.328125,0.453125
1630678969531,-0.8125,0.328125,0.484375
1630678969562,-0.796875,0.3125,0.484375
1630678969593,-0.8125,0.328125,0.5
1630678969625,-0.828125,0.328125,0.46875
1630678969656,-0.828125,0.34375,0.46875
1630678969687,-0.796875,0.3125,0.46875
1630678969718,-0.8125,0.328125,0.46875
1630678969750,-0.828125,0.328125,0.46875
1630678969781,-0.828125,0.3125,0.453125
1630678969812,-0.8125,0.296875,0.453125
1630678969843,-0.796875,0.3125,0.5
1630678969875,-0.78125,0.328125,0.53125
1630678969906,-0.78125,0.328125,0.53125
1630678969937,-0.78125,0.328125,0.53125
1630678969968,-0.78125,0.328125,0.515625
1630678970000,-0.796875,0.328125,0.515625
1630678970031,-0.796875,0.328125,0.5
1630678970062,-0.78125,0.328125,0.515625
1630678970093,-0.78125,0.328125,0.515625
1630678970125,-0.78125,0.328125,0.5
1630678970156,-0.796875,0.328125,0.515625
1630678970187,-0.78125,0.328125,0.515625
1630678970218,-0.78125,0.328125,0.515625
1630678970250,-0.796875,0.328125,0.515625
1630678970281,-0.796875,0.328125,0.515625
1630678970312,-0.796875,0.328125,0.515625
1630678970343,-0.78125,0.3125,0.53125
1630678970375,-0.765625,0.3125,0.546875
1630678970406,-0.796875,0.296875,0.515625
1630678970437,-0.796875,0.296875,0.515625
1630678970468,-0.765625,0.3125,0.515625
1630678970500,-0.78125,0.328125,0.546875
1630678970531,-0.78125,0.3125,0.546875
1630678970562,-0.78125,0.3125,0.515625
1630678970593,-0.78125,0.3125,0.515625
1630678970625,-0.78125,0.328125,0.53125
1630678970656,-0.78125,0.328125,0.515625
1630678970687,-0.765625,0.3125,0.515625
1630678970718,-0.796875,0.328125,0.515625
1630678970750,-0.765625,0.328125,0.53125
1630678970781,-0.78125,0.328125,0.53125
1630678970812,-0.78125,0.328125,0.546875
1630678970843,-0.765625,0.328125,0.546875
1630678970875,-0.75,0.34375,0.546875
1630678970906,-0.75,0.34375,0.53125
1630678970937,-0.765625,0.34375,0.546875
1630678970968,-0.765625,0.359375,0.546875
1630678971000,-0.765625,0.34375,0.546875
1630678971031,-0.75,0.34375,0.53125
1630678971062,-0.765625,0.34375,0.53125
1630678971093,-0.75,0.34375,0.546875
1630678971125,-0.75,0.34375,0.53125
1630678971156,-0.75,0.34375,0.53125
1630678971187,-0.765625,0.359375,0.53125
1630678971218,-0.796875,0.359375,0.546875
1630678971250,-0.765625,0.359375,0.578125
1630678971281,-0.71875,0.3125,0.546875
1630678971312,-0.765625,0.328125,0.53125
1630678971343,-0.765625,0.34375,0.53125
1630678971375,-0.75,0.34375,0.546875
1630678971406,-0.765625,0.34375,0.546875
1630678971437,-0.765625,0.34375,0.546875
1630678971468,-0.765625,0.34375,0.546875
1630678971500,-0.765625,0.34375,0.546875
1630678971531,-0.75,0.328125,0.546875
1630678971562,-0.765625,0.34375,0.546875
1630678971593,-0.765625,0.34375,0.546875
1630678971625,-0.765625,0.34375,0.546875
1630678971656,-0.765625,0.34375,0.546875
1630678971687,-0.734375,0.34375,0.5625
1630678971718,-0.75,0.34375,0.5625
1630678971750,-0.75,0.34375,0.546875
1630678971781,-0.75,0.359375,0.546875
1630678971812,-0.75,0.359375,0.546875
1630678971843,-0.75,0.359375,0.53125
1630678971875,-0.734375,0.359375,0.546875
1630678971906,-0.75,0.359375,0.5625
1630678971937,-0.734375,0.359375,0.546875
1630678971968,-0.75,0.359375,0.546875
1630678972000,-0.765625,0.375,0.53125
1630678972031,-0.75,0.375,0.546875
1630678972062,-0.734375,0.359375,0.5625
1630678972093,-0.765625,0.34375,0.53125
1630678972125,-0.78125,0.34375,0.515625
1630678972156,-0.765625,0.34375,0.53125
1630678972187,-0.765625,0.34375,0.515625
1630678972218,-0.796875,0.359375,0.5
1630678972250,-0.765625,0.34375,0.53125
1630678972281,-0.75,0.34375,0.546875
1630678972312,-0.78125,0.3125,0.5
1630678972343,-0.796875,0.328125,0.5
1630678972375,-0.8125,0.328125,0.484375
1630678972406,-0.828125,0.34375,0.46875
1630678972437,-0.75,0.265625,0.46875
1630678972468,-0.8125,0.359375,0.5
1630678972500,-0.8125,0.34375,0.484375
1630678972531,-0.78125,0.328125,0.484375
1630678972562,-0.8125,0.34375,0.484375
1630678972593,-0.828125,0.359375,0.484375
1630678972625,-0.8125,0.34375,0.484375
1630678972656,-0.78125,0.328125,0.484375
1630678972687,-0.796875,0.34375,0.484375
1630678972718,-0.8125,0.34375,0.484375
1630678972750,-0.8125,0.34375,0.484375
1630678972781,-0.8125,0.34375,0.484375
1630678972812,-0.8125,0.328125,0.46875
1630678972843,-0.796875,0.328125,0.46875
1630678972875,-0.796875,0.328125,0.484375
1630678972906,-0.8125,0.328125,0.484375
1630678972937,-0.796875,0.34375,0.484375
1630678972968,-0.8125,0.328125,0.46875
1630678973000,-0.796875,0.328125,0.484375
1630678973031,-0.8125,0.328125,0.484375
1630678973062,-0.8125,0.328125,0.484375
1630678973093,-0.8125,0.328125,0.484375
1630678973125,-0.8125,0.328125,0.46875
1630678973156,-0.796875,0.328125,0.484375
1630678973187,-0.8125,0.328125,0.5
1630678973218,-0.796875,0.328125,0.484375
1630678973250,-0.8125,0.328125,0.484375
1630678973281,-0.796875,0.328125,0.5
1630678973312,-0.796875,0.328125,0.5
1630678973343,-0.796875,0.3125,0.5
1630678973375,-0.796875,0.3125,0.484375
1630678973406,-0.8125,0.328125,0.5
1630678973437,-0.796875,0.328125,0.5
1630678973468,-0.796875,0.3125,0.5
1630678973500,-0.796875,0.328125,0.5
1630678973531,-0.8125,0.328125,0.484375
1630678973562,-0.796875,0.328125,0.484375
1630678973593,-0.796875,0.328125,0.5
1630678973625,-0.796875,0.3125,0.5
1630678973656,-0.796875,0.296875,0.5
1630678973687,-0.78125,0.28125,0.46875
1630678973718,-0.828125,0.296875,0.515625
1630678973750,-0.8125,0.328125,0.53125
1630678973781,-0.765625,0.328125,0.484375
1630678973812,-0.796875,0.328125,0.484375
1630678973843,-0.828125,0.34375,0.5
1630678973875,-0.8125,0.34375,0.484375
1630678973906,-0.78125,0.328125,0.5
1630678973937,-0.796875,0.328125,0.5
1630678973968,-0.796875,0.328125,0.515625
1630678974000,-0.796875,0.3125,0.515625
1630678974031,-0.796875,0.296875,0.515625
1630678974062,-0.796875,0.296875,0.515625
1630678974093,-0.796875,0.296875,0.515625
1630678974125,-0.78125,0.3125,0.515625
1630678974156,-0.796875,0.328125,0.5
1630678974187,-0.796875,0.328125,0.5
1630678974218,-0.796875,0.328125,0.515625
1630678974250,-0.796875,0.328125,0.5
1630678974281,-0.796875,0.328125,0.5
1630678974312,-0.796875,0.328125,0.5
1630678974343,-0.796875,0.328125,0.5
1630678974375,-0.796875,0.3125,0.5
1630678974406,-0.796875,0.3125,0.5
1630678974437,-0.796875,0.3125,0.515625
1630678974468,-0.796875,0.3125,0.515625
1630678974500,-0.796875,0.3125,0.515625
1630678974531,-0.796875,0.3125,0.515625
1630678974562,-0.796875,0.3125,0.5
1630678974593,-0.796875,0.3125,0.5
1630678974625,-0.796875,0.328125,0.515625
1630678974656,-0.796875,0.328125,0.515625
1630678974687,-0.796875,0.328125,0.515625
1630678974718,-0.796875,0.3125,0.5
1630678974750,-0.796875,0.3125,0.5
1630678974781,-0.796875,0.3125,0.515625
1630678974812,-0.8125,0.3125,0.46875
1630678974843,-0.8125,0.3125,0.484375
1630678974875,-0.796875,0.3125,0.515625
1630678974906,-0.796875,0.3125,0.5
1630678974937,-0.796875,0.3125,0.5
1630678974968,-0.78125,0.3125,0.5
1630678975000,-0.78125,0.328125,0.515625
1630678975031,-0.8125,0.328125,0.515625
1630678975062,-0.8125,0.328125,0.5
1630678975093,-0.828125,0.3125,0.46875
1630678975125,-0.8125,0.296875,0.4375
1630678975156,-0.8125,0.3125,0.46875
1630678975187,-0.8125,0.3125,0.484375
1630678975218,-0.796875,0.28125,0.453125
1630678975250,-0.828125,0.296875,0.4375
1630678975281,-0.84375,0.3125,0.46875
1630678975312,-0.828125,0.328125,0.5
1630678975343,-0.78125,0.328125,0.515625
1630678975375,-0.78125,0.34375,0.5625
1630678975406,-0.78125,0.359375,0.5625
1630678975437,-0.78125,0.328125,0.484375
1630678975468,-0.765625,0.296875,0.484375
1630678975500,-0.796875,0.3125,0.515625
1630678975531,-0.796875,0.328125,0.515625
1630678975562,-0.8125,0.3125,0.5
1630678975593,-0.8125,0.3125,0.46875
1630678975625,-0.8125,0.3125,0.46875
1630678975656,-0.8125,0.328125,0.5
1630678975687,-0.78125,0.328125,0.5
1630678975718,-0.765625,0.328125,0.53125
1630678975750,-0.796875,0.34375,0.515625
1630678975781,-0.796875,0.328125,0.5
1630678975812,-0.78125,0.3125,0.484375
1630678975843,-0.796875,0.328125,0.5
1630678975875,-0.796875,0.328125,0.5
1630678975906,-0.796875,0.328125,0.5
1630678975937,-0.796875,0.328125,0.5
1630678975968,-0.796875,0.328125,0.5
1630678976000,-0.796875,0.328125,0.5
1630678976031,-0.796875,0.328125,0.484375
1630678976062,-0.796875,0.328125,0.5
1630678976093,-0.796875,0.328125,0.5
1630678976125,-0.796875,0.328125,0.5
1630678976156,-0.796875,0.3125,0.5
1630678976187,-0.796875,0.3125,0.5
1630678976218,-0.78125,0.296875,0.484375
1630678976250,-0.796875,0.296875,0.453125
1630678976281,-0.796875,0.328125,0.5
1630678976312,-0.828125,0.34375,0.5
1630678976343,-0.78125,0.328125,0.46875
1630678976375,-0.796875,0.328125,0.484375
1630678976406,-0.8125,0.34375,0.515625
1630678976437,-0.796875,0.328125,0.484375
1630678976468,-0.78125,0.328125,0.484375
1630678976500,-0.796875,0.328125,0.5
1630678976531,-0.796875,0.328125,0.515625
1630678976562,-0.796875,0.328125,0.515625
1630678976593,-0.796875,0.3125,0.515625
1630678976625,-0.78125,0.3125,0.53125
1630678976656,-0.78125,0.3125,0.515625
1630678976687,-0.796875,0.3125,0.515625
1630678976718,-0.796875,0.328125,0.5
1630678976750,-0.796875,0.328125,0.5
1630678976781,-0.796875,0.328125,0.5
1630678976812,-0.796875,0.328125,0.5
1630678976843,-0.796875,0.328125,0.484375
1630678976875,-0.796875,0.3125,0.5
1630678976906,-0.828125,0.3125,0.46875
1630678976937,-0.8125,0.328125,0.46875
1630678976968,-0.8125,0.328125,0.46875
1630678977000,-0.8125,0.328125,0.484375
1630678977031,-0.8125,0.328125,0.484375
1630678977062,-0.796875,0.328125,0.484375
1630678977093,-0.796875,0.3125,0.46875
1630678977125,-0.828125,0.3125,0.46875
1630678977156,-0.8125,0.3125,0.484375
1630678977187,-0.828125,0.3125,0.484375
1630678977218,-0.796875,0.3125,0.484375
1630678977250,-0.796875,0.3125,0.484375
1630678977281,-0.8125,0.3125,0.5
1630678977312,-0.796875,0.328125,0.515625
1630678977343,-0.78125,0.3125,0.484375
1630678977375,-0.8125,0.328125,0.484375
1630678977406,-0.8125,0.328125,0.484375
1630678977437,-0.796875,0.328125,0.484375
1630678977468,-0.8125,0.34375,0.484375
1630678977500,-0.78125,0.3125,0.46875
1630678977531,-0.796875,0.328125,0.515625
1630678977562,-0.796875,0.328125,0.515625
1630678977593,-0.796875,0.3125,0.5
1630678977625,-0.78125,0.3125,0.515625
1630678977656,-0.78125,0.3125,0.5
1630678977687,-0.796875,0.328125,0.5
1630678977718,-0.796875,0.328125,0.515625
1630678977750,-0.78125,0.328125,0.515625
1630678977781,-0.78125,0.328125,0.5
1630678977812,-0.78125,0.328125,0.5
1630678977843,-0.796875,0.328125,0.5
1630678977875,-0.796875,0.328125,0.515625
1630678977906,-0.78125,0.328125,0.5
1630678977937,-0.796875,0.328125,0.484375
1630678977968,-0.8125,0.3125,0.484375
1630678978000,-0.796875,0.328125,0.5
1630678978031,-0.78125,0.3125,0.515625
1630678978062,-0.78125,0.328125,0.53125
1630678978093,-0.78125,0.34375,0.53125
1630678978125,-0.78125,0.34375,0.515625
1630678978156,-0.78125,0.34375,0.515625
1630678978187,-0.796875,0.328125,0.515625
1630678978218,-0.796875,0.328125,0.484375
1630678978250,-0.8125,0.328125,0.484375
1630678978281,-0.8125,0.328125,0.484375
1630678978312,-0.8125,0.328125,0.484375
1630678978343,-0.8125,0.328125,0.5
1630678978375,-0.78125,0.328125,0.515625
1630678978406,-0.78125,0.328125,0.53125
1630678978437,-0.78125,0.328125,0.5
1630678978468,-0.796875,0.328125,0.5
1630678978500,-0.796875,0.328125,0.5
1630678978531,-0.796875,0.328125,0.515625
1630678978562,-0.796875,0.328125,0.5
1630678978593,-0.796875,0.328125,0.5
1630678978625,-0.8125,0.328125,0.515625
1630678978656,-0.8125,0.328125,0.484375
1630678978687,-0.796875,0.328125,0.484375
1630678978718,-0.78125,0.328125,0.515625
1630678978750,-0.78125,0.328125,0.515625
1630678978781,-0.78125,0.34375,0.515625
1630678978812,-0.78125,0.328125,0.5
1630678978843,-0.78125,0.328125,0.515625
1630678978875,-0.796875,0.34375,0.5
1630678978906,-0.78125,0.34375,0.5
1630678978937,-0.796875,0.328125,0.484375
1630678978968,-0.796875,0.328125,0.5
1630678979000,-0.796875,0.328125,0.484375
1630678979031,-0.796875,0.328125,0.484375
1630678979062,-0.8125,0.328125,0.484375
1630678979093,-0.796875,0.328125,0.5
1630678979125,-0.796875,0.328125,0.5
1630678979156,-0.8125,0.328125,0.5
1630678979187,-0.796875,0.328125,0.46875
1630678979218,-0.8125,0.328125,0.484375
1630678979250,-0.796875,0.328125,0.5
1630678979281,-0.796875,0.328125,0.5
1630678979312,-0.796875,0.328125,0.5
1630678979343,-0.796875,0.328125,0.5
1630678979375,-0.796875,0.328125,0.5
1630678979406,-0.796875,0.328125,0.484375
1630678979437,-0.796875,0.328125,0.5
1630678979468,-0.796875,0.328125,0.5
1630678979500,-0.796875,0.328125,0.5
1630678979531,-0.796875,0.328125,0.484375
1630678979562,-0.796875,0.328125,0.5625
1630678979593,-0.796875,0.328125,0.5
1630678979625,-0.8125,0.3125,0.484375
1630678979656,-0.8125,0.328125,0.46875
1630678979687,-0.796875,0.3125,0.5
1630678979718,-0.796875,0.328125,0.5
1630678979750,-0.796875,0.328125,0.5
1630678979781,-0.796875,0.328125,0.484375
1630678979812,-0.796875,0.328125,0.484375
1630678979843,-0.796875,0.328125,0.5
1630678979875,-0.796875,0.328125,0.515625
1630678979906,-0.796875,0.328125,0.5
1630678979937,-0.8125,0.328125,0.484375
1630678979968,-0.796875,0.328125,0.484375
1630678980000,-0.796875,0.328125,0.5
1630678980031,-0.796875,0.328125,0.5
1630678980062,-0.796875,0.328125,0.5
1630678980093,-0.796875,0.328125,0.5
1630678980125,-0.796875,0.328125,0.5
1630678980156,-0.796875,0.328125,0.5
1630678980187,-0.796875,0.3125,0.5
1630678980218,-0.796875,0.328125,0.5
1630678980250,-0.796875,0.328125,0.5
1630678980281,-0.796875,0.328125,0.5
1630678980312,-0.796875,0.328125,0.5
1630678980343,-0.796875,0.328125,0.5
1630678980375,-0.796875,0.328125,0.484375
1630678980406,-0.796875,0.328125,0.5
1630678980437,-0.796875,0.328125,0.5
1630678980468,-0.796875,0.328125,0.5
1630678980500,-0.796875,0.328125,0.5
1630678980531,-0.796875,0.328125,0.5
1630678980562,-0.796875,0.328125,0.515625
1630678980593,-0.796875,0.328125,0.5
1630678980625,-0.796875,0.328125,0.5
1630678980656,-0.78125,0.3125,0.5
1630678980687,-0.8125,0.328125,0.484375
1630678980718,-0.8125,0.328125,0.5
1630678980750,-0.796875,0.3125,0.5
1630678980781,-0.796875,0.3125,0.5
1630678980812,-0.796875,0.3125,0.5
1630678980843,-0.796875,0.28125,0.453125
1630678980875,-0.8125,0.328125,0.53125
1630678980906,-0.78125,0.328125,0.5
1630678980937,-0.765625,0.328125,0.5
1630678980968,-0.859375,0.34375,0.515625
1630678981000,-0.8125,0.328125,0.5
1630678981031,-0.765625,0.328125,0.484375
1630678981062,-0.796875,0.328125,0.484375
1630678981093,-0.8125,0.328125,0.53125
1630678981125,-0.828125,0.328125,0.5
1630678981156,-0.78125,0.296875,0.484375
1630678981187,-0.796875,0.296875,0.484375
1630678981218,-0.8125,0.3125,0.5
1630678981250,-0.796875,0.296875,0.5
1630678981281,-0.796875,0.3125,0.5
1630678981312,-0.796875,0.3125,0.5
1630678981343,-0.8125,0.328125,0.484375
1630678981375,-0.8125,0.34375,0.5
1630678981406,-0.78125,0.3125,0.46875
1630678981437,-0.828125,0.328125,0.453125
1630678981468,-0.828125,0.3125,0.46875
1630678981500,-0.8125,0.328125,0.484375
1630678981531,-0.796875,0.328125,0.5
1630678981562,-0.796875,0.3125,0.484375
1630678981593,-0.8125,0.3125,0.484375
1630678981625,-0.796875,0.3125,0.484375
1630678981656,-0.796875,0.3125,0.5
1630678981687,-0.796875,0.3125,0.5
1630678981718,-0.796875,0.3125,0.5
1630678981750,-0.796875,0.3125,0.5
1630678981781,-0.8125,0.3125,0.484375
1630678981812,-0.796875,0.3125,0.5
1630678981843,-0.796875,0.328125,0.5
1630678981875,-0.796875,0.328125,0.484375
1630678981906,-0.8125,0.328125,0.484375
1630678981937,-0.796875,0.3125,0.46875
1630678981968,-0.796875,0.328125,0.5
1630678982000,-0.796875,0.328125,0.5
1630678982031,-0.796875,0.328125,0.484375
1630678982062,-0.796875,0.328125,0.484375
1630678982093,-0.796875,0.328125,0.5
1630678982125,-0.796875,0.3125,0.5
1630678982156,-0.796875,0.3125,0.5
1630678982187,-0.796875,0.3125,0.5
1630678982218,-0.796875,0.3125,0.5
1630678982250,-0.796875,0.3125,0.5
1630678982281,-0.796875,0.3125,0.515625
1630678982312,-0.796875,0.3125,0.5
1630678982343,-0.796875,0.3125,0.484375
1630678982375,-0.8125,0.3125,0.484375
1630678982406,-0.78125,0.3125,0.5
1630678982437,-0.796875,0.3125,0.5
1630678982468,-0.796875,0.328125,0.515625
1630678982500,-0.796875,0.3125,0.5
1630678982531,-0.796875,0.3125,0.5
1630678982562,-0.8125,0.3125,0.5
1630678982593,-0.796875,0.3125,0.5
1630678982625,-0.796875,0.3125,0.5
1630678982656,-0.8125,0.3125,0.5
1630678982687,-0.796875,0.3125,0.484375
1630678982718,-0.796875,0.3125,0.5
1630678982750,-0.796875,0.3125,0.5
1630678982781,-0.8125,0.3125,0.5
1630678982812,-0.796875,0.3125,0.5
1630678982843,-0.8125,0.328125,0.546875
1630678982875,-0.78125,0.3125,0.5
1630678982906,-0.8125,0.3125,0.46875
1630678982937,-0.828125,0.3125,0.484375
1630678982968,-0.796875,0.3125,0.484375
1630678983000,-0.796875,0.3125,0.515625
1630678983031,-0.796875,0.3125,0.484375
1630678983062,-0.8125,0.3125,0.484375
1630678983093,-0.8125,0.3125,0.5
1630678983125,-0.8125,0.3125,0.484375
1630678983156,-0.8125,0.3125,0.484375
1630678983187,-0.796875,0.3125,0.484375
1630678983218,-0.8125,0.3125,0.5
1630678983250,-0.8125,0.328125,0.484375
1630678983281,-0.796875,0.328125,0.5
1630678983312,-0.8125,0.328125,0.5
1630678983343,-0.8125,0.3125,0.484375
1630678983375,-0.8125,0.3125,0.484375
1630678983406,-0.796875,0.3125,0.484375
1630678983437,-0.796875,0.3125,0.5
1630678983468,-0.796875,0.3125,0.484375
1630678983500,-0.796875,0.3125,0.484375
1630678983531,-0.8125,0.3125,0.5
1630678983562,-0.796875,0.3125,0.5
1630678983593,-0.796875,0.3125,0.5
1630678983625,-0.796875,0.3125,0.5
1630678983656,-0.796875,0.3125,0.5
1630678983687,-0.796875,0.3125,0.5
1630678983718,-0.796875,0.3125,0.515625
1630678983750,-0.796875,0.3125,0.515625
1630678983781,-0.796875,0.3125,0.5
1630678983812,-0.796875,0.328125,0.5
1630678983843,-0.796875,0.328125,0.515625
1630678983875,-0.78125,0.328125,0.484375
1630678983906,-0.796875,0.328125,0.484375
1630678983937,-0.796875,0.328125,0.5
1630678983968,-0.796875,0.3125,0.484375
1630678984000,-0.78125,0.328125,0.484375
1630678984031,-0.78125,0.3125,0.453125
1630678984062,-0.828125,0.34375,0.546875
1630678984093,-0.796875,0.3125,0.53125
1630678984125,-0.765625,0.328125,0.515625
1630678984156,-0.8125,0.328125,0.5
1630678984187,-0.796875,0.328125,0.515625
1630678984218,-0.796875,0.328125,0.5
1630678984250,-0.796875,0.3125,0.5
1630678984281,-0.796875,0.3125,0.5
1630678984312,-0.8125,0.3125,0.484375
1630678984343,-0.796875,0.328125,0.484375
1630678984375,-0.796875,0.3125,0.5
1630678984406,-0.796875,0.328125,0.53125
1630678984437,-0.78125,0.3125,0.5
1630678984468,-0.796875,0.3125,0.484375
1630678984500,-0.8125,0.3125,0.484375
1630678984531,-0.796875,0.328125,0.5
1630678984562,-0.796875,0.328125,0.5
1630678984593,-0.796875,0.3125,0.5
1630678984625,-0.796875,0.3125,0.5
1630678984656,-0.796875,0.3125,0.515625
1630678984687,-0.796875,0.3125,0.515625
1630678984718,-0.796875,0.3125,0.5
1630678984750,-0.8125,0.3125,0.5
1630678984781,-0.796875,0.328125,0.5
1630678984812,-0.796875,0.3125,0.484375
1630678984843,-0.796875,0.328125,0.5
1630678984875,-0.78125,0.328125,0.515625
1630678984906,-0.78125,0.328125,0.515625
1630678984937,-0.796875,0.328125,0.515625
1630678984968,-0.796875,0.328125,0.5
1630678985000,-0.8125,0.328125,0.5
1630678985031,-0.796875,0.328125,0.5
1630678985062,-0.78125,0.3125,0.515625
1630678985093,-0.796875,0.328125,0.515625
1630678985125,-0.796875,0.328125,0.515625
1630678985156,-0.8125,0.328125,0.5
1630678985187,-0.78125,0.3125,0.5
1630678985218,-0.78125,0.3125,0.515625
1630678985250,-0.78125,0.328125,0.515625
1630678985281,-0.78125,0.328125,0.515625
1630678985312,-0.78125,0.328125,0.515625
1630678985343,-0.78125,0.328125,0.515625
1630678985375,-0.78125,0.328125,0.515625
1630678985406,-0.796875,0.328125,0.515625
1630678985437,-0.796875,0.328125,0.515625
1630678985468,-0.78125,0.328125,0.5
1630678985500,-0.796875,0.3125,0.5
1630678985531,-0.796875,0.328125,0.515625
1630678985562,-0.796875,0.3125,0.5
1630678985593,-0.8125,0.296875,0.484375
1630678985625,-0.8125,0.3125,0.5
1630678985656,-0.796875,0.3125,0.5
1630678985687,-0.796875,0.3125,0.5
1630678985718,-0.796875,0.3125,0.484375
1630678985750,-0.8125,0.3125,0.453125
1630678985781,-0.796875,0.3125,0.5
1630678985812,-0.796875,0.3125,0.484375
1630678985843,-0.796875,0.296875,0.46875
1630678985875,-0.796875,0.3125,0.5
1630678985906,-0.8125,0.3125,0.484375
1630678985937,-0.796875,0.3125,0.484375
1630678985968,-0.796875,0.3125,0.515625
1630678986000,-0.796875,0.3125,0.515625
1630678986031,-0.796875,0.296875,0.5
1630678986062,-0.8125,0.328125,0.515625
1630678986093,-0.796875,0.296875,0.46875
1630678986125,-0.8125,0.3125,0.5
1630678986156,-0.796875,0.3125,0.5
1630678986187,-0.796875,0.3125,0.5
1630678986218,-0.796875,0.3125,0.484375
1630678986250,-0.796875,0.3125,0.5
1630678986281,-0.796875,0.3125,0.5
1630678986312,-0.8125,0.3125,0.484375
1630678986343,-0.8125,0.3125,0.484375
1630678986375,-0.796875,0.3125,0.484375
1630678986406,-0.8125,0.328125,0.578125
1630678986437,-0.796875,0.3125,0.484375
1630678986468,-0.828125,0.3125,0.46875
1630678986500,-0.8125,0.3125,0.484375
1630678986531,-0.796875,0.3125,0.515625
1630678986562,-0.8125,0.3125,0.5
1630678986593,-0.796875,0.3125,0.5
1630678986625,-0.796875,0.3125,0.5
1630678986656,-0.796875,0.3125,0.484375
1630678986687,-0.8125,0.3125,0.5
1630678986718,-0.8125,0.3125,0.484375
1630678986750,-0.8125,0.3125,0.484375
1630678986781,-0.796875,0.3125,0.484375
1630678986812,-0.796875,0.3125,0.5
1630678986843,-0.796875,0.3125,0.5
1630678986875,-0.796875,0.328125,0.5
1630678986906,-0.796875,0.328125,0.5
1630678986937,-0.796875,0.3125,0.5
1630678986968,-0.796875,0.3125,0.5
1630678987000,-0.796875,0.3125,0.515625
1630678987031,-0.796875,0.3125,0.484375
1630678987062,-0.8125,0.3125,0.484375
1630678987093,-0.8125,0.328125,0.5
1630678987125,-0.8125,0.328125,0.515625
1630678987156,-0.78125,0.3125,0.5
1630678987187,-0.8125,0.328125,0.5
1630678987218,-0.8125,0.328125,0.515625
1630678987250,-0.796875,0.3125,0.5
1630678987281,-0.796875,0.3125,0.5
1630678987312,-0.796875,0.3125,0.5
1630678987343,-0.796875,0.3125,0.5
1630678987375,-0.796875,0.3125,0.5
1630678987406,-0.796875,0.328125,0.515625
1630678987437,-0.796875,0.3125,0.5
1630678987468,-0.796875,0.328125,0.5
1630678987500,-0.796875,0.328125,0.5
1630678987531,-0.796875,0.3125,0.5
1630678987562,-0.796875,0.3125,0.5
1630678987593,-0.796875,0.328125,0.5
1630678987625,-0.796875,0.3125,0.5
1630678987656,-0.8125,0.3125,0.5
1630678987687,-0.796875,0.3125,0.5
1630678987718,-0.8125,0.328125,0.5
1630678987750,-0.796875,0.3125,0.484375
1630678987781,-0.796875,0.3125,0.484375
1630678987812,-0.796875,0.3125,0.5
1630678987843,-0.796875,0.3125,0.5
1630678987875,-0.78125,0.3125,0.484375
1630678987906,-0.8125,0.328125,0.5
1630678987937,-0.8125,0.3125,0.5
1630678987968,-0.78125,0.3125,0.5
1630678988000,-0.8125,0.3125,0.5
1630678988031,-0.8125,0.328125,0.515625
1630678988062,-0.796875,0.296875,0.484375
1630678988093,-0.796875,0.3125,0.46875
1630678988125,-0.828125,0.296875,0.5
1630678988156,-0.796875,0.296875,0.5
1630678988187,-0.796875,0.3125,0.5
1630678988218,-0.796875,0.296875,0.484375
1630678988250,-0.828125,0.328125,0.546875
1630678988281,-0.796875,0.3125,0.484375
1630678988312,-0.8125,0.3125,0.484375
1630678988343,-0.828125,0.328125,0.5
1630678988375,-0.78125,0.3125,0.46875
1630678988406,-0.796875,0.3125,0.484375
1630678988437,-0.828125,0.3125,0.46875
1630678988468,-0.8125,0.3125,0.484375
1630678988500,-0.796875,0.3125,0.5
1630678988531,-0.8125,0.3125,0.484375
1630678988562,-0.8125,0.296875,0.484375
1630678988593,-0.8125,0.296875,0.5
1630678988625,-0.796875,0.296875,0.5
1630678988656,-0.796875,0.296875,0.5
1630678988687,-0.796875,0.296875,0.5
1630678988718,-0.796875,0.3125,0.5
1630678988750,-0.796875,0.296875,0.5
1630678988781,-0.796875,0.3125,0.5
1630678988812,-0.8125,0.3125,0.484375
1630678988843,-0.8125,0.3125,0.484375
1630678988875,-0.796875,0.3125,0.484375
1630678988906,-0.8125,0.3125,0.5
1630678988937,-0.8125,0.3125,0.484375
1630678988968,-0.8125,0.3125,0.484375
1630678989000,-0.8125,0.328125,0.484375
1630678989031,-0.8125,0.3125,0.484375
1630678989062,-0.8125,0.3125,0.484375
1630678989093,-0.8125,0.328125,0.484375
1630678989125,-0.8125,0.3125,0.484375
1630678989156,-0.796875,0.328125,0.484375
1630678989187,-0.796875,0.3125,0.484375
1630678989218,-0.796875,0.3125,0.484375
1630678989250,-0.796875,0.3125,0.515625
1630678989281,-0.796875,0.3125,0.515625
1630678989312,-0.78125,0.296875,0.546875
1630678989343,-0.796875,0.296875,0.515625
1630678989375,-0.796875,0.296875,0.484375
1630678989406,-0.8125,0.328125,0.5
1630678989437,-0.796875,0.328125,0.5
1630678989468,-0.78125,0.328125,0.5
1630678989500,-0.796875,0.328125,0.5
1630678989531,-0.796875,0.328125,0.46875
1630678989562,-0.8125,0.328125,0.5
1630678989593,-0.796875,0.328125,0.5
1630678989625,-0.796875,0.328125,0.5
1630678989656,-0.796875,0.328125,0.5
1630678989687,-0.796875,0.3125,0.5
1630678989718,-0.796875,0.3125,0.515625
1630678989750,-0.78125,0.3125,0.515625
1630678989781,-0.78125,0.328125,0.515625
1630678989812,-0.78125,0.3125,0.515625
1630678989843,-0.78125,0.3125,0.515625
1630678989875,-0.78125,0.3125,0.515625
1630678989906,-0.796875,0.3125,0.515625
1630678989937,-0.796875,0.3125,0.515625
1630678989968,-0.796875,0.328125,0.515625
1630678990000,-0.796875,0.328125,0.515625
1630678990031,-0.796875,0.328125,0.5
1630678990062,-0.78125,0.3125,0.5
1630678990093,-0.8125,0.328125,0.515625
1630678990125,-0.78125,0.3125,0.515625
1630678990156,-0.78125,0.3125,0.515625
1630678990187,-0.796875,0.328125,0.5
1630678990218,-0.8125,0.328125,0.53125
1630678990250,-0.796875,0.296875,0.46875
1630678990281,-0.8125,0.328125,0.515625
1630678990312,-0.796875,0.3125,0.484375
1630678990343,-0.8125,0.3125,0.5
1630678990375,-0.8125,0.3125,0.484375
1630678990406,-0.8125,0.296875,0.5
1630678990437,-0.8125,0.3125,0.5
1630678990468,-0.8125,0.3125,0.546875
1630678990500,-0.796875,0.3125,0.46875
1630678990531,-0.8125,0.3125,0.484375
1630678990562,-0.8125,0.3125,0.5
1630678990593,-0.796875,0.3125,0.5
1630678990625,-0.8125,0.3125,0.484375
1630678990656,-0.8125,0.3125,0.484375
1630678990687,-0.8125,0.3125,0.5
1630678990718,-0.796875,0.3125,0.5
1630678990750,-0.8125,0.3125,0.484375
1630678990781,-0.796875,0.3125,0.5
1630678990812,-0.796875,0.3125,0.5
1630678990843,-0.796875,0.3125,0.515625
1630678990875,-0.796875,0.3125,0.515625
1630678990906,-0.796875,0.3125,0.5
1630678990937,-0.796875,0.3125,0.484375
1630678990968,-0.796875,0.3125,0.484375
1630678991000,-0.828125,0.3125,0.5
1630678991031,-0.796875,0.3125,0.5
1630678991062,-0.796875,0.296875,0.5
1630678991093,-0.796875,0.3125,0.515625
1630678991125,-0.796875,0.3125,0.515625
1630678991156,-0.796875,0.3125,0.515625
1630678991187,-0.796875,0.3125,0.5
1630678991218,-0.796875,0.3125,0.5
1630678991250,-0.796875,0.3125,0.484375
1630678991281,-0.8125,0.3125,0.5
1630678991312,-0.796875,0.3125,0.5
1630678991343,-0.796875,0.3125,0.5
1630678991375,-0.8125,0.3125,0.5
1630678991406,-0.796875,0.3125,0.484375
1630678991437,-0.796875,0.328125,0.515625
1630678991468,-0.78125,0.3125,0.5
1630678991500,-0.796875,0.328125,0.515625
1630678991531,-0.796875,0.3125,0.515625
1630678991562,-0.796875,0.3125,0.5
1630678991593,-0.796875,0.3125,0.5
1630678991625,-0.796875,0.3125,0.515625
1630678991656,-0.796875,0.3125,0.515625
1630678991687,-0.8125,0.328125,0.515625
1630678991718,-0.78125,0.328125,0.515625
1630678991750,-0.796875,0.328125,0.515625
1630678991781,-0.796875,0.328125,0.515625
1630678991812,-0.796875,0.3125,0.515625
1630678991843,-0.78125,0.3125,0.515625
1630678991875,-0.796875,0.328125,0.515625
1630678991906,-0.796875,0.328125,0.5
1630678991937,-0.796875,0.328125,0.5
1630678991968,-0.796875,0.328125,0.515625
1630678992000,-0.78125,0.3125,0.53125
1630678992031,-0.78125,0.3125,0.53125
1630678992062,-0.796875,0.3125,0.5
1630678992093,-0.796875,0.328125,0.515625
1630678992125,-0.78125,0.328125,0.515625
1630678992156,-0.78125,0.328125,0.515625
1630678992187,-0.796875,0.328125,0.515625
1630678992218,-0.78125,0.3125,0.53125
1630678992250,-0.78125,0.3125,0.515625
1630678992281,-0.796875,0.328125,0.53125
1630678992312,-0.8125,0.3125,0.5
1630678992343,-0.796875,0.3125,0.484375
1630678992375,-0.796875,0.3125,0.5
1630678992406,-0.8125,0.3125,0.5
1630678992437,-0.796875,0.3125,0.515625
1630678992468,-0.796875,0.3125,0.5
1630678992500,-0.796875,0.3125,0.5
1630678992531,-0.796875,0.296875,0.515625
1630678992562,-0.796875,0.3125,0.46875
1630678992593,-0.828125,0.3125,0.484375
1630678992625,-0.796875,0.3125,0.5
1630678992656,-0.796875,0.3125,0.515625
1630678992687,-0.796875,0.3125,0.5
1630678992718,-0.8125,0.3125,0.546875
1630678992750,-0.8125,0.3125,0.484375
1630678992781,-0.796875,0.3125,0.5
1630678992812,-0.796875,0.3125,0.5
1630678992843,-0.796875,0.3125,0.5
1630678992875,-0.796875,0.3125,0.484375
1630678992906,-0.796875,0.3125,0.484375
1630678992937,-0.8125,0.3125,0.46875
1630678992968,-0.828125,0.3125,0.46875
1630678993000,-0.8125,0.3125,0.484375
1630678993031,-0.796875,0.3125,0.515625
1630678993062,-0.796875,0.3125,0.5
1630678993093,-0.796875,0.3125,0.484375
1630678993125,-0.8125,0.3125,0.484375
1630678993156,-0.796875,0.3125,0.5
1630678993187,-0.796875,0.3125,0.5
1630678993218,-0.796875,0.3125,0.5
1630678993250,-0.8125,0.3125,0.5
1630678993281,-0.796875,0.3125,0.5
1630678993312,-0.796875,0.3125,0.5
1630678993343,-0.796875,0.328125,0.5
1630678993375,-0.796875,0.3125,0.484375
1630678993406,-0.8125,0.3125,0.484375
1630678993437,-0.8125,0.3125,0.484375
1630678993468,-0.796875,0.3125,0.5
1630678993500,-0.796875,0.3125,0.484375
1630678993531,-0.8125,0.3125,0.5
1630678993562,-0.796875,0.3125,0.5
1630678993593,-0.796875,0.3125,0.5
1630678993625,-0.796875,0.3125,0.5
1630678993656,-0.8125,0.3125,0.484375
1630678993687,-0.796875,0.3125,0.484375
1630678993718,-0.796875,0.3125,0.5
1630678993750,-0.796875,0.3125,0.5
1630678993781,-0.796875,0.3125,0.5
1630678993812,-0.796875,0.3125,0.5
1630678993843,-0.796875,0.3125,0.5
1630678993875,-0.796875,0.3125,0.5
1630678993906,-0.796875,0.3125,0.484375
1630678993937,-0.796875,0.3125,0.5
1630678993968,-0.8125,0.3125,0.5
1630678994000,-0.796875,0.3125,0.5
1630678994031,-0.796875,0.3125,0.5
1630678994062,-0.796875,0.3125,0.5
1630678994093,-0.796875,0.3125,0.5
1630678994125,-0.8125,0.3125,0.5
1630678994156,-0.8125,0.3125,0.484375
1630678994187,-0.8125,0.3125,0.484375
1630678994218,-0.8125,0.3125,0.5
1630678994250,-0.8125,0.3125,0.5
1630678994281,-0.78125,0.3125,0.5
1630678994312,-0.78125,0.3125,0.5
1630678994343,-0.828125,0.328125,0.46875
1630678994375,-0.8125,0.3125,0.484375
1630678994406,-0.8125,0.3125,0.515625
1630678994437,-0.78125,0.3125,0.515625
1630678994468,-0.796875,0.3125,0.5
1630678994500,-0.796875,0.3125,0.484375
1630678994531,-0.796875,0.328125,0.484375
1630678994562,-0.8125,0.328125,0.5
1630678994593,-0.796875,0.3125,0.5
1630678994625,-0.796875,0.296875,0.5
1630678994656,-0.796875,0.296875,0.5
1630678994687,-0.796875,0.3125,0.53125
1630678994718,-0.8125,0.328125,0.5
1630678994750,-0.78125,0.328125,0.5
1630678994781,-0.796875,0.328125,0.515625
1630678994812,-0.796875,0.328125,0.515625
1630678994843,-0.78125,0.3125,0.5
1630678994875,-0.796875,0.328125,0.515625
1630678994906,-0.8125,0.328125,0.5
1630678994937,-0.78125,0.3125,0.515625
1630678994968,-0.78125,0.3125,0.515625
1630678995000,-0.796875,0.3125,0.53125
1630678995031,-0.78125,0.328125,0.515625
1630678995062,-0.796875,0.328125,0.515625
1630678995093,-0.796875,0.3125,0.515625
1630678995125,-0.78125,0.3125,0.53125
1630678995156,-0.78125,0.3125,0.53125
1630678995187,-0.765625,0.3125,0.53125
1630678995218,-0.796875,0.3125,0.5
1630678995250,-0.796875,0.328125,0.484375
1630678995281,-0.796875,0.328125,0.5
1630678995312,-0.78125,0.328125,0.515625
1630678995343,-0.78125,0.328125,0.515625
1630678995375,-0.78125,0.328125,0.515625
1630678995406,-0.796875,0.328125,0.515625
1630678995437,-0.78125,0.328125,0.515625
1630678995468,-0.78125,0.328125,0.515625
1630678995500,-0.796875,0.328125,0.5
1630678995531,-0.796875,0.3125,0.515625
1630678995562,-0.78125,0.3125,0.515625
1630678995593,-0.78125,0.3125,0.53125
1630678995625,-0.796875,0.296875,0.515625
1630678995656,-0.796875,0.3125,0.5
1630678995687,-0.796875,0.3125,0.5
1630678995718,-0.796875,0.3125,0.515625
1630678995750,-0.796875,0.3125,0.515625
1630678995781,-0.796875,0.3125,0.515625
1630678995812,-0.796875,0.3125,0.5
1630678995843,-0.796875,0.3125,0.5
1630678995875,-0.796875,0.3125,0.5
1630678995906,-0.796875,0.3125,0.5
1630678995937,-0.8125,0.34375,0.53125
1630678995968,-0.78125,0.3125,0.484375
1630678996000,-0.8125,0.3125,0.5
1630678996031,-0.796875,0.3125,0.5
1630678996062,-0.796875,0.328125,0.5
1630678996093,-0.796875,0.328125,0.5
1630678996125,-0.796875,0.3125,0.5
1630678996156,-0.796875,0.3125,0.5
1630678996187,-0.796875,0.3125,0.5
1630678996218,-0.796875,0.3125,0.578125
1630678996250,-0.796875,0.3125,0.46875
1630678996281,-0.828125,0.3125,0.46875
1630678996312,-0.828125,0.3125,0.484375
1630678996343,-0.796875,0.3125,0.484375
1630678996375,-0.78125,0.328125,0.515625
1630678996406,-0.796875,0.328125,0.515625
1630678996437,-0.796875,0.3125,0.5
1630678996468,-0.796875,0.3125,0.5
1630678996500,-0.796875,0.328125,0.515625
1630678996531,-0.796875,0.3125,0.5
1630678996562,-0.796875,0.3125,0.5
1630678996593,-0.796875,0.3125,0.5
1630678996625,-0.796875,0.3125,0.5
1630678996656,-0.796875,0.328125,0.515625
1630678996687,-0.796875,0.3125,0.515625
1630678996718,-0.796875,0.328125,0.515625
1630678996750,-0.78125,0.3125,0.5
1630678996781,-0.8125,0.3125,0.484375
1630678996812,-0.8125,0.3125,0.5
1630678996843,-0.796875,0.3125,0.515625
1630678996875,-0.796875,0.328125,0.5
1630678996906,-0.796875,0.3125,0.5
1630678996937,-0.796875,0.328125,0.5
1630678996968,-0.796875,0.3125,0.515625
1630678997000,-0.796875,0.3125,0.5
1630678997031,-0.796875,0.3125,0.5
1630678997062,-0.796875,0.3125,0.5
1630678997093,-0.796875,0.3125,0.5
1630678997125,-0.796875,0.328125,0.5
1630678997156,-0.796875,0.3125,0.5
1630678997187,-0.796875,0.3125,0.5
1630678997218,-0.796875,0.3125,0.5
1630678997250,-0.796875,0.3125,0.5
1630678997281,-0.796875,0.3125,0.5
1630678997312,-0.796875,0.3125,0.515625
1630678997343,-0.796875,0.3125,0.515625
1630678997375,-0.796875,0.3125,0.5
1630678997406,-0.796875,0.3125,0.5
1630678997437,-0.796875,0.3125,0.5
1630678997468,-0.796875,0.3125,0.5
1630678997500,-0.796875,0.3125,0.5
1630678997531,-0.796875,0.3125,0.515625
1630678997562,-0.796875,0.3125,0.5
1630678997593,-0.796875,0.3125,0.5
1630678997625,-0.796875,0.3125,0.5
1630678997656,-0.796875,0.3125,0.515625
1630678997687,-0.796875,0.3125,0.484375
1630678997718,-0.796875,0.328125,0.5
1630678997750,-0.796875,0.3125,0.484375
1630678997781,-0.796875,0.328125,0.515625
1630678997812,-0.796875,0.3125,0.515625
1630678997843,-0.796875,0.328125,0.515625
1630678997875,-0.796875,0.3125,0.515625
1630678997906,-0.796875,0.3125,0.515625
1630678997937,-0.796875,0.3125,0.484375
1630678997968,-0.796875,0.3125,0.515625
1630678998000,-0.78125,0.328125,0.515625
1630678998031,-0.78125,0.3125,0.5
1630678998062,-0.796875,0.3125,0.515625
1630678998093,-0.796875,0.3125,0.515625
1630678998125,-0.78125,0.3125,0.5
1630678998156,-0.796875,0.328125,0.515625
1630678998187,-0.796875,0.328125,0.5
1630678998218,-0.796875,0.328125,0.5
1630678998250,-0.796875,0.328125,0.5
1630678998281,-0.78125,0.328125,0.515625
1630678998312,-0.796875,0.328125,0.515625
1630678998343,-0.796875,0.3125,0.5
1630678998375,-0.796875,0.3125,0.53125
1630678998406,-0.78125,0.3125,0.53125
1630678998437,-0.796875,0.296875,0.5
1630678998468,-0.796875,0.3125,0.5
1630678998500,-0.796875,0.3125,0.515625
1630678998531,-0.78125,0.296875,0.5
1630678998562,-0.796875,0.296875,0.484375
1630678998593,-0.8125,0.3125,0.5
1630678998625,-0.796875,0.3125,0.5
1630678998656,-0.796875,0.328125,0.515625
1630678998687,-0.796875,0.3125,0.484375
1630678998718,-0.796875,0.328125,0.5
1630678998750,-0.8125,0.34375,0.546875
1630678998781,-0.796875,0.3125,0.515625
1630678998812,-0.8125,0.3125,0.46875
1630678998843,-0.828125,0.3125,0.46875
1630678998875,-0.8125,0.3125,0.484375
1630678998906,-0.796875,0.3125,0.515625
1630678998937,-0.796875,0.3125,0.5
1630678998968,-0.796875,0.3125,0.5
1630678999000,-0.796875,0.3125,0.5
1630678999031,-0.796875,0.3125,0.5
1630678999062,-0.796875,0.3125,0.5
1630678999093,-0.8125,0.328125,0.5
1630678999125,-0.796875,0.3125,0.515625
1630678999156,-0.78125,0.3125,0.484375
1630678999187,-0.796875,0.328125,0.5
1630678999218,-0.796875,0.34375,0.5
1630678999250,-0.78125,0.328125,0.515625
1630678999281,-0.796875,0.328125,0.515625
1630678999312,-0.796875,0.328125,0.5
1630678999343,-0.796875,0.3125,0.5
1630678999375,-0.796875,0.3125,0.515625
1630678999406,-0.78125,0.3125,0.515625
1630678999437,-0.78125,0.3125,0.5
1630678999468,-0.796875,0.328125,0.515625
1630678999500,-0.796875,0.3125,0.515625
1630678999531,-0.796875,0.3125,0.515625
1630678999562,-0.796875,0.3125,0.5
1630678999593,-0.78125,0.3125,0.5
1630678999625,-0.796875,0.3125,0.5
1630678999656,-0.8125,0.328125,0.515625
1630678999687,-0.78125,0.3125,0.515625
1630678999718,-0.78125,0.3125,0.515625
1630678999750,-0.796875,0.3125,0.5
1630678999781,-0.8125,0.3125,0.484375
1630678999812,-0.796875,0.328125,0.515625
1630678999843,-0.78125,0.328125,0.515625
1630678999875,-0.796875,0.3125,0.484375
1630678999906,-0.8125,0.3125,0.5
1630678999937,-0.796875,0.3125,0.484375
1630678999968,-0.796875,0.3125,0.5
1630679000000,-0.78125,0.3125,0.484375
1630679000031,-0.78125,0.3125,0.515625
1630679000062,-0.796875,0.3125,0.5
1630679000093,-0.8125,0.3125,0.484375
1630679000125,-0.796875,0.3125,0.5
1630679000156,-0.796875,0.3125,0.5
1630679000187,-0.796875,0.3125,0.515625
1630679000218,-0.796875,0.3125,0.5
1630679000250,-0.796875,0.3125,0.484375
1630679000281,-0.796875,0.328125,0.5
1630679000312,-0.796875,0.3125,0.515625
1630679000343,-0.796875,0.3125,0.5
1630679000375,-0.796875,0.3125,0.5
1630679000406,-0.796875,0.3125,0.5
1630679000437,-0.8125,0.3125,0.5
1630679000468,-0.796875,0.3125,0.5
1630679000500,-0.796875,0.3125,0.5
1630679000531,-0.796875,0.3125,0.5
1630679000562,-0.796875,0.3125,0.5
1630679000593,-0.796875,0.3125,0.515625
1630679000625,-0.796875,0.328125,0.515625
1630679000656,-0.796875,0.3125,0.5
1630679000687,-0.796875,0.3125,0.5
1630679000718,-0.796875,0.3125,0.5
1630679000750,-0.796875,0.3125,0.5
1630679000781,-0.796875,0.3125,0.515625
1630679000812,-0.796875,0.3125,0.5
1630679000843,-0.796875,0.3125,0.5
1630679000875,-0.796875,0.3125,0.5
1630679000906,-0.796875,0.3125,0.5
1630679000937,-0.796875,0.3125,0.5
1630679000968,-0.796875,0.3125,0.5
1630679001000,-0.796875,0.3125,0.5
1630679001031,-0.796875,0.3125,0.5
1630679001062,-0.796875,0.3125,0.5
1630679001093,-0.796875,0.3125,0.515625
1630679001125,-0.796875,0.3125,0.5
1630679001156,-0.796875,0.3125,0.5
1630679001187,-0.796875,0.3125,0.515625
1630679001218,-0.796875,0.3125,0.515625
1630679001250,-0.796875,0.3125,0.5
1630679001281,-0.796875,0.3125,0.5
1630679001312,-0.796875,0.3125,0.515625
1630679001343,-0.796875,0.328125,0.515625
1630679001375,-0.796875,0.3125,0.5
1630679001406,-0.796875,0.3125,0.5
1630679001437,-0.796875,0.3125,0.5
1630679001468,-0.796875,0.3125,0.515625
1630679001500,-0.78125,0.3125,0.515625
1630679001531,-0.796875,0.3125,0.484375
1630679001562,-0.796875,0.3125,0.5
1630679001593,-0.796875,0.3125,0.515625
1630679001625,-0.78125,0.3125,0.5
1630679001656,-0.796875,0.328125,0.515625
1630679001687,-0.796875,0.3125,0.5
1630679001718,-0.796875,0.3125,0.5
1630679001750,-0.796875,0.328125,0.5
1630679001781,-0.796875,0.3125,0.515625
1630679001812,-0.796875,0.3125,0.5
1630679001843,-0.796875,0.3125,0.5
1630679001875,-0.796875,0.328125,0.515625
1630679001906,-0.796875,0.328125,0.515625
1630679001937,-0.796875,0.3125,0.515625
1630679001968,-0.796875,0.3125,0.515625
1630679002000,-0.796875,0.328125,0.515625
1630679002031,-0.796875,0.328125,0.5
1630679002062,-0.796875,0.328125,0.5625
1630679002093,-0.78125,0.3125,0.5
1630679002125,-0.796875,0.328125,0.5
1630679002156,-0.796875,0.328125,0.5
1630679002187,-0.796875,0.328125,0.515625
1630679002218,-0.796875,0.328125,0.5
1630679002250,-0.796875,0.3125,0.5
1630679002281,-0.796875,0.3125,0.5
1630679002312,-0.796875,0.328125,0.5
1630679002343,-0.796875,0.328125,0.515625
1630679002375,-0.796875,0.328125,0.515625
1630679002406,-0.796875,0.328125,0.5
1630679002437,-0.796875,0.328125,0.5
1630679002468,-0.796875,0.328125,0.5
1630679002500,-0.796875,0.3125,0.5
1630679002531,-0.796875,0.3125,0.5
1630679002562,-0.796875,0.3125,0.5
1630679002593,-0.796875,0.3125,0.515625
1630679002625,-0.796875,0.3125,0.5
1630679002656,-0.78125,0.3125,0.515625
1630679002687,-0.796875,0.3125,0.53125
1630679002718,-0.796875,0.3125,0.515625
1630679002750,-0.78125,0.3125,0.515625
1630679002781,-0.796875,0.3125,0.515625
1630679002812,-0.796875,0.328125,0.546875
1630679002843,-0.78125,0.328125,0.5
1630679002875,-0.78125,0.328125,0.515625
1630679002906,-0.796875,0.328125,0.5
1630679002937,-0.796875,0.328125,0.5
1630679002968,-0.796875,0.328125,0.5
1630679003000,-0.796875,0.328125,0.5
1630679003031,-0.796875,0.328125,0.515625
1630679003062,-0.78125,0.328125,0.515625
1630679003093,-0.78125,0.3125,0.515625
1630679003125,-0.796875,0.3125,0.515625
1630679003156,-0.78125,0.3125,0.515625
1630679003187,-0.78125,0.3125,0.515625
1630679003218,-0.796875,0.3125,0.515625
1630679003250,-0.78125,0.328125,0.515625
1630679003281,-0.796875,0.328125,0.515625
1630679003312,-0.78125,0.3125,0.53125
1630679003343,-0.796875,0.296875,0.5
1630679003375,-0.78125,0.3125,0.515625
1630679003406,-0.796875,0.3125,0.5
1630679003437,-0.8125,0.328125,0.515625
1630679003468,-0.796875,0.3125,0.515625
1630679003500,-0.796875,0.3125,0.484375
1630679003531,-0.796875,0.3125,0.46875
1630679003562,-0.828125,0.3125,0.484375
1630679003593,-0.8125,0.3125,0.5
1630679003625,-0.796875,0.3125,0.5
1630679003656,-0.796875,0.3125,0.5
1630679003687,-0.8125,0.3125,0.484375
1630679003718,-0.796875,0.3125,0.5
1630679003750,-0.796875,0.3125,0.515625
1630679003781,-0.796875,0.328125,0.546875
1630679003812,-0.78125,0.28125,0.5
1630679003843,-0.8125,0.296875,0.484375
1630679003875,-0.8125,0.296875,0.484375
1630679003906,-0.8125,0.3125,0.484375
1630679003937,-0.796875,0.3125,0.5
1630679003968,-0.796875,0.3125,0.5
1630679004000,-0.796875,0.3125,0.515625
1630679004031,-0.8125,0.3125,0.484375
1630679004062,-0.8125,0.3125,0.484375
1630679004093,-0.8125,0.3125,0.484375
1630679004125,-0.796875,0.3125,0.5
1630679004156,-0.796875,0.3125,0.5
1630679004187,-0.796875,0.3125,0.5
1630679004218,-0.796875,0.3125,0.5
1630679004250,-0.8125,0.3125,0.5
1630679004281,-0.796875,0.3125,0.484375
1630679004312,-0.8125,0.3125,0.5
1630679004343,-0.796875,0.3125,0.5
1630679004375,-0.796875,0.3125,0.5
1630679004406,-0.796875,0.3125,0.5
1630679004437,-0.796875,0.3125,0.5
1630679004468,-0.796875,0.3125,0.5
1630679004500,-0.796875,0.3125,0.5
1630679004531,-0.796875,0.3125,0.5
1630679004562,-0.796875,0.3125,0.5
1630679004593,-0.796875,0.3125,0.5
1630679004625,-0.796875,0.3125,0.5
1630679004656,-0.796875,0.3125,0.5
1630679004687,-0.796875,0.3125,0.5
1630679004718,-0.796875,0.3125,0.515625
1630679004750,-0.796875,0.328125,0.515625
1630679004781,-0.796875,0.3125,0.5
1630679004812,-0.796875,0.3125,0.5
1630679004843,-0.796875,0.328125,0.5
1630679004875,-0.796875,0.328125,0.5
1630679004906,-0.796875,0.3125,0.5
1630679004937,-0.796875,0.3125,0.5
1630679004968,-0.796875,0.328125,0.515625
1630679005000,-0.796875,0.3125,0.5
1630679005031,-0.796875,0.328125,0.5
1630679005062,-0.796875,0.328125,0.515625
1630679005093,-0.796875,0.328125,0.515625
1630679005125,-0.78125,0.328125,0.515625
1630679005156,-0.796875,0.328125,0.5
1630679005187,-0.796875,0.3125,0.5
1630679005218,-0.796875,0.328125,0.5
1630679005250,-0.796875,0.328125,0.515625
1630679005281,-0.78125,0.328125,0.515625
1630679005312,-0.796875,0.328125,0.5
1630679005343,-0.796875,0.328125,0.5
1630679005375,-0.796875,0.328125,0.5
1630679005406,-0.78125,0.328125,0.515625
1630679005437,-0.78125,0.328125,0.53125
1630679005468,-0.796875,0.328125,0.515625
1630679005500,-0.796875,0.328125,0.515625
1630679005531,-0.796875,0.328125,0.515625
1630679005562,-0.78125,0.3125,0.515625
1630679005593,-0.78125,0.328125,0.515625
1630679005625,-0.796875,0.3125,0.5
1630679005656,-0.796875,0.3125,0.5
1630679005687,-0.78125,0.3125,0.515625
1630679005718,-0.796875,0.328125,0.515625
1630679005750,-0.796875,0.328125,0.515625
1630679005781,-0.78125,0.328125,0.515625
1630679005812,-0.78125,0.328125,0.515625
1630679005843,-0.796875,0.328125,0.5
1630679005875,-0.78125,0.328125,0.515625
1630679005906,-0.78125,0.3125,0.515625
1630679005937,-0.796875,0.3125,0.515625
1630679005968,-0.796875,0.3125,0.515625
1630679006000,-0.796875,0.3125,0.515625
1630679006031,-0.796875,0.328125,0.515625
1630679006062,-0.78125,0.328125,0.53125
1630679006093,-0.78125,0.328125,0.515625
1630679006125,-0.796875,0.328125,0.5
1630679006156,-0.796875,0.328125,0.5
1630679006187,-0.78125,0.328125,0.515625
1630679006218,-0.78125,0.328125,0.515625
1630679006250,-0.796875,0.328125,0.515625
1630679006281,-0.78125,0.3125,0.5
1630679006312,-0.78125,0.3125,0.5
1630679006343,-0.796875,0.328125,0.515625
1630679006375,-0.796875,0.328125,0.53125
1630679006406,-0.765625,0.328125,0.546875
1630679006437,-0.8125,0.3125,0.484375
1630679006468,-0.8125,0.3125,0.46875
1630679006500,-0.796875,0.3125,0.5
1630679006531,-0.796875,0.3125,0.515625
1630679006562,-0.78125,0.3125,0.53125
1630679006593,-0.796875,0.3125,0.5
1630679006625,-0.8125,0.3125,0.484375
1630679006656,-0.828125,0.3125,0.484375
1630679006687,-0.796875,0.296875,0.46875
1630679006718,-0.796875,0.3125,0.515625
1630679006750,-0.8125,0.3125,0.484375
1630679006781,-0.8125,0.3125,0.484375
1630679006812,-0.796875,0.3125,0.5
1630679006843,-0.8125,0.3125,0.5
1630679006875,-0.796875,0.3125,0.515625
1630679006906,-0.796875,0.3125,0.5
1630679006937,-0.8125,0.3125,0.484375
1630679006968,-0.8125,0.296875,0.484375
1630679007000,-0.8125,0.3125,0.5
1630679007031,-0.796875,0.3125,0.484375
1630679007062,-0.796875,0.296875,0.453125
1630679007093,-0.796875,0.296875,0.484375
1630679007125,-0.8125,0.3125,0.484375
1630679007156,-0.796875,0.3125,0.5
1630679007187,-0.796875,0.3125,0.5
1630679007218,-0.796875,0.3125,0.5
1630679007250,-0.796875,0.3125,0.484375
1630679007281,-0.8125,0.3125,0.5
1630679007312,-0.796875,0.3125,0.5
1630679007343,-0.796875,0.3125,0.484375
1630679007375,-0.8125,0.3125,0.5
1630679007406,-0.8125,0.3125,0.5
1630679007437,-0.8125,0.3125,0.484375
1630679007468,-0.796875,0.3125,0.5
1630679007500,-0.796875,0.3125,0.5
1630679007531,-0.8125,0.3125,0.484375
1630679007562,-0.796875,0.296875,0.515625
1630679007593,-0.796875,0.296875,0.5
1630679007625,-0.828125,0.3125,0.484375
1630679007656,-0.8125,0.3125,0.5
1630679007687,-0.796875,0.3125,0.515625
1630679007718,-0.796875,0.3125,0.515625
1630679007750,-0.8125,0.3125,0.5
1630679007781,-0.796875,0.3125,0.484375
1630679007812,-0.796875,0.3125,0.5
1630679007843,-0.796875,0.3125,0.5
1630679007875,-0.796875,0.3125,0.5
1630679007906,-0.796875,0.3125,0.5
1630679007937,-0.796875,0.3125,0.5
1630679007968,-0.796875,0.3125,0.5
1630679008000,-0.796875,0.3125,0.5
1630679008031,-0.796875,0.3125,0.5
1630679008062,-0.796875,0.3125,0.5
1630679008093,-0.796875,0.3125,0.5
1630679008125,-0.796875,0.3125,0.484375
1630679008156,-0.796875,0.3125,0.5
1630679008187,-0.8125,0.3125,0.5
1630679008218,-0.8125,0.328125,0.5
1630679008250,-0.796875,0.3125,0.5
1630679008281,-0.796875,0.3125,0.5
1630679008312,-0.796875,0.328125,0.5
1630679008343,-0.796875,0.3125,0.5
1630679008375,-0.8125,0.3125,0.5
1630679008406,-0.796875,0.3125,0.5
1630679008437,-0.796875,0.3125,0.5
1630679008468,-0.796875,0.3125,0.515625
1630679008500,-0.796875,0.3125,0.5
1630679008531,-0.796875,0.3125,0.5
1630679008562,-0.796875,0.328125,0.5
1630679008593,-0.796875,0.328125,0.5
1630679008625,-0.796875,0.328125,0.5
1630679008656,-0.796875,0.328125,0.5
1630679008687,-0.796875,0.328125,0.5
1630679008718,-0.796875,0.3125,0.484375
1630679008750,-0.796875,0.328125,0.5
1630679008781,-0.796875,0.3125,0.5
1630679008812,-0.796875,0.3125,0.515625
1630679008843,-0.796875,0.3125,0.515625
1630679008875,-0.796875,0.3125,0.515625
1630679008906,-0.78125,0.296875,0.515625
1630679008937,-0.796875,0.3125,0.5
1630679008968,-0.796875,0.3125,0.515625
1630679009000,-0.796875,0.3125,0.5
1630679009031,-0.796875,0.3125,0.5
1630679009062,-0.78125,0.328125,0.5
1630679009093,-0.796875,0.328125,0.484375
1630679009125,-0.796875,0.328125,0.5
1630679009156,-0.796875,0.328125,0.5
1630679009187,-0.796875,0.3125,0.5
1630679009218,-0.796875,0.3125,0.5
1630679009250,-0.796875,0.3125,0.5
1630679009281,-0.796875,0.3125,0.5
1630679009312,-0.796875,0.3125,0.5
1630679009343,-0.796875,0.3125,0.5
1630679009375,-0.796875,0.3125,0.515625
1630679009406,-0.78125,0.328125,0.515625
1630679009437,-0.796875,0.328125,0.515625
1630679009468,-0.796875,0.328125,0.5
1630679009500,-0.796875,0.328125,0.5
1630679009531,-0.796875,0.3125,0.5
1630679009562,-0.796875,0.3125,0.5
1630679009593,-0.796875,0.3125,0.5
1630679009625,-0.796875,0.3125,0.5
1630679009656,-0.796875,0.296875,0.5
1630679009687,-0.796875,0.3125,0.5
1630679009718,-0.8125,0.328125,0.53125
1630679009750,-0.78125,0.296875,0.515625
1630679009781,-0.8125,0.3125,0.484375
1630679009812,-0.828125,0.3125,0.46875
1630679009843,-0.796875,0.3125,0.5
1630679009875,-0.796875,0.3125,0.5
1630679009906,-0.8125,0.3125,0.5
1630679009937,-0.796875,0.3125,0.484375
1630679009968,-0.796875,0.3125,0.5
1630679010000,-0.796875,0.3125,0.515625
1630679010031,-0.796875,0.3125,0.5
1630679010062,-0.796875,0.296875,0.5
1630679010093,-0.796875,0.3125,0.484375
1630679010125,-0.8125,0.328125,0.5
1630679010156,-0.78125,0.328125,0.515625
1630679010187,-0.78125,0.3125,0.5
1630679010218,-0.796875,0.328125,0.515625
1630679010250,-0.8125,0.3125,0.5
1630679010281,-0.796875,0.3125,0.46875
1630679010312,-0.796875,0.3125,0.515625
1630679010343,-0.78125,0.3125,0.515625
1630679010375,-0.796875,0.3125,0.5
1630679010406,-0.796875,0.328125,0.515625
1630679010437,-0.796875,0.328125,0.5
1630679010468,-0.78125,0.3125,0.5
1630679010500,-0.796875,0.328125,0.515625
1630679010531,-0.796875,0.328125,0.5
1630679010562,-0.796875,0.328125,0.5
1630679010593,-0.796875,0.328125,0.515625
1630679010625,-0.796875,0.3125,0.5
1630679010656,-0.796875,0.3125,0.515625
1630679010687,-0.796875,0.3125,0.5
1630679010718,-0.796875,0.328125,0.515625
1630679010750,-0.78125,0.3125,0.515625
1630679010781,-0.796875,0.328125,0.515625
1630679010812,-0.78125,0.328125,0.515625
1630679010843,-0.796875,0.328125,0.5
1630679010875,-0.796875,0.328125,0.5
1630679010906,-0.796875,0.328125,0.515625
1630679010937,-0.796875,0.3125,0.5
1630679010968,-0.796875,0.3125,0.5
1630679011000,-0.796875,0.3125,0.515625
1630679011031,-0.78125,0.3125,0.515625
1630679011062,-0.796875,0.3125,0.5
1630679011093,-0.796875,0.3125,0.515625
1630679011125,-0.796875,0.328125,0.515625
1630679011156,-0.796875,0.328125,0.515625
1630679011187,-0.796875,0.328125,0.515625
1630679011218,-0.78125,0.328125,0.515625
1630679011250,-0.78125,0.328125,0.5
1630679011281,-0.796875,0.328125,0.515625
1630679011312,-0.796875,0.328125,0.515625
1630679011343,-0.796875,0.328125,0.515625
1630679011375,-0.796875,0.328125,0.515625
1630679011406,-0.796875,0.328125,0.515625
1630679011437,-0.78125,0.328125,0.5
1630679011468,-0.796875,0.328125,0.515625
1630679011500,-0.796875,0.328125,0.515625
1630679011531,-0.796875,0.3125,0.515625
1630679011562,-0.796875,0.328125,0.5
1630679011593,-0.796875,0.328125,0.515625
1630679011625,-0.78125,0.328125,0.53125
1630679011656,-0.78125,0.328125,0.53125
1630679011687,-0.796875,0.328125,0.515625
1630679011718,-0.796875,0.328125,0.515625
1630679011750,-0.78125,0.328125,0.515625
1630679011781,-0.78125,0.328125,0.515625
1630679011812,-0.796875,0.328125,0.515625
1630679011843,-0.78125,0.3125,0.515625
1630679011875,-0.796875,0.328125,0.515625
1630679011906,-0.78125,0.328125,0.515625
1630679011937,-0.78125,0.328125,0.515625
1630679011968,-0.796875,0.328125,0.5
1630679012000,-0.78125,0.328125,0.515625
1630679012031,-0.796875,0.328125,0.515625
1630679012062,-0.78125,0.328125,0.515625
1630679012093,-0.78125,0.328125,0.515625
1630679012125,-0.78125,0.328125,0.515625
1630679012156,-0.78125,0.328125,0.515625
1630679012187,-0.78125,0.328125,0.515625
1630679012218,-0.796875,0.328125,0.515625
1630679012250,-0.78125,0.328125,0.515625
1630679012281,-0.78125,0.328125,0.515625
1630679012312,-0.78125,0.328125,0.515625
1630679012343,-0.78125,0.328125,0.515625
1630679012375,-0.78125,0.328125,0.515625
1630679012406,-0.78125,0.328125,0.515625
1630679012437,-0.78125,0.328125,0.515625
1630679012468,-0.796875,0.328125,0.515625
1630679012500,-0.78125,0.328125,0.515625
1630679012531,-0.78125,0.328125,0.515625
1630679012562,-0.78125,0.328125,0.515625
1630679012593,-0.78125,0.328125,0.515625
1630679012625,-0.796875,0.328125,0.515625
1630679012656,-0.796875,0.328125,0.515625
1630679012687,-0.78125,0.328125,0.515625
1630679012718,-0.78125,0.328125,0.515625
1630679012750,-0.78125,0.328125,0.515625
1630679012781,-0.78125,0.328125,0.515625
1630679012812,-0.78125,0.328125,0.515625
1630679012843,-0.796875,0.328125,0.515625
1630679012875,-0.78125,0.328125,0.515625
1630679012906,-0.78125,0.328125,0.515625
1630679012937,-0.796875,0.328125,0.515625
1630679012968,-0.78125,0.328125,0.515625
1630679013000,-0.796875,0.328125,0.515625
1630679013031,-0.78125,0.328125,0.515625
1630679013062,-0.78125,0.328125,0.515625
1630679013093,-0.78125,0.328125,0.515625
1630679013125,-0.78125,0.328125,0.515625
1630679013156,-0.78125,0.328125,0.515625
1630679013187,-0.78125,0.328125,0.515625
1630679013218,-0.78125,0.328125,0.5
1630679013250,-0.796875,0.328125,0.5
1630679013281,-0.796875,0.328125,0.515625
1630679013312,-0.796875,0.328125,0.515625
1630679013343,-0.78125,0.328125,0.515625
1630679013375,-0.78125,0.328125,0.515625
1630679013406,-0.78125,0.328125,0.515625
1630679013437,-0.78125,0.328125,0.515625
1630679013468,-0.796875,0.328125,0.515625
1630679013500,-0.78125,0.328125,0.5
1630679013531,-0.78125,0.328125,0.5
1630679013562,-0.796875,0.328125,0.515625
1630679013593,-0.78125,0.328125,0.515625
1630679013625,-0.78125,0.328125,0.515625
1630679013656,-0.796875,0.328125,0.515625
1630679013687,-0.78125,0.328125,0.515625
1630679013718,-0.78125,0.328125,0.515625
1630679013750,-0.796875,0.328125,0.5
1630679013781,-0.78125,0.328125,0.515625
1630679013812,-0.796875,0.328125,0.515625
1630679013843,-0.796875,0.328125,0.515625
1630679013875,-0.796875,0.328125,0.5
1630679013906,-0.796875,0.328125,0.515625
1630679013937,-0.796875,0.328125,0.515625
1630679013968,-0.796875,0.328125,0.515625
1630679014000,-0.78125,0.328125,0.515625
1630679014031,-0.78125,0.328125,0.515625
1630679014062,-0.796875,0.328125,0.515625
1630679014093,-0.796875,0.328125,0.515625
1630679014125,-0.796875,0.328125,0.515625
1630679014156,-0.78125,0.328125,0.515625
1630679014187,-0.78125,0.328125,0.515625
1630679014218,-0.78125,0.328125,0.515625
1630679014250,-0.78125,0.34375,0.515625
1630679014281,-0.78125,0.328125,0.5
1630679014312,-0.78125,0.328125,0.515625
1630679014343,-0.796875,0.328125,0.515625
1630679014375,-0.796875,0.328125,0.515625
1630679014406,-0.78125,0.328125,0.515625
1630679014437,-0.78125,0.3125,0.515625
1630679014468,-0.796875,0.328125,0.515625
1630679014500,-0.78125,0.328125,0.515625
1630679014531,-0.78125,0.328125,0.515625
1630679014562,-0.78125,0.328125,0.515625
1630679014593,-0.78125,0.328125,0.515625
1630679014625,-0.78125,0.328125,0.515625
1630679014656,-0.796875,0.328125,0.515625
1630679014687,-0.796875,0.328125,0.515625
1630679014718,-0.796875,0.328125,0.515625
1630679014750,-0.78125,0.328125,0.5
1630679014781,-0.78125,0.328125,0.515625
1630679014812,-0.78125,0.328125,0.515625
1630679014843,-0.78125,0.328125,0.515625
1630679014875,-0.796875,0.328125,0.515625
1630679014906,-0.78125,0.328125,0.515625
1630679014937,-0.796875,0.328125,0.515625
1630679014968,-0.796875,0.328125,0.515625
1630679015000,-0.796875,0.328125,0.515625
1630679015031,-0.796875,0.328125,0.5
1630679015062,-0.796875,0.328125,0.5
1630679015093,-0.796875,0.328125,0.515625
1630679015125,-0.796875,0.328125,0.515625
1630679015156,-0.796875,0.328125,0.515625
1630679015187,-0.796875,0.328125,0.515625
1630679015218,-0.78125,0.328125,0.515625
1630679015250,-0.796875,0.328125,0.515625
1630679015281,-0.796875,0.328125,0.515625
1630679015312,-0.78125,0.328125,0.515625
1630679015343,-0.796875,0.328125,0.5
1630679015375,-0.78125,0.328125,0.515625
1630679015406,-0.796875,0.328125,0.5
1630679015437,-0.796875,0.328125,0.515625
1630679015468,-0.78125,0.328125,0.515625
1630679015500,-0.78125,0.328125,0.515625
1630679015531,-0.796875,0.328125,0.515625
1630679015562,-0.796875,0.328125,0.515625
1630679015593,-0.78125,0.328125,0.515625
1630679015625,-0.796875,0.328125,0.515625
1630679015656,-0.796875,0.328125,0.515625
1630679015687,-0.796875,0.328125,0.5
1630679015718,-0.78125,0.3125,0.5
1630679015750,-0.796875,0.328125,0.5
1630679015781,-0.78125,0.328125,0.515625
1630679015812,-0.78125,0.328125,0.515625
1630679015843,-0.78125,0.3125,0.515625
1630679015875,-0.78125,0.3125,0.515625
1630679015906,-0.796875,0.328125,0.515625
1630679015937,-0.796875,0.328125,0.515625
1630679015968,-0.78125,0.328125,0.515625
1630679016000,-0.78125,0.3125,0.515625
1630679016031,-0.78125,0.328125,0.515625
1630679016062,-0.78125,0.3125,0.515625
1630679016093,-0.796875,0.328125,0.515625
1630679016125,-0.796875,0.328125,0.515625
1630679016156,-0.796875,0.328125,0.515625
1630679016187,-0.78125,0.328125,0.515625
1630679016218,-0.796875,0.328125,0.515625
1630679016250,-0.78125,0.328125,0.515625
1630679016281,-0.78125,0.328125,0.515625
1630679016312,-0.796875,0.3125,0.5
1630679016343,-0.796875,0.3125,0.5
1630679016375,-0.796875,0.3125,0.515625
1630679016406,-0.796875,0.328125,0.515625
1630679016437,-0.78125,0.328125,0.515625
1630679016468,-0.78125,0.328125,0.5
1630679016500,-0.796875,0.328125,0.515625
1630679016531,-0.796875,0.328125,0.515625
1630679016562,-0.796875,0.328125,0.5
1630679016593,-0.796875,0.328125,0.5
1630679016625,-0.796875,0.3125,0.515625
1630679016656,-0.796875,0.3125,0.5
1630679016687,-0.796875,0.3125,0.515625
1630679016718,-0.796875,0.3125,0.515625
1630679016750,-0.78125,0.328125,0.515625
1630679016781,-0.796875,0.328125,0.515625
1630679016812,-0.796875,0.328125,0.515625
1630679016843,-0.796875,0.328125,0.515625
1630679016875,-0.796875,0.328125,0.515625
1630679016906,-0.796875,0.328125,0.515625
1630679016937,-0.796875,0.328125,0.515625
1630679016968,-0.796875,0.328125,0.515625
1630679017000,-0.796875,0.328125,0.5
1630679017031,-0.796875,0.328125,0.515625
1630679017062,-0.796875,0.328125,0.515625
1630679017093,-0.796875,0.328125,0.515625
1630679017125,-0.78125,0.3125,0.515625
1630679017156,-0.78125,0.328125,0.515625
1630679017187,-0.796875,0.328125,0.515625
1630679017218,-0.78125,0.328125,0.515625
1630679017250,-0.78125,0.328125,0.515625
1630679017281,-0.796875,0.328125,0.515625
1630679017312,-0.796875,0.328125,0.515625
1630679017343,-0.796875,0.328125,0.515625
1630679017375,-0.78125,0.328125,0.515625
1630679017406,-0.78125,0.328125,0.515625
1630679017437,-0.796875,0.328125,0.515625
1630679017468,-0.78125,0.328125,0.515625
1630679017500,-0.78125,0.328125,0.515625
1630679017531,-0.796875,0.328125,0.515625
1630679017562,-0.78125,0.328125,0.515625
1630679017593,-0.78125,0.328125,0.5
1630679017625,-0.78125,0.328125,0.515625
1630679017656,-0.796875,0.328125,0.515625
1630679017687,-0.796875,0.328125,0.515625
1630679017718,-0.796875,0.328125,0.5
1630679017750,-0.796875,0.328125,0.515625
1630679017781,-0.796875,0.328125,0.515625
1630679017812,-0.796875,0.328125,0.515625
1630679017843,-0.78125,0.328125,0.515625
1630679017875,-0.78125,0.328125,0.515625
1630679017906,-0.78125,0.328125,0.515625
1630679017937,-0.78125,0.328125,0.515625
1630679017968,-0.796875,0.328125,0.515625
1630679018000,-0.796875,0.328125,0.5
1630679018031,-0.796875,0.328125,0.515625
1630679018062,-0.796875,0.328125,0.515625
1630679018093,-0.78125,0.328125,0.515625
1630679018125,-0.796875,0.328125,0.515625
1630679018156,-0.78125,0.328125,0.515625
1630679018187,-0.78125,0.328125,0.515625
1630679018218,-0.796875,0.328125,0.515625
1630679018250,-0.78125,0.328125,0.515625
1630679018281,-0.78125,0.328125,0.515625
1630679018312,-0.78125,0.328125,0.515625
1630679018343,-0.78125,0.328125,0.515625
1630679018375,-0.78125,0.328125,0.515625
1630679018406,-0.78125,0.328125,0.515625
1630679018437,-0.78125,0.328125,0.515625
1630679018468,-0.796875,0.328125,0.515625
1630679018500,-0.796875,0.328125,0.515625
1630679018531,-0.796875,0.328125,0.515625
1630679018562,-0.78125,0.328125,0.515625
1630679018593,-0.796875,0.328125,0.515625
1630679018625,-0.796875,0.328125,0.515625
1630679018656,-0.796875,0.328125,0.515625
1630679018687,-0.78125,0.328125,0.515625
1630679018718,-0.78125,0.328125,0.515625
1630679018750,-0.78125,0.328125,0.515625
1630679018781,-0.78125,0.328125,0.515625
1630679018812,-0.78125,0.328125,0.515625
1630679018843,-0.78125,0.328125,0.515625
1630679018875,-0.796875,0.328125,0.515625
1630679018906,-0.796875,0.328125,0.515625
1630679018937,-0.78125,0.328125,0.515625
1630679018968,-0.78125,0.328125,0.515625
1630679019000,-0.78125,0.328125,0.515625
1630679019031,-0.796875,0.328125,0.515625
1630679019062,-0.796875,0.328125,0.515625
1630679019093,-0.796875,0.328125,0.515625
1630679019125,-0.796875,0.328125,0.5
1630679019156,-0.796875,0.328125,0.5
1630679019187,-0.796875,0.328125,0.515625
1630679019218,-0.796875,0.328125,0.515625
1630679019250,-0.796875,0.3125,0.515625
1630679019281,-0.796875,0.3125,0.5
1630679019312,-0.796875,0.3125,0.484375
1630679019343,-0.796875,0.3125,0.5
1630679019375,-0.796875,0.3125,0.515625
1630679019406,-0.796875,0.3125,0.5
1630679019437,-0.796875,0.3125,0.5
1630679019468,-0.796875,0.3125,0.5
1630679019500,-0.796875,0.3125,0.484375
1630679019531,-0.796875,0.3125,0.5
1630679019562,-0.796875,0.3125,0.5
1630679019593,-0.796875,0.3125,0.5
1630679019625,-0.796875,0.3125,0.5
1630679019656,-0.796875,0.3125,0.5
1630679019687,-0.796875,0.296875,0.484375
1630679019718,-0.78125,0.3125,0.5
1630679019750,-0.8125,0.296875,0.484375
1630679019781,-0.8125,0.3125,0.5
1630679019812,-0.8125,0.3125,0.5
1630679019843,-0.796875,0.3125,0.5
1630679019875,-0.796875,0.3125,0.5
1630679019906,-0.796875,0.3125,0.5
1630679019937,-0.796875,0.3125,0.5
1630679019968,-0.796875,0.328125,0.5
1630679020000,-0.796875,0.3125,0.5
1630679020031,-0.796875,0.3125,0.5
1630679020062,-0.796875,0.3125,0.5
1630679020093,-0.796875,0.3125,0.515625
1630679020125,-0.796875,0.3125,0.515625
1630679020156,-0.796875,0.3125,0.515625
1630679020187,-0.796875,0.3125,0.5
1630679020218,-0.796875,0.3125,0.5
1630679020250,-0.796875,0.3125,0.5
1630679020281,-0.796875,0.328125,0.515625
1630679020312,-0.796875,0.3125,0.515625
1630679020343,-0.796875,0.3125,0.5
1630679020375,-0.796875,0.3125,0.5
1630679020406,-0.796875,0.3125,0.515625
1630679020437,-0.796875,0.3125,0.515625
1630679020468,-0.796875,0.3125,0.515625
1630679020500,-0.796875,0.3125,0.5
1630679020531,-0.796875,0.3125,0.5
1630679020562,-0.796875,0.3125,0.5
1630679020593,-0.8125,0.3125,0.5
1630679020625,-0.8125,0.3125,0.5
1630679020656,-0.796875,0.3125,0.5
1630679020687,-0.796875,0.3125,0.5
1630679020718,-0.8125,0.3125,0.546875
1630679020750,-0.8125,0.3125,0.46875
1630679020781,-0.828125,0.3125,0.484375
1630679020812,-0.796875,0.296875,0.5
1630679020843,-0.796875,0.296875,0.515625
1630679020875,-0.796875,0.296875,0.5
1630679020906,-0.796875,0.3125,0.5
1630679020937,-0.8125,0.3125,0.484375
1630679020968,-0.8125,0.3125,0.484375
1630679021000,-0.8125,0.3125,0.484375
1630679021031,-0.796875,0.28125,0.5
1630679021062,-0.796875,0.28125,0.5
1630679021093,-0.796875,0.28125,0.5
1630679021125,-0.8125,0.296875,0.515625
1630679021156,-0.8125,0.3125,0.5
1630679021187,-0.8125,0.296875,0.5
1630679021218,-0.796875,0.296875,0.5
1630679021250,-0.796875,0.296875,0.5
1630679021281,-0.796875,0.3125,0.5
1630679021312,-0.8125,0.3125,0.5
1630679021343,-0.8125,0.3125,0.5
1630679021375,-0.8125,0.3125,0.484375
1630679021406,-0.796875,0.3125,0.484375
1630679021437,-0.796875,0.296875,0.5
1630679021468,-0.796875,0.3125,0.5
1630679021500,-0.796875,0.3125,0.515625
1630679021531,-0.796875,0.3125,0.5
1630679021562,-0.796875,0.3125,0.5
1630679021593,-0.796875,0.3125,0.5
1630679021625,-0.796875,0.3125,0.484375
1630679021656,-0.796875,0.3125,0.515625
1630679021687,-0.796875,0.296875,0.5
1630679021718,-0.796875,0.296875,0.5
1630679021750,-0.796875,0.3125,0.515625
1630679021781,-0.796875,0.3125,0.515625
1630679021812,-0.796875,0.296875,0.5
1630679021843,-0.796875,0.296875,0.5
1630679021875,-0.796875,0.3125,0.5
1630679021906,-0.796875,0.3125,0.515625
1630679021937,-0.8125,0.3125,0.5
1630679021968,-0.796875,0.3125,0.5
1630679022000,-0.796875,0.3125,0.5
1630679022031,-0.796875,0.3125,0.5
1630679022062,-0.796875,0.3125,0.5
1630679022093,-0.796875,0.3125,0.5
1630679022125,-0.796875,0.3125,0.5
1630679022156,-0.796875,0.3125,0.5
1630679022187,-0.796875,0.3125,0.5
1630679022218,-0.796875,0.3125,0.515625
1630679022250,-0.796875,0.3125,0.515625
1630679022281,-0.796875,0.3125,0.5
1630679022312,-0.796875,0.3125,0.515625
1630679022343,-0.796875,0.3125,0.515625
1630679022375,-0.796875,0.3125,0.5
1630679022406,-0.796875,0.3125,0.5
1630679022437,-0.796875,0.3125,0.5
1630679022468,-0.796875,0.3125,0.5
1630679022500,-0.796875,0.3125,0.5
1630679022531,-0.796875,0.3125,0.515625
1630679022562,-0.796875,0.3125,0.515625
1630679022593,-0.796875,0.3125,0.5
1630679022625,-0.796875,0.3125,0.484375
1630679022656,-0.796875,0.328125,0.515625
1630679022687,-0.796875,0.3125,0.515625
1630679022718,-0.796875,0.3125,0.515625
1630679022750,-0.796875,0.3125,0.515625
1630679022781,-0.8125,0.3125,0.5
1630679022812,-0.8125,0.3125,0.5
1630679022843,-0.8125,0.3125,0.515625
1630679022875,-0.796875,0.296875,0.5
1630679022906,-0.796875,0.296875,0.5
1630679022937,-0.796875,0.3125,0.546875
1630679022968,-0.796875,0.296875,0.484375
1630679023000,-0.828125,0.3125,0.5
1630679023031,-0.8125,0.3125,0.484375
1630679023062,-0.796875,0.296875,0.5
1630679023093,-0.796875,0.3125,0.515625
1630679023125,-0.796875,0.3125,0.5
1630679023156,-0.796875,0.3125,0.5
1630679023187,-0.796875,0.3125,0.5
1630679023218,-0.796875,0.296875,0.484375
1630679023250,-0.8125,0.3125,0.5
1630679023281,-0.8125,0.3125,0.5
1630679023312,-0.796875,0.3125,0.515625
1630679023343,-0.796875,0.3125,0.5
1630679023375,-0.796875,0.3125,0.484375
1630679023406,-0.796875,0.3125,0.515625
1630679023437,-0.796875,0.3125,0.515625
1630679023468,-0.796875,0.3125,0.515625
1630679023500,-0.796875,0.3125,0.5
1630679023531,-0.796875,0.3125,0.515625
1630679023562,-0.796875,0.3125,0.515625
1630679023593,-0.796875,0.3125,0.5
1630679023625,-0.796875,0.3125,0.5
1630679023656,-0.796875,0.3125,0.5
1630679023687,-0.8125,0.3125,0.5
1630679023718,-0.8125,0.328125,0.546875
1630679023750,-0.765625,0.3125,0.515625
1630679023781,-0.796875,0.3125,0.5
1630679023812,-0.796875,0.3125,0.5
1630679023843,-0.78125,0.3125,0.515625
1630679023875,-0.78125,0.3125,0.515625
1630679023906,-0.796875,0.3125,0.515625
1630679023937,-0.796875,0.3125,0.515625
1630679023968,-0.796875,0.3125,0.484375
1630679024000,-0.796875,0.3125,0.515625
1630679024031,-0.78125,0.3125,0.53125
1630679024062,-0.796875,0.3125,0.53125
1630679024093,-0.78125,0.3125,0.515625
1630679024125,-0.78125,0.3125,0.515625
1630679024156,-0.78125,0.3125,0.515625
1630679024187,-0.78125,0.3125,0.515625
1630679024218,-0.78125,0.328125,0.515625
1630679024250,-0.796875,0.3125,0.515625
1630679024281,-0.796875,0.3125,0.515625
1630679024312,-0.796875,0.3125,0.515625
1630679024343,-0.796875,0.328125,0.515625
1630679024375,-0.796875,0.328125,0.515625
1630679024406,-0.78125,0.3125,0.515625
1630679024437,-0.796875,0.328125,0.515625
1630679024468,-0.78125,0.328125,0.515625
1630679024500,-0.78125,0.328125,0.515625
1630679024531,-0.796875,0.328125,0.515625
1630679024562,-0.78125,0.3125,0.5
1630679024593,-0.78125,0.3125,0.515625
1630679024625,-0.796875,0.328125,0.515625
1630679024656,-0.796875,0.328125,0.5
1630679024687,-0.796875,0.3125,0.5
1630679024718,-0.796875,0.328125,0.515625
1630679024750,-0.8125,0.3125,0.5
1630679024781,-0.796875,0.328125,0.5
1630679024812,-0.796875,0.3125,0.484375
1630679024843,-0.796875,0.3125,0.5
1630679024875,-0.8125,0.3125,0.515625
1630679024906,-0.796875,0.3125,0.484375
1630679024937,-0.8125,0.3125,0.5
1630679024968,-0.796875,0.3125,0.515625
1630679025000,-0.796875,0.3125,0.515625
1630679025031,-0.796875,0.3125,0.5
1630679025062,-0.796875,0.296875,0.484375
1630679025093,-0.796875,0.3125,0.5
1630679025125,-0.796875,0.3125,0.5
1630679025156,-0.796875,0.3125,0.5
1630679025187,-0.796875,0.3125,0.484375
1630679025218,-0.796875,0.296875,0.5
1630679025250,-0.8125,0.3125,0.5
1630679025281,-0.796875,0.328125,0.484375
1630679025312,-0.796875,0.3125,0.484375
1630679025343,-0.8125,0.3125,0.5
1630679025375,-0.796875,0.3125,0.515625
1630679025406,-0.796875,0.296875,0.5
1630679025437,-0.8125,0.296875,0.5
1630679025468,-0.796875,0.296875,0.5
1630679025500,-0.796875,0.3125,0.5
1630679025531,-0.8125,0.3125,0.5
1630679025562,-0.8125,0.3125,0.5
1630679025593,-0.796875,0.3125,0.5
1630679025625,-0.796875,0.3125,0.5
1630679025656,-0.796875,0.3125,0.484375
1630679025687,-0.8125,0.3125,0.484375
1630679025718,-0.8125,0.3125,0.5
1630679025750,-0.8125,0.3125,0.53125
1630679025781,-0.796875,0.296875,0.484375
1630679025812,-0.8125,0.3125,0.484375
1630679025843,-0.8125,0.296875,0.484375
1630679025875,-0.796875,0.3125,0.5
1630679025906,-0.796875,0.3125,0.5
1630679025937,-0.796875,0.3125,0.484375
1630679025968,-0.8125,0.3125,0.5
1630679026000,-0.796875,0.296875,0.5
1630679026031,-0.796875,0.296875,0.5
1630679026062,-0.8125,0.296875,0.5
1630679026093,-0.8125,0.3125,0.5
1630679026125,-0.796875,0.3125,0.5
1630679026156,-0.796875,0.296875,0.5
1630679026187,-0.796875,0.3125,0.5
1630679026218,-0.796875,0.3125,0.5
1630679026250,-0.8125,0.296875,0.5
1630679026281,-0.8125,0.3125,0.5
1630679026312,-0.796875,0.3125,0.5
1630679026343,-0.796875,0.3125,0.5
1630679026375,-0.796875,0.296875,0.515625
1630679026406,-0.8125,0.3125,0.5
1630679026437,-0.8125,0.3125,0.484375
1630679026468,-0.8125,0.3125,0.484375
1630679026500,-0.8125,0.3125,0.484375
1630679026531,-0.828125,0.3125,0.5
1630679026562,-0.8125,0.328125,0.5
1630679026593,-0.8125,0.328125,0.5
1630679026625,-0.796875,0.3125,0.484375
1630679026656,-0.796875,0.296875,0.5
1630679026687,-0.796875,0.28125,0.5
1630679026718,-0.828125,0.296875,0.46875
1630679026750,-0.828125,0.296875,0.484375
1630679026781,-0.8125,0.3125,0.5
1630679026812,-0.796875,0.3125,0.5
1630679026843,-0.796875,0.3125,0.484375
1630679026875,-0.796875,0.3125,0.484375
1630679026906,-0.796875,0.3125,0.484375
1630679026937,-0.8125,0.3125,0.5
1630679026968,-0.8125,0.3125,0.5
1630679027000,-0.8125,0.3125,0.5
1630679027031,-0.8125,0.296875,0.484375
1630679027062,-0.8125,0.296875,0.484375
1630679027093,-0.8125,0.296875,0.484375
1630679027125,-0.796875,0.296875,0.5
1630679027156,-0.796875,0.296875,0.5
1630679027187,-0.796875,0.3125,0.5
1630679027218,-0.796875,0.296875,0.5
1630679027250,-0.796875,0.3125,0.484375
1630679027281,-0.796875,0.3125,0.484375
1630679027312,-0.8125,0.3125,0.484375
1630679027343,-0.796875,0.3125,0.5
1630679027375,-0.8125,0.3125,0.5
1630679027406,-0.796875,0.3125,0.5
1630679027437,-0.796875,0.3125,0.5
1630679027468,-0.796875,0.3125,0.5
1630679027500,-0.796875,0.28125,0.46875
1630679027531,-0.796875,0.296875,0.484375
1630679027562,-0.8125,0.3125,0.515625
1630679027593,-0.78125,0.296875,0.5
1630679027625,-0.796875,0.296875,0.5
1630679027656,-0.8125,0.3125,0.5
1630679027687,-0.796875,0.3125,0.515625
1630679027718,-0.796875,0.3125,0.515625
1630679027750,-0.796875,0.3125,0.515625
1630679027781,-0.796875,0.3125,0.515625
1630679027812,-0.796875,0.3125,0.515625
1630679027843,-0.796875,0.3125,0.515625
1630679027875,-0.796875,0.3125,0.515625
1630679027906,-0.796875,0.3125,0.515625
1630679027937,-0.796875,0.3125,0.515625
1630679027968,-0.796875,0.3125,0.53125
1630679028000,-0.78125,0.3125,0.515625
1630679028031,-0.78125,0.3125,0.515625
1630679028062,-0.796875,0.328125,0.515625
1630679028093,-0.796875,0.3125,0.515625
1630679028125,-0.78125,0.3125,0.515625
1630679028156,-0.796875,0.328125,0.515625
1630679028187,-0.796875,0.328125,0.53125
1630679028218,-0.796875,0.328125,0.515625
1630679028250,-0.796875,0.3125,0.515625
1630679028281,-0.78125,0.3125,0.53125
1630679028312,-0.796875,0.296875,0.484375
1630679028343,-0.8125,0.3125,0.484375
1630679028375,-0.796875,0.3125,0.515625
1630679028406,-0.796875,0.3125,0.515625
1630679028437,-0.796875,0.296875,0.484375
1630679028468,-0.8125,0.3125,0.484375
1630679028500,-0.796875,0.3125,0.5
1630679028531,-0.796875,0.3125,0.515625
1630679028562,-0.796875,0.3125,0.5
1630679028593,-0.8125,0.3125,0.5
1630679028625,-0.796875,0.296875,0.484375
1630679028656,-0.8125,0.328125,0.5625
1630679028687,-0.796875,0.296875,0.484375
1630679028718,-0.8125,0.3125,0.5
1630679028750,-0.8125,0.3125,0.484375
1630679028781,-0.796875,0.3125,0.5
1630679028812,-0.796875,0.3125,0.5
1630679028843,-0.796875,0.3125,0.484375
1630679028875,-0.796875,0.3125,0.5
1630679028906,-0.796875,0.296875,0.5
1630679028937,-0.796875,0.3125,0.5
1630679028968,-0.796875,0.3125,0.5
1630679029000,-0.8125,0.328125,0.5
1630679029031,-0.796875,0.3125,0.5
1630679029062,-0.8125,0.296875,0.484375
1630679029093,-0.8125,0.296875,0.484375
1630679029125,-0.8125,0.3125,0.5
1630679029156,-0.8125,0.296875,0.5
1630679029187,-0.796875,0.296875,0.5
1630679029218,-0.796875,0.296875,0.5
1630679029250,-0.8125,0.296875,0.5
1630679029281,-0.796875,0.296875,0.5
1630679029312,-0.796875,0.296875,0.484375
1630679029343,-0.8125,0.3125,0.484375
1630679029375,-0.8125,0.3125,0.5
1630679029406,-0.8125,0.3125,0.5
1630679029437,-0.796875,0.3125,0.484375
1630679029468,-0.796875,0.3125,0.5
1630679029500,-0.796875,0.3125,0.484375
1630679029531,-0.796875,0.3125,0.5
1630679029562,-0.796875,0.3125,0.515625
1630679029593,-0.796875,0.3125,0.5
1630679029625,-0.796875,0.3125,0.484375
1630679029656,-0.796875,0.3125,0.5
1630679029687,-0.796875,0.3125,0.515625
1630679029718,-0.796875,0.3125,0.515625
1630679029750,-0.796875,0.3125,0.5
1630679029781,-0.796875,0.3125,0.515625
1630679029812,-0.796875,0.3125,0.515625
1630679029843,-0.796875,0.3125,0.515625
1630679029875,-0.796875,0.3125,0.5
1630679029906,-0.796875,0.3125,0.5
1630679029937,-0.796875,0.3125,0.5
1630679029968,-0.796875,0.3125,0.515625
1630679030000,-0.796875,0.328125,0.515625
1630679030031,-0.78125,0.3125,0.515625
1630679030062,-0.796875,0.3125,0.5
1630679030093,-0.796875,0.3125,0.5
1630679030125,-0.8125,0.3125,0.515625
1630679030156,-0.796875,0.3125,0.515625
1630679030187,-0.796875,0.3125,0.5
1630679030218,-0.8125,0.3125,0.53125
1630679030250,-0.796875,0.3125,0.46875
1630679030281,-0.8125,0.296875,0.46875
1630679030312,-0.828125,0.3125,0.484375
1630679030343,-0.8125,0.3125,0.484375
1630679030375,-0.8125,0.3125,0.484375
1630679030406,-0.796875,0.296875,0.5
1630679030437,-0.796875,0.3125,0.5
1630679030468,-0.8125,0.3125,0.5
1630679030500,-0.8125,0.3125,0.5
1630679030531,-0.8125,0.3125,0.484375
1630679030562,-0.8125,0.3125,0.484375
1630679030593,-0.8125,0.3125,0.484375
1630679030625,-0.8125,0.3125,0.484375
1630679030656,-0.8125,0.3125,0.484375
1630679030687,-0.8125,0.3125,0.5
1630679030718,-0.8125,0.3125,0.5
1630679030750,-0.796875,0.3125,0.484375
1630679030781,-0.8125,0.3125,0.484375
1630679030812,-0.8125,0.3125,0.5
1630679030843,-0.796875,0.3125,0.5
1630679030875,-0.796875,0.3125,0.5
1630679030906,-0.796875,0.3125,0.5
1630679030937,-0.796875,0.3125,0.484375
1630679030968,-0.8125,0.3125,0.484375
1630679031000,-0.8125,0.3125,0.484375
1630679031031,-0.796875,0.3125,0.515625
1630679031062,-0.796875,0.3125,0.515625
1630679031093,-0.796875,0.3125,0.5
1630679031125,-0.796875,0.3125,0.515625
1630679031156,-0.796875,0.3125,0.484375
1630679031187,-0.796875,0.3125,0.5
1630679031218,-0.796875,0.3125,0.5
1630679031250,-0.796875,0.3125,0.5
1630679031281,-0.8125,0.328125,0.53125
1630679031312,-0.8125,0.3125,0.5
1630679031343,-0.78125,0.3125,0.515625
1630679031375,-0.796875,0.3125,0.515625
1630679031406,-0.8125,0.3125,0.5
1630679031437,-0.796875,0.3125,0.5
1630679031468,-0.796875,0.3125,0.5
1630679031500,-0.796875,0.3125,0.515625
1630679031531,-0.78125,0.3125,0.484375
1630679031562,-0.796875,0.3125,0.515625
1630679031593,-0.78125,0.3125,0.515625
1630679031625,-0.796875,0.3125,0.515625
1630679031656,-0.8125,0.3125,0.5
1630679031687,-0.78125,0.3125,0.515625
1630679031718,-0.78125,0.328125,0.53125
1630679031750,-0.8125,0.3125,0.5
1630679031781,-0.828125,0.3125,0.515625
1630679031812,-0.796875,0.3125,0.515625
1630679031843,-0.796875,0.3125,0.515625
1630679031875,-0.8125,0.328125,0.515625
1630679031906,-0.796875,0.3125,0.484375
1630679031937,-0.8125,0.3125,0.46875
1630679031968,-0.8125,0.3125,0.5
1630679032000,-0.796875,0.3125,0.515625
1630679032031,-0.796875,0.3125,0.5
1630679032062,-0.796875,0.296875,0.5
1630679032093,-0.796875,0.296875,0.5
1630679032125,-0.8125,0.3125,0.5
1630679032156,-0.796875,0.296875,0.484375
1630679032187,-0.8125,0.34375,0.5625
1630679032218,-0.796875,0.296875,0.5
1630679032250,-0.8125,0.296875,0.46875
1630679032281,-0.8125,0.3125,0.484375
1630679032312,-0.796875,0.3125,0.5
1630679032343,-0.796875,0.3125,0.5
1630679032375,-0.8125,0.3125,0.484375
1630679032406,-0.8125,0.3125,0.484375
1630679032437,-0.8125,0.3125,0.484375
1630679032468,-0.8125,0.3125,0.53125
1630679032500,-0.796875,0.296875,0.484375
1630679032531,-0.8125,0.296875,0.484375
1630679032562,-0.8125,0.296875,0.46875
1630679032593,-0.8125,0.296875,0.484375
1630679032625,-0.796875,0.296875,0.5
1630679032656,-0.796875,0.296875,0.5
1630679032687,-0.8125,0.296875,0.484375
1630679032718,-0.8125,0.3125,0.484375
1630679032750,-0.8125,0.3125,0.484375
1630679032781,-0.8125,0.3125,0.5
1630679032812,-0.8125,0.3125,0.484375
1630679032843,-0.8125,0.3125,0.484375
1630679032875,-0.8125,0.3125,0.484375
1630679032906,-0.8125,0.3125,0.484375
1630679032937,-0.8125,0.3125,0.5
1630679032968,-0.8125,0.3125,0.5
1630679033000,-0.8125,0.3125,0.5
1630679033031,-0.796875,0.296875,0.5
1630679033062,-0.8125,0.3125,0.5
1630679033093,-0.796875,0.3125,0.5
1630679033125,-0.796875,0.3125,0.5
1630679033156,-0.8125,0.3125,0.484375
1630679033187,-0.8125,0.3125,0.5
1630679033218,-0.796875,0.296875,0.484375
1630679033250,-0.796875,0.296875,0.484375
1630679033281,-0.796875,0.3125,0.515625
1630679033312,-0.796875,0.3125,0.5
1630679033343,-0.796875,0.3125,0.5
1630679033375,-0.796875,0.3125,0.5
1630679033406,-0.796875,0.3125,0.5
1630679033437,-0.796875,0.3125,0.5
1630679033468,-0.796875,0.3125,0.5
1630679033500,-0.8125,0.3125,0.484375
1630679033531,-0.796875,0.3125,0.5
1630679033562,-0.8125,0.3125,0.5
1630679033593,-0.796875,0.3125,0.5
1630679033625,-0.796875,0.3125,0.5
1630679033656,-0.796875,0.3125,0.5
1630679033687,-0.796875,0.3125,0.5
1630679033718,-0.796875,0.3125,0.5
1630679033750,-0.796875,0.296875,0.5
1630679033781,-0.796875,0.3125,0.5
1630679033812,-0.796875,0.3125,0.5
1630679033843,-0.8125,0.3125,0.5
1630679033875,-0.796875,0.3125,0.5
1630679033906,-0.796875,0.3125,0.484375
1630679033937,-0.796875,0.3125,0.484375
1630679033968,-0.796875,0.328125,0.484375
1630679034000,-0.796875,0.3125,0.484375
1630679034031,-0.796875,0.3125,0.5
1630679034062,-0.796875,0.296875,0.515625
1630679034093,-0.796875,0.3125,0.515625
1630679034125,-0.796875,0.3125,0.515625
1630679034156,-0.796875,0.3125,0.515625
1630679034187,-0.78125,0.3125,0.515625
1630679034218,-0.796875,0.3125,0.5
1630679034250,-0.796875,0.3125,0.484375
1630679034281,-0.8125,0.3125,0.484375
1630679034312,-0.796875,0.328125,0.5
1630679034343,-0.8125,0.328125,0.5
1630679034375,-0.796875,0.3125,0.5
1630679034406,-0.796875,0.3125,0.5
1630679034437,-0.796875,0.3125,0.5
1630679034468,-0.796875,0.3125,0.5
1630679034500,-0.796875,0.3125,0.5
1630679034531,-0.796875,0.3125,0.5
1630679034562,-0.796875,0.3125,0.5
1630679034593,-0.796875,0.3125,0.484375
1630679034625,-0.796875,0.3125,0.5
1630679034656,-0.796875,0.3125,0.484375
1630679034687,-0.8125,0.3125,0.484375
1630679034718,-0.796875,0.3125,0.5
1630679034750,-0.8125,0.3125,0.5
1630679034781,-0.796875,0.3125,0.5
1630679034812,-0.796875,0.3125,0.5
1630679034843,-0.796875,0.3125,0.515625
1630679034875,-0.796875,0.328125,0.5
1630679034906,-0.796875,0.328125,0.5
1630679034937,-0.796875,0.328125,0.484375
1630679034968,-0.796875,0.328125,0.484375
1630679035000,-0.796875,0.328125,0.5
1630679035031,-0.796875,0.328125,0.484375
1630679035062,-0.796875,0.328125,0.5
1630679035093,-0.796875,0.3125,0.5
1630679035125,-0.796875,0.3125,0.5
1630679035156,-0.796875,0.328125,0.5
1630679035187,-0.796875,0.328125,0.515625
1630679035218,-0.796875,0.328125,0.5
1630679035250,-0.796875,0.328125,0.515625
1630679035281,-0.796875,0.328125,0.5
1630679035312,-0.796875,0.328125,0.484375
1630679035343,-0.796875,0.328125,0.5
1630679035375,-0.796875,0.328125,0.5
1630679035406,-0.796875,0.328125,0.515625
1630679035437,-0.796875,0.328125,0.515625
1630679035468,-0.796875,0.328125,0.515625
1630679035500,-0.796875,0.328125,0.515625
1630679035531,-0.796875,0.328125,0.515625
1630679035562,-0.78125,0.328125,0.515625
1630679035593,-0.796875,0.3125,0.5
1630679035625,-0.796875,0.3125,0.484375
1630679035656,-0.796875,0.328125,0.484375
1630679035687,-0.8125,0.3125,0.484375
1630679035718,-0.796875,0.3125,0.5
1630679035750,-0.796875,0.3125,0.5
1630679035781,-0.796875,0.3125,0.5
1630679035812,-0.796875,0.3125,0.5
1630679035843,-0.796875,0.34375,0.546875
1630679035875,-0.796875,0.3125,0.484375
1630679035906,-0.8125,0.3125,0.484375
1630679035937,-0.8125,0.3125,0.484375
1630679035968,-0.796875,0.3125,0.5
1630679036000,-0.796875,0.3125,0.5
1630679036031,-0.796875,0.3125,0.5
1630679036062,-0.796875,0.328125,0.5
1630679036093,-0.796875,0.328125,0.5
1630679036125,-0.796875,0.328125,0.5
1630679036156,-0.796875,0.328125,0.5
1630679036187,-0.796875,0.328125,0.5
1630679036218,-0.796875,0.328125,0.484375
1630679036250,-0.796875,0.328125,0.5
1630679036281,-0.796875,0.328125,0.5
1630679036312,-0.796875,0.328125,0.515625
1630679036343,-0.796875,0.328125,0.515625
1630679036375,-0.796875,0.328125,0.515625
1630679036406,-0.796875,0.328125,0.5
1630679036437,-0.78125,0.328125,0.5
1630679036468,-0.796875,0.328125,0.515625
1630679036500,-0.796875,0.3125,0.5
1630679036531,-0.78125,0.3125,0.515625
1630679036562,-0.78125,0.3125,0.515625
1630679036593,-0.78125,0.3125,0.53125
1630679036625,-0.78125,0.3125,0.515625
1630679036656,-0.765625,0.328125,0.515625
1630679036687,-0.8125,0.328125,0.5
1630679036718,-0.796875,0.328125,0.5
1630679036750,-0.796875,0.34375,0.515625
1630679036781,-0.78125,0.328125,0.515625
1630679036812,-0.796875,0.328125,0.5
1630679036843,-0.796875,0.328125,0.5
1630679036875,-0.78125,0.34375,0.515625
1630679036906,-0.796875,0.328125,0.515625
1630679036937,-0.796875,0.328125,0.5
1630679036968,-0.796875,0.328125,0.5
1630679037000,-0.78125,0.328125,0.515625
1630679037031,-0.796875,0.328125,0.515625
1630679037062,-0.796875,0.328125,0.5
1630679037093,-0.796875,0.328125,0.5
1630679037125,-0.796875,0.328125,0.5
1630679037156,-0.796875,0.328125,0.515625
1630679037187,-0.796875,0.328125,0.515625
1630679037218,-0.796875,0.328125,0.515625
1630679037250,-0.796875,0.328125,0.5
1630679037281,-0.796875,0.328125,0.5
1630679037312,-0.796875,0.328125,0.515625
1630679037343,-0.796875,0.328125,0.5
1630679037375,-0.796875,0.328125,0.5
1630679037406,-0.796875,0.328125,0.515625
1630679037437,-0.796875,0.328125,0.515625
1630679037468,-0.78125,0.328125,0.5
1630679037500,-0.796875,0.328125,0.515625
1630679037531,-0.796875,0.328125,0.5
1630679037562,-0.796875,0.328125,0.5
1630679037593,-0.796875,0.328125,0.5
1630679037625,-0.796875,0.328125,0.515625
1630679037656,-0.796875,0.328125,0.515625
1630679037687,-0.796875,0.328125,0.5
1630679037718,-0.796875,0.328125,0.5
1630679037750,-0.796875,0.328125,0.515625
1630679037781,-0.796875,0.328125,0.5
1630679037812,-0.796875,0.328125,0.5
1630679037843,-0.78125,0.328125,0.5
1630679037875,-0.796875,0.328125,0.5
1630679037906,-0.796875,0.328125,0.5
1630679037937,-0.796875,0.328125,0.515625
1630679037968,-0.796875,0.328125,0.515625
1630679038000,-0.796875,0.328125,0.515625
1630679038031,-0.796875,0.328125,0.515625
1630679038062,-0.796875,0.328125,0.515625
1630679038093,-0.796875,0.328125,0.5
1630679038125,-0.796875,0.328125,0.5
1630679038156,-0.78125,0.328125,0.515625
1630679038187,-0.78125,0.328125,0.515625
1630679038218,-0.796875,0.328125,0.515625
1630679038250,-0.796875,0.328125,0.515625
1630679038281,-0.78125,0.328125,0.5
1630679038312,-0.796875,0.328125,0.5
1630679038343,-0.796875,0.328125,0.5
1630679038375,-0.796875,0.328125,0.515625
1630679038406,-0.78125,0.328125,0.5
1630679038437,-0.796875,0.328125,0.515625
1630679038468,-0.78125,0.328125,0.5
1630679038500,-0.796875,0.328125,0.5
1630679038531,-0.796875,0.328125,0.5
1630679038562,-0.796875,0.328125,0.5
1630679038593,-0.78125,0.328125,0.515625
1630679038625,-0.796875,0.328125,0.515625
1630679038656,-0.796875,0.328125,0.515625
1630679038687,-0.796875,0.328125,0.515625
1630679038718,-0.796875,0.328125,0.5
1630679038750,-0.796875,0.328125,0.5
1630679038781,-0.78125,0.328125,0.515625
1630679038812,-0.796875,0.328125,0.515625
1630679038843,-0.796875,0.328125,0.5
1630679038875,-0.796875,0.328125,0.5
1630679038906,-0.796875,0.328125,0.5
1630679038937,-0.796875,0.328125,0.5
1630679038968,-0.796875,0.328125,0.5
1630679039000,-0.796875,0.328125,0.5
1630679039031,-0.796875,0.328125,0.515625
1630679039062,-0.796875,0.34375,0.515625
1630679039093,-0.796875,0.328125,0.515625
1630679039125,-0.78125,0.328125,0.5
1630679039156,-0.796875,0.328125,0.5
1630679039187,-0.796875,0.328125,0.5
1630679039218,-0.796875,0.328125,0.5
1630679039250,-0.796875,0.328125,0.515625
1630679039281,-0.796875,0.328125,0.515625
1630679039312,-0.796875,0.328125,0.5
1630679039343,-0.796875,0.328125,0.5
1630679039375,-0.796875,0.328125,0.515625
1630679039406,-0.796875,0.328125,0.515625
1630679039437,-0.796875,0.328125,0.515625
1630679039468,-0.796875,0.328125,0.5
1630679039500,-0.796875,0.328125,0.5
1630679039531,-0.796875,0.328125,0.5
1630679039562,-0.796875,0.328125,0.5
1630679039593,-0.796875,0.328125,0.5
1630679039625,-0.796875,0.328125,0.5
1630679039656,-0.796875,0.328125,0.5
1630679039687,-0.796875,0.328125,0.5
1630679039718,-0.796875,0.328125,0.5
1630679039750,-0.796875,0.34375,0.515625
1630679039781,-0.796875,0.328125,0.515625
1630679039812,-0.796875,0.328125,0.5
1630679039843,-0.78125,0.328125,0.5
1630679039875,-0.796875,0.328125,0.5
1630679039906,-0.796875,0.328125,0.5
1630679039937,-0.796875,0.328125,0.515625
1630679039968,-0.796875,0.328125,0.5
1630679040000,-0.796875,0.328125,0.515625
1630679040031,-0.796875,0.328125,0.5
1630679040062,-0.796875,0.328125,0.515625
1630679040093,-0.796875,0.328125,0.515625
1630679040125,-0.796875,0.328125,0.515625
1630679040156,-0.796875,0.328125,0.5
1630679040187,-0.796875,0.328125,0.5
1630679040218,-0.796875,0.328125,0.5
1630679040250,-0.796875,0.328125,0.5
1630679040281,-0.796875,0.328125,0.5
1630679040312,-0.796875,0.328125,0.5
1630679040343,-0.796875,0.328125,0.5
1630679040375,-0.796875,0.328125,0.5
1630679040406,-0.796875,0.328125,0.515625
1630679040437,-0.796875,0.328125,0.5
1630679040468,-0.796875,0.328125,0.515625
1630679040500,-0.796875,0.328125,0.5
1630679040531,-0.796875,0.328125,0.5
1630679040562,-0.796875,0.328125,0.5
1630679040593,-0.796875,0.328125,0.5
1630679040625,-0.796875,0.328125,0.5
1630679040656,-0.796875,0.328125,0.5
1630679040687,-0.796875,0.328125,0.515625
1630679040718,-0.796875,0.328125,0.5
1630679040750,-0.796875,0.328125,0.5
1630679040781,-0.796875,0.328125,0.5
1630679040812,-0.796875,0.328125,0.5
1630679040843,-0.796875,0.328125,0.5
1630679040875,-0.796875,0.328125,0.5
1630679040906,-0.796875,0.328125,0.5
1630679040937,-0.796875,0.328125,0.5
1630679040968,-0.796875,0.328125,0.5
1630679041000,-0.796875,0.328125,0.5
1630679041031,-0.796875,0.328125,0.5
1630679041062,-0.796875,0.328125,0.5
1630679041093,-0.796875,0.328125,0.5
1630679041125,-0.796875,0.328125,0.5
1630679041156,-0.796875,0.328125,0.515625
1630679041187,-0.796875,0.328125,0.5
1630679041218,-0.796875,0.328125,0.5
1630679041250,-0.796875,0.328125,0.515625
1630679041281,-0.796875,0.328125,0.515625
1630679041312,-0.796875,0.328125,0.5
1630679041343,-0.796875,0.328125,0.5
1630679041375,-0.796875,0.328125,0.5
1630679041406,-0.796875,0.328125,0.5
1630679041437,-0.796875,0.328125,0.5
1630679041468,-0.796875,0.328125,0.515625
1630679041500,-0.796875,0.328125,0.5
1630679041531,-0.796875,0.328125,0.5
1630679041562,-0.796875,0.328125,0.5
1630679041593,-0.796875,0.328125,0.515625
1630679041625,-0.796875,0.328125,0.5
1630679041656,-0.796875,0.328125,0.5
1630679041687,-0.796875,0.328125,0.5
1630679041718,-0.796875,0.328125,0.5
1630679041750,-0.796875,0.328125,0.5
1630679041781,-0.796875,0.328125,0.5
1630679041812,-0.796875,0.328125,0.5
1630679041843,-0.796875,0.328125,0.5
1630679041875,-0.796875,0.328125,0.5
1630679041906,-0.796875,0.328125,0.515625
1630679041937,-0.796875,0.328125,0.5
1630679041968,-0.796875,0.328125,0.5
1630679042000,-0.796875,0.328125,0.5
1630679042031,-0.796875,0.328125,0.515625
1630679042062,-0.78125,0.328125,0.5
1630679042093,-0.796875,0.328125,0.5
1630679042125,-0.796875,0.328125,0.515625
1630679042156,-0.796875,0.328125,0.515625
1630679042187,-0.796875,0.328125,0.5
1630679042218,-0.796875,0.328125,0.5
1630679042250,-0.796875,0.328125,0.5
1630679042281,-0.796875,0.328125,0.5
1630679042312,-0.796875,0.328125,0.5
1630679042343,-0.796875,0.328125,0.5
1630679042375,-0.796875,0.328125,0.5
1630679042406,-0.796875,0.328125,0.515625
1630679042437,-0.796875,0.328125,0.5
1630679042468,-0.796875,0.328125,0.5
1630679042500,-0.796875,0.328125,0.5
1630679042531,-0.796875,0.328125,0.5
1630679042562,-0.796875,0.328125,0.5
1630679042593,-0.796875,0.328125,0.5
1630679042625,-0.796875,0.328125,0.5
1630679042656,-0.796875,0.328125,0.515625
1630679042687,-0.78125,0.328125,0.5
1630679042718,-0.796875,0.328125,0.5
1630679042750,-0.796875,0.328125,0.515625
1630679042781,-0.796875,0.328125,0.5
1630679042812,-0.796875,0.328125,0.515625
1630679042843,-0.796875,0.328125,0.5
1630679042875,-0.796875,0.328125,0.5
1630679042906,-0.796875,0.328125,0.5
1630679042937,-0.796875,0.328125,0.5
1630679042968,-0.796875,0.328125,0.515625
1630679043000,-0.796875,0.328125,0.5
1630679043031,-0.796875,0.328125,0.515625
1630679043062,-0.796875,0.328125,0.5
1630679043093,-0.796875,0.328125,0.515625
1630679043125,-0.796875,0.328125,0.5
1630679043156,-0.796875,0.328125,0.5
1630679043187,-0.796875,0.328125,0.5
1630679043218,-0.796875,0.328125,0.515625
1630679043250,-0.796875,0.328125,0.515625
1630679043281,-0.796875,0.328125,0.5
1630679043312,-0.796875,0.328125,0.5
1630679043343,-0.796875,0.328125,0.5
1630679043375,-0.796875,0.328125,0.5
1630679043406,-0.796875,0.328125,0.515625
1630679043437,-0.78125,0.328125,0.5
1630679043468,-0.796875,0.328125,0.5
1630679043500,-0.796875,0.328125,0.5
1630679043531,-0.796875,0.328125,0.5
1630679043562,-0.796875,0.328125,0.5
1630679043593,-0.796875,0.328125,0.5
1630679043625,-0.796875,0.328125,0.5
1630679043656,-0.796875,0.328125,0.5
1630679043687,-0.796875,0.328125,0.5
1630679043718,-0.796875,0.328125,0.515625
1630679043750,-0.796875,0.328125,0.5
1630679043781,-0.796875,0.328125,0.5
1630679043812,-0.796875,0.328125,0.5
1630679043843,-0.796875,0.328125,0.5
1630679043875,-0.796875,0.328125,0.5
1630679043906,-0.78125,0.328125,0.5
1630679043937,-0.796875,0.328125,0.5
1630679043968,-0.796875,0.328125,0.5
1630679044000,-0.796875,0.328125,0.5
1630679044031,-0.796875,0.328125,0.515625
1630679044062,-0.796875,0.328125,0.515625
1630679044093,-0.796875,0.328125,0.5
1630679044125,-0.796875,0.328125,0.5
1630679044156,-0.78125,0.328125,0.5
1630679044187,-0.78125,0.328125,0.5
1630679044218,-0.796875,0.328125,0.5
1630679044250,-0.796875,0.328125,0.5
1630679044281,-0.78125,0.328125,0.5
1630679044312,-0.796875,0.328125,0.515625
1630679044343,-0.796875,0.328125,0.5
1630679044375,-0.796875,0.328125,0.5
1630679044406,-0.796875,0.328125,0.5
1630679044437,-0.796875,0.328125,0.515625
1630679044468,-0.78125,0.328125,0.515625
1630679044500,-0.796875,0.328125,0.5
1630679044531,-0.796875,0.328125,0.515625
1630679044562,-0.796875,0.328125,0.515625
1630679044593,-0.796875,0.328125,0.5
1630679044625,-0.796875,0.328125,0.5
1630679044656,-0.796875,0.328125,0.5
1630679044687,-0.796875,0.328125,0.5
1630679044718,-0.796875,0.328125,0.5
1630679044750,-0.796875,0.328125,0.515625
1630679044781,-0.796875,0.328125,0.515625
1630679044812,-0.796875,0.328125,0.5
1630679044843,-0.796875,0.328125,0.515625
1630679044875,-0.796875,0.328125,0.5
1630679044906,-0.78125,0.328125,0.515625
1630679044937,-0.796875,0.328125,0.515625
1630679044968,-0.796875,0.328125,0.515625
1630679045000,-0.796875,0.328125,0.515625
1630679045031,-0.796875,0.328125,0.515625
1630679045062,-0.78125,0.328125,0.5
1630679045093,-0.796875,0.328125,0.5
1630679045125,-0.796875,0.328125,0.5
1630679045156,-0.796875,0.328125,0.515625
1630679045187,-0.796875,0.328125,0.5
1630679045218,-0.78125,0.328125,0.515625
1630679045250,-0.78125,0.328125,0.5
1630679045281,-0.78125,0.328125,0.515625
1630679045312,-0.796875,0.328125,0.5
1630679045343,-0.796875,0.328125,0.515625
1630679045375,-0.796875,0.328125,0.515625
1630679045406,-0.796875,0.328125,0.5
1630679045437,-0.796875,0.328125,0.5
1630679045468,-0.78125,0.328125,0.5
1630679045500,-0.796875,0.328125,0.515625
1630679045531,-0.796875,0.328125,0.5
1630679045562,-0.796875,0.328125,0.5
1630679045593,-0.796875,0.328125,0.5
1630679045625,-0.796875,0.328125,0.5
1630679045656,-0.78125,0.328125,0.5
1630679045687,-0.78125,0.328125,0.5
1630679045718,-0.796875,0.328125,0.5
1630679045750,-0.796875,0.328125,0.5
1630679045781,-0.78125,0.328125,0.515625
1630679045812,-0.796875,0.328125,0.5
1630679045843,-0.796875,0.328125,0.5
1630679045875,-0.796875,0.328125,0.5
1630679045906,-0.796875,0.328125,0.515625
1630679045937,-0.796875,0.328125,0.515625
1630679045968,-0.78125,0.328125,0.515625
1630679046000,-0.796875,0.328125,0.515625
1630679046031,-0.78125,0.328125,0.5
1630679046062,-0.796875,0.328125,0.515625
1630679046093,-0.796875,0.328125,0.5
1630679046125,-0.796875,0.328125,0.5
1630679046156,-0.796875,0.328125,0.5
1630679046187,-0.796875,0.328125,0.515625
1630679046218,-0.796875,0.328125,0.5
1630679046250,-0.796875,0.328125,0.5
1630679046281,-0.796875,0.328125,0.5
1630679046312,-0.796875,0.328125,0.5
1630679046343,-0.796875,0.328125,0.5
1630679046375,-0.78125,0.328125,0.515625
1630679046406,-0.796875,0.328125,0.515625
1630679046437,-0.796875,0.328125,0.515625
1630679046468,-0.796875,0.328125,0.515625
1630679046500,-0.78125,0.328125,0.515625
1630679046531,-0.796875,0.328125,0.5
1630679046562,-0.796875,0.328125,0.5
1630679046593,-0.796875,0.328125,0.5
1630679046625,-0.796875,0.328125,0.5
1630679046656,-0.796875,0.328125,0.5
1630679046687,-0.78125,0.328125,0.515625
1630679046718,-0.796875,0.328125,0.515625
1630679046750,-0.796875,0.328125,0.5
1630679046781,-0.796875,0.328125,0.515625
1630679046812,-0.796875,0.328125,0.5
1630679046843,-0.796875,0.328125,0.5
1630679046875,-0.78125,0.328125,0.5
1630679046906,-0.796875,0.328125,0.5
1630679046937,-0.796875,0.328125,0.515625
1630679046968,-0.796875,0.328125,0.5
1630679047000,-0.796875,0.328125,0.5
1630679047031,-0.796875,0.328125,0.5
1630679047062,-0.796875,0.328125,0.5
1630679047093,-0.796875,0.328125,0.5
1630679047125,-0.796875,0.328125,0.515625
1630679047156,-0.796875,0.328125,0.515625
1630679047187,-0.796875,0.328125,0.5
1630679047218,-0.796875,0.328125,0.5
1630679047250,-0.796875,0.328125,0.5
1630679047281,-0.78125,0.328125,0.5
1630679047312,-0.78125,0.328125,0.5
1630679047343,-0.796875,0.328125,0.515625
1630679047375,-0.796875,0.328125,0.515625
1630679047406,-0.796875,0.328125,0.5
1630679047437,-0.796875,0.328125,0.515625
1630679047468,-0.796875,0.328125,0.515625
1630679047500,-0.796875,0.328125,0.5
1630679047531,-0.796875,0.328125,0.5
1630679047562,-0.796875,0.328125,0.515625
1630679047593,-0.796875,0.328125,0.515625
1630679047625,-0.796875,0.328125,0.5
1630679047656,-0.796875,0.328125,0.5
1630679047687,-0.78125,0.328125,0.515625
1630679047718,-0.796875,0.328125,0.5
1630679047750,-0.796875,0.328125,0.5
1630679047781,-0.796875,0.328125,0.5
1630679047812,-0.796875,0.328125,0.5
1630679047843,-0.796875,0.328125,0.5
1630679047875,-0.796875,0.328125,0.5
1630679047906,-0.796875,0.328125,0.5
1630679047937,-0.796875,0.328125,0.5
1630679047968,-0.796875,0.328125,0.515625
1630679048000,-0.796875,0.328125,0.5
1630679048031,-0.796875,0.328125,0.5
1630679048062,-0.796875,0.328125,0.5
1630679048093,-0.796875,0.328125,0.515625
1630679048125,-0.796875,0.328125,0.5
1630679048156,-0.796875,0.328125,0.5
1630679048187,-0.796875,0.328125,0.5
1630679048218,-0.796875,0.328125,0.515625
1630679048250,-0.796875,0.328125,0.515625
1630679048281,-0.796875,0.328125,0.515625
1630679048312,-0.796875,0.328125,0.5
1630679048343,-0.796875,0.328125,0.515625
1630679048375,-0.796875,0.328125,0.515625
1630679048406,-0.796875,0.328125,0.5
1630679048437,-0.78125,0.328125,0.5
1630679048468,-0.78125,0.328125,0.5
1630679048500,-0.796875,0.328125,0.5
1630679048531,-0.78125,0.328125,0.515625
1630679048562,-0.796875,0.328125,0.515625
1630679048593,-0.796875,0.328125,0.5
1630679048625,-0.796875,0.328125,0.5
1630679048656,-0.78125,0.328125,0.5
1630679048687,-0.796875,0.328125,0.5
1630679048718,-0.796875,0.328125,0.5
1630679048750,-0.796875,0.328125,0.515625
1630679048781,-0.796875,0.328125,0.515625
1630679048812,-0.78125,0.328125,0.515625
1630679048843,-0.796875,0.328125,0.515625
1630679048875,-0.796875,0.328125,0.5
1630679048906,-0.796875,0.328125,0.515625
1630679048937,-0.78125,0.328125,0.515625
1630679048968,-0.796875,0.328125,0.5
1630679049000,-0.78125,0.328125,0.5
1630679049031,-0.796875,0.328125,0.5
1630679049062,-0.796875,0.328125,0.515625
1630679049093,-0.796875,0.328125,0.515625
1630679049125,-0.78125,0.328125,0.515625
1630679049156,-0.78125,0.328125,0.515625
1630679049187,-0.78125,0.328125,0.515625
1630679049218,-0.796875,0.328125,0.515625
1630679049250,-0.796875,0.328125,0.5
1630679049281,-0.796875,0.328125,0.5
1630679049312,-0.796875,0.328125,0.515625
1630679049343,-0.796875,0.328125,0.5
1630679049375,-0.796875,0.328125,0.5
1630679049406,-0.796875,0.328125,0.5
1630679049437,-0.796875,0.328125,0.5
1630679049468,-0.78125,0.328125,0.515625
1630679049500,-0.796875,0.328125,0.5
1630679049531,-0.796875,0.328125,0.5
1630679049562,-0.78125,0.328125,0.515625
1630679049593,-0.78125,0.328125,0.5
1630679049625,-0.796875,0.328125,0.5
1630679049656,-0.78125,0.328125,0.5
1630679049687,-0.796875,0.328125,0.5
1630679049718,-0.796875,0.328125,0.5
1630679049750,-0.78125,0.328125,0.5
1630679049781,-0.78125,0.328125,0.5
1630679049812,-0.796875,0.328125,0.5
1630679049843,-0.796875,0.328125,0.5
1630679049875,-0.796875,0.328125,0.515625
1630679049906,-0.78125,0.328125,0.515625
1630679049937,-0.796875,0.328125,0.515625
1630679049968,-0.796875,0.328125,0.515625
1630679050000,-0.796875,0.328125,0.515625
1630679050031,-0.796875,0.328125,0.5
1630679050062,-0.796875,0.328125,0.515625
1630679050093,-0.796875,0.328125,0.5
1630679050125,-0.796875,0.328125,0.5
1630679050156,-0.796875,0.328125,0.515625
1630679050187,-0.796875,0.328125,0.5
1630679050218,-0.78125,0.328125,0.515625
1630679050250,-0.796875,0.328125,0.5
1630679050281,-0.796875,0.328125,0.515625
1630679050312,-0.796875,0.328125,0.5
1630679050343,-0.78125,0.328125,0.5
1630679050375,-0.796875,0.328125,0.515625
1630679050406,-0.796875,0.328125,0.515625
1630679050437,-0.796875,0.328125,0.5
1630679050468,-0.78125,0.328125,0.515625
1630679050500,-0.796875,0.328125,0.5
1630679050531,-0.78125,0.328125,0.515625
1630679050562,-0.78125,0.328125,0.515625
1630679050593,-0.796875,0.328125,0.5
1630679050625,-0.78125,0.328125,0.515625
1630679050656,-0.796875,0.328125,0.515625
1630679050687,-0.796875,0.328125,0.5
1630679050718,-0.796875,0.328125,0.5
1630679050750,-0.796875,0.328125,0.5
1630679050781,-0.796875,0.328125,0.5
1630679050812,-0.796875,0.328125,0.515625
1630679050843,-0.796875,0.328125,0.515625
1630679050875,-0.796875,0.328125,0.515625
1630679050906,-0.796875,0.328125,0.515625
1630679050937,-0.796875,0.328125,0.5
1630679050968,-0.78125,0.328125,0.515625
1630679051000,-0.796875,0.328125,0.5
1630679051031,-0.796875,0.328125,0.515625
1630679051062,-0.796875,0.328125,0.5
1630679051093,-0.796875,0.328125,0.515625
1630679051125,-0.796875,0.328125,0.515625
1630679051156,-0.78125,0.328125,0.5
1630679051187,-0.796875,0.328125,0.515625
1630679051218,-0.796875,0.328125,0.5
1630679051250,-0.796875,0.328125,0.5
1630679051281,-0.796875,0.328125,0.515625
1630679051312,-0.796875,0.328125,0.5
1630679051343,-0.78125,0.328125,0.515625
1630679051375,-0.796875,0.328125,0.5
1630679051406,-0.796875,0.328125,0.515625
1630679051437,-0.796875,0.328125,0.5
1630679051468,-0.796875,0.328125,0.5
1630679051500,-0.796875,0.328125,0.5
1630679051531,-0.796875,0.328125,0.515625
1630679051562,-0.78125,0.328125,0.515625
1630679051593,-0.796875,0.328125,0.5
1630679051625,-0.78125,0.328125,0.5
1630679051656,-0.78125,0.328125,0.515625
1630679051687,-0.796875,0.328125,0.515625
1630679051718,-0.796875,0.328125,0.515625
1630679051750,-0.78125,0.328125,0.5
1630679051781,-0.796875,0.328125,0.515625
1630679051812,-0.796875,0.328125,0.515625
1630679051843,-0.796875,0.328125,0.5
1630679051875,-0.796875,0.328125,0.5
1630679051906,-0.796875,0.328125,0.5
1630679051937,-0.796875,0.328125,0.515625
1630679051968,-0.796875,0.328125,0.5
1630679052000,-0.796875,0.328125,0.5
1630679052031,-0.796875,0.328125,0.515625
1630679052062,-0.796875,0.328125,0.515625
1630679052093,-0.796875,0.328125,0.515625
1630679052125,-0.796875,0.328125,0.515625
1630679052156,-0.796875,0.328125,0.5
1630679052187,-0.796875,0.328125,0.5
1630679052218,-0.796875,0.328125,0.5
1630679052250,-0.796875,0.328125,0.5
1630679052281,-0.78125,0.328125,0.515625
1630679052312,-0.78125,0.328125,0.515625
1630679052343,-0.796875,0.328125,0.515625
1630679052375,-0.78125,0.328125,0.515625
1630679052406,-0.78125,0.328125,0.515625
1630679052437,-0.796875,0.328125,0.515625
1630679052468,-0.78125,0.328125,0.515625
1630679052500,-0.78125,0.328125,0.5
1630679052531,-0.78125,0.328125,0.515625
1630679052562,-0.78125,0.328125,0.5
1630679052593,-0.78125,0.328125,0.515625
1630679052625,-0.78125,0.328125,0.5
1630679052656,-0.796875,0.328125,0.5
1630679052687,-0.796875,0.328125,0.5
1630679052718,-0.78125,0.328125,0.5
1630679052750,-0.78125,0.328125,0.5
1630679052781,-0.78125,0.328125,0.515625
1630679052812,-0.796875,0.328125,0.515625
1630679052843,-0.796875,0.328125,0.515625
1630679052875,-0.78125,0.328125,0.5
1630679052906,-0.78125,0.328125,0.515625
1630679052937,-0.78125,0.328125,0.515625
1630679052968,-0.796875,0.328125,0.5
1630679053000,-0.796875,0.328125,0.5
1630679053031,-0.796875,0.328125,0.5
1630679053062,-0.78125,0.328125,0.515625
1630679053093,-0.78125,0.328125,0.515625
1630679053125,-0.78125,0.328125,0.5
1630679053156,-0.78125,0.328125,0.5
1630679053187,-0.78125,0.328125,0.515625
1630679053218,-0.796875,0.328125,0.515625
1630679053250,-0.796875,0.328125,0.5
1630679053281,-0.796875,0.328125,0.515625
1630679053312,-0.796875,0.328125,0.515625
1630679053343,-0.796875,0.328125,0.515625
1630679053375,-0.796875,0.328125,0.515625
1630679053406,-0.78125,0.328125,0.515625
1630679053437,-0.78125,0.328125,0.5
1630679053468,-0.796875,0.328125,0.515625
1630679053500,-0.796875,0.328125,0.515625
1630679053531,-0.796875,0.328125,0.5
1630679053562,-0.796875,0.328125,0.515625
1630679053593,-0.78125,0.328125,0.5
1630679053625,-0.796875,0.328125,0.515625
1630679053656,-0.796875,0.328125,0.515625
1630679053687,-0.796875,0.328125,0.515625
1630679053718,-0.796875,0.328125,0.515625
1630679053750,-0.796875,0.328125,0.5
1630679053781,-0.796875,0.328125,0.5
1630679053812,-0.78125,0.328125,0.515625
1630679053843,-0.78125,0.328125,0.515625
1630679053875,-0.78125,0.328125,0.5
1630679053906,-0.78125,0.328125,0.5
1630679053937,-0.796875,0.328125,0.515625
1630679053968,-0.796875,0.328125,0.5
1630679054000,-0.796875,0.328125,0.515625
1630679054031,-0.796875,0.328125,0.515625
1630679054062,-0.796875,0.328125,0.5
1630679054093,-0.78125,0.328125,0.5
1630679054125,-0.78125,0.328125,0.515625
1630679054156,-0.796875,0.328125,0.5
1630679054187,-0.78125,0.328125,0.5
1630679054218,-0.796875,0.328125,0.515625
1630679054250,-0.78125,0.328125,0.515625
1630679054281,-0.796875,0.328125,0.515625
1630679054312,-0.796875,0.328125,0.515625
1630679054343,-0.796875,0.328125,0.515625
1630679054375,-0.796875,0.328125,0.5
1630679054406,-0.796875,0.328125,0.515625
1630679054437,-0.796875,0.328125,0.515625
1630679054468,-0.78125,0.328125,0.515625
1630679054500,-0.78125,0.328125,0.5
1630679054531,-0.796875,0.328125,0.5
1630679054562,-0.796875,0.328125,0.5
1630679054593,-0.78125,0.328125,0.515625
1630679054625,-0.796875,0.328125,0.515625
1630679054656,-0.796875,0.328125,0.5
1630679054687,-0.796875,0.328125,0.5
1630679054718,-0.796875,0.328125,0.5
1630679054750,-0.796875,0.328125,0.515625
1630679054781,-0.796875,0.328125,0.5
1630679054812,-0.78125,0.328125,0.5
1630679054843,-0.796875,0.328125,0.5
1630679054875,-0.796875,0.328125,0.5
1630679054906,-0.796875,0.328125,0.515625
1630679054937,-0.796875,0.328125,0.5
1630679054968,-0.796875,0.328125,0.515625
1630679055000,-0.796875,0.328125,0.5
1630679055031,-0.796875,0.328125,0.515625
1630679055062,-0.796875,0.328125,0.5
1630679055093,-0.796875,0.328125,0.5
1630679055125,-0.796875,0.328125,0.5
1630679055156,-0.796875,0.328125,0.515625
1630679055187,-0.796875,0.328125,0.515625
1630679055218,-0.796875,0.328125,0.515625
1630679055250,-0.796875,0.328125,0.515625
1630679055281,-0.78125,0.328125,0.515625
1630679055312,-0.796875,0.328125,0.5
1630679055343,-0.78125,0.328125,0.515625
1630679055375,-0.796875,0.328125,0.5
1630679055406,-0.796875,0.328125,0.5
1630679055437,-0.796875,0.328125,0.515625
1630679055468,-0.796875,0.328125,0.5
1630679055500,-0.796875,0.328125,0.5
1630679055531,-0.796875,0.328125,0.515625
1630679055562,-0.796875,0.328125,0.515625
1630679055593,-0.796875,0.328125,0.5
1630679055625,-0.796875,0.328125,0.5
1630679055656,-0.796875,0.328125,0.5
1630679055687,-0.796875,0.328125,0.515625
1630679055718,-0.78125,0.328125,0.515625
1630679055750,-0.796875,0.328125,0.5
1630679055781,-0.796875,0.328125,0.5
1630679055812,-0.796875,0.328125,0.515625
1630679055843,-0.796875,0.328125,0.515625
1630679055875,-0.78125,0.328125,0.515625
1630679055906,-0.796875,0.328125,0.5
1630679055937,-0.796875,0.328125,0.515625
1630679055968,-0.796875,0.328125,0.515625
1630679056000,-0.78125,0.328125,0.5
1630679056031,-0.796875,0.328125,0.5
1630679056062,-0.796875,0.328125,0.515625
1630679056093,-0.78125,0.328125,0.5
1630679056125,-0.796875,0.328125,0.5
1630679056156,-0.796875,0.328125,0.5
1630679056187,-0.796875,0.328125,0.515625
1630679056218,-0.796875,0.328125,0.5
1630679056250,-0.78125,0.328125,0.515625
1630679056281,-0.78125,0.328125,0.515625
1630679056312,-0.78125,0.328125,0.515625
1630679056343,-0.796875,0.328125,0.5
1630679056375,-0.796875,0.328125,0.515625
1630679056406,-0.796875,0.328125,0.515625
1630679056437,-0.78125,0.328125,0.515625
1630679056468,-0.796875,0.328125,0.515625
1630679056500,-0.796875,0.328125,0.515625
1630679056531,-0.796875,0.328125,0.515625
1630679056562,-0.796875,0.328125,0.515625
1630679056593,-0.78125,0.328125,0.515625
1630679056625,-0.78125,0.328125,0.5
1630679056656,-0.796875,0.328125,0.515625
1630679056687,-0.78125,0.328125,0.515625
1630679056718,-0.796875,0.328125,0.5
1630679056750,-0.78125,0.328125,0.515625
1630679056781,-0.78125,0.328125,0.5
1630679056812,-0.796875,0.328125,0.515625
1630679056843,-0.796875,0.328125,0.515625
1630679056875,-0.78125,0.328125,0.515625
1630679056906,-0.78125,0.328125,0.5
1630679056937,-0.78125,0.328125,0.5
1630679056968,-0.796875,0.328125,0.5
1630679057000,-0.796875,0.328125,0.5
1630679057031,-0.78125,0.328125,0.515625
1630679057062,-0.78125,0.328125,0.515625
1630679057093,-0.796875,0.328125,0.5
1630679057125,-0.796875,0.328125,0.5
1630679057156,-0.796875,0.328125,0.515625
1630679057187,-0.796875,0.328125,0.515625
1630679057218,-0.796875,0.328125,0.5
1630679057250,-0.796875,0.328125,0.5
1630679057281,-0.78125,0.328125,0.515625
1630679057312,-0.796875,0.328125,0.515625
1630679057343,-0.78125,0.328125,0.515625
1630679057375,-0.796875,0.328125,0.5
1630679057406,-0.796875,0.328125,0.5
1630679057437,-0.796875,0.328125,0.5
1630679057468,-0.796875,0.328125,0.515625
1630679057500,-0.796875,0.328125,0.515625
1630679057531,-0.796875,0.328125,0.515625
1630679057562,-0.78125,0.328125,0.5
1630679057593,-0.796875,0.328125,0.5
1630679057625,-0.796875,0.328125,0.515625
1630679057656,-0.796875,0.328125,0.5
1630679057687,-0.796875,0.328125,0.5
1630679057718,-0.796875,0.328125,0.515625
1630679057750,-0.796875,0.328125,0.515625
1630679057781,-0.796875,0.328125,0.515625
1630679057812,-0.796875,0.328125,0.515625
1630679057843,-0.796875,0.328125,0.515625
1630679057875,-0.78125,0.328125,0.515625
1630679057906,-0.796875,0.328125,0.5
1630679057937,-0.796875,0.328125,0.515625
1630679057968,-0.78125,0.328125,0.5
1630679058000,-0.796875,0.328125,0.515625
1630679058031,-0.796875,0.328125,0.515625
1630679058062,-0.78125,0.328125,0.5
1630679058093,-0.796875,0.328125,0.515625
1630679058125,-0.796875,0.328125,0.515625
1630679058156,-0.796875,0.328125,0.515625
1630679058187,-0.796875,0.328125,0.5
1630679058218,-0.796875,0.328125,0.5
1630679058250,-0.796875,0.328125,0.515625
1630679058281,-0.796875,0.328125,0.5
1630679058312,-0.796875,0.328125,0.5
1630679058343,-0.796875,0.328125,0.5
1630679058375,-0.796875,0.328125,0.515625
1630679058406,-0.796875,0.328125,0.515625
1630679058437,-0.78125,0.328125,0.515625
1630679058468,-0.796875,0.328125,0.515625
1630679058500,-0.796875,0.328125,0.5
1630679058531,-0.796875,0.328125,0.515625
1630679058562,-0.796875,0.328125,0.5
1630679058593,-0.78125,0.328125,0.515625
1630679058625,-0.796875,0.328125,0.515625
1630679058656,-0.78125,0.328125,0.5
1630679058687,-0.78125,0.328125,0.515625
1630679058718,-0.796875,0.328125,0.515625
1630679058750,-0.796875,0.328125,0.5
1630679058781,-0.78125,0.328125,0.515625
1630679058812,-0.78125,0.328125,0.515625
1630679058843,-0.796875,0.328125,0.515625
1630679058875,-0.78125,0.328125,0.515625
1630679058906,-0.796875,0.328125,0.515625
1630679058937,-0.796875,0.328125,0.5
1630679058968,-0.796875,0.328125,0.515625
1630679059000,-0.796875,0.328125,0.5
1630679059031,-0.796875,0.328125,0.515625
1630679059062,-0.78125,0.328125,0.515625
1630679059093,-0.796875,0.328125,0.515625
1630679059125,-0.796875,0.328125,0.5
1630679059156,-0.796875,0.328125,0.5
1630679059187,-0.796875,0.328125,0.515625
1630679059218,-0.796875,0.328125,0.515625
1630679059250,-0.78125,0.328125,0.515625
1630679059281,-0.78125,0.328125,0.5
1630679059312,-0.796875,0.328125,0.515625
1630679059343,-0.796875,0.328125,0.515625
1630679059375,-0.796875,0.328125,0.515625
1630679059406,-0.796875,0.328125,0.515625
1630679059437,-0.78125,0.328125,0.5
1630679059468,-0.78125,0.328125,0.5
1630679059500,-0.796875,0.328125,0.5
1630679059531,-0.796875,0.328125,0.515625
1630679059562,-0.796875,0.328125,0.515625
1630679059593,-0.78125,0.328125,0.5
1630679059625,-0.796875,0.328125,0.5
1630679059656,-0.796875,0.328125,0.5
1630679059687,-0.78125,0.328125,0.515625
1630679059718,-0.78125,0.328125,0.5
1630679059750,-0.78125,0.328125,0.5
1630679059781,-0.796875,0.328125,0.5
1630679059812,-0.796875,0.328125,0.515625
1630679059843,-0.78125,0.328125,0.515625
1630679059875,-0.796875,0.328125,0.5
1630679059906,-0.796875,0.328125,0.5
1630679059937,-0.796875,0.328125,0.515625
1630679059968,-0.796875,0.328125,0.5
1630679060000,-0.796875,0.328125,0.5
1630679060031,-0.796875,0.328125,0.515625
1630679060062,-0.796875,0.328125,0.5
1630679060093,-0.796875,0.328125,0.5
1630679060125,-0.796875,0.328125,0.515625
1630679060156,-0.796875,0.34375,0.515625
1630679060187,-0.796875,0.328125,0.515625
1630679060218,-0.796875,0.328125,0.5
1630679060250,-0.796875,0.328125,0.5
1630679060281,-0.796875,0.328125,0.5
1630679060312,-0.796875,0.328125,0.5
1630679060343,-0.78125,0.328125,0.515625
1630679060375,-0.78125,0.328125,0.5
1630679060406,-0.796875,0.328125,0.5
1630679060437,-0.78125,0.328125,0.515625
1630679060468,-0.78125,0.328125,0.515625
1630679060500,-0.796875,0.328125,0.5
1630679060531,-0.78125,0.328125,0.5
1630679060562,-0.796875,0.328125,0.5
1630679060593,-0.796875,0.328125,0.5
1630679060625,-0.78125,0.328125,0.515625
1630679060656,-0.78125,0.328125,0.515625
1630679060687,-0.796875,0.328125,0.5
1630679060718,-0.78125,0.328125,0.515625
1630679060750,-0.78125,0.328125,0.5
1630679060781,-0.796875,0.328125,0.5
1630679060812,-0.796875,0.328125,0.5
1630679060843,-0.78125,0.328125,0.5
1630679060875,-0.796875,0.328125,0.515625
1630679060906,-0.796875,0.328125,0.515625
1630679060937,-0.796875,0.328125,0.5
1630679060968,-0.796875,0.328125,0.5
1630679061000,-0.78125,0.328125,0.515625
1630679061031,-0.78125,0.328125,0.5
1630679061062,-0.796875,0.328125,0.5
1630679061093,-0.796875,0.328125,0.5
1630679061125,-0.796875,0.328125,0.515625
1630679061156,-0.796875,0.328125,0.5
1630679061187,-0.796875,0.328125,0.5
1630679061218,-0.796875,0.328125,0.5
1630679061250,-0.78125,0.328125,0.515625
1630679061281,-0.796875,0.328125,0.5
1630679061312,-0.796875,0.328125,0.5
1630679061343,-0.78125,0.328125,0.5
1630679061375,-0.796875,0.328125,0.5
1630679061406,-0.78125,0.328125,0.515625
1630679061437,-0.796875,0.328125,0.5
1630679061468,-0.796875,0.328125,0.5
1630679061500,-0.796875,0.328125,0.515625
1630679061531,-0.796875,0.328125,0.515625
1630679061562,-0.796875,0.328125,0.515625
1630679061593,-0.796875,0.328125,0.5
1630679061625,-0.78125,0.328125,0.5
1630679061656,-0.78125,0.328125,0.5
1630679061687,-0.796875,0.328125,0.5
1630679061718,-0.796875,0.328125,0.5
1630679061750,-0.796875,0.328125,0.515625
1630679061781,-0.78125,0.328125,0.5
1630679061812,-0.796875,0.328125,0.5
1630679061843,-0.796875,0.328125,0.5
1630679061875,-0.796875,0.328125,0.5
1630679061906,-0.796875,0.328125,0.5
1630679061937,-0.796875,0.328125,0.5
1630679061968,-0.796875,0.328125,0.5
1630679062000,-0.78125,0.328125,0.5
1630679062031,-0.796875,0.328125,0.5
1630679062062,-0.796875,0.328125,0.5
1630679062093,-0.78125,0.328125,0.515625
1630679062125,-0.78125,0.328125,0.515625
1630679062156,-0.796875,0.328125,0.5
1630679062187,-0.796875,0.328125,0.5
1630679062218,-0.796875,0.328125,0.5
1630679062250,-0.796875,0.328125,0.5
1630679062281,-0.796875,0.328125,0.515625
1630679062312,-0.796875,0.328125,0.515625
1630679062343,-0.796875,0.328125,0.5
1630679062375,-0.796875,0.328125,0.5
1630679062406,-0.796875,0.328125,0.515625
1630679062437,-0.78125,0.328125,0.5
1630679062468,-0.796875,0.328125,0.515625
1630679062500,-0.796875,0.328125,0.5
1630679062531,-0.796875,0.328125,0.515625
1630679062562,-0.796875,0.328125,0.5
1630679062593,-0.796875,0.328125,0.5
1630679062625,-0.78125,0.328125,0.5
1630679062656,-0.796875,0.328125,0.5
1630679062687,-0.796875,0.328125,0.5
1630679062718,-0.796875,0.328125,0.515625
1630679062750,-0.796875,0.328125,0.515625
1630679062781,-0.796875,0.328125,0.515625
1630679062812,-0.78125,0.328125,0.5
1630679062843,-0.78125,0.328125,0.515625
1630679062875,-0.796875,0.328125,0.515625
1630679062906,-0.78125,0.328125,0.5
1630679062937,-0.796875,0.328125,0.515625
1630679062968,-0.796875,0.328125,0.5
1630679063000,-0.78125,0.328125,0.5
1630679063031,-0.796875,0.328125,0.5
1630679063062,-0.796875,0.328125,0.515625
1630679063093,-0.78125,0.328125,0.515625
1630679063125,-0.78125,0.328125,0.515625
1630679063156,-0.78125,0.328125,0.5
1630679063187,-0.796875,0.328125,0.5
1630679063218,-0.796875,0.328125,0.5
1630679063250,-0.796875,0.328125,0.5
1630679063281,-0.796875,0.328125,0.5
1630679063312,-0.796875,0.328125,0.515625
1630679063343,-0.796875,0.328125,0.515625
1630679063375,-0.78125,0.328125,0.5
1630679063406,-0.796875,0.328125,0.5
1630679063437,-0.796875,0.328125,0.5
1630679063468,-0.78125,0.328125,0.5
1630679063500,-0.78125,0.328125,0.5
1630679063531,-0.78125,0.328125,0.515625
1630679063562,-0.78125,0.328125,0.515625
1630679063593,-0.78125,0.328125,0.515625
1630679063625,-0.796875,0.328125,0.515625
1630679063656,-0.796875,0.328125,0.5
1630679063687,-0.796875,0.328125,0.5
1630679063718,-0.796875,0.328125,0.5
1630679063750,-0.796875,0.328125,0.5
1630679063781,-0.796875,0.328125,0.515625
1630679063812,-0.78125,0.328125,0.515625
1630679063843,-0.796875,0.328125,0.5
1630679063875,-0.796875,0.328125,0.5
1630679063906,-0.796875,0.328125,0.5
1630679063937,-0.796875,0.328125,0.5
1630679063968,-0.796875,0.328125,0.5
1630679064000,-0.796875,0.328125,0.515625
1630679064031,-0.78125,0.328125,0.515625
1630679064062,-0.796875,0.328125,0.515625
1630679064093,-0.796875,0.328125,0.515625
1630679064125,-0.78125,0.328125,0.515625
1630679064156,-0.78125,0.328125,0.5
1630679064187,-0.796875,0.328125,0.5
1630679064218,-0.796875,0.328125,0.5
1630679064250,-0.78125,0.328125,0.5
1630679064281,-0.78125,0.328125,0.515625
1630679064312,-0.78125,0.328125,0.515625
1630679064343,-0.78125,0.328125,0.5
1630679064375,-0.78125,0.328125,0.5
1630679064406,-0.78125,0.328125,0.5
1630679064437,-0.796875,0.328125,0.515625
1630679064468,-0.796875,0.328125,0.515625
1630679064500,-0.796875,0.328125,0.5
1630679064531,-0.796875,0.328125,0.5
1630679064562,-0.796875,0.328125,0.5
1630679064593,-0.796875,0.328125,0.515625
