timestamp,ax,ay,az
1629880721625,-1.03125,0.234375,-0.296875
1629880721656,-1.140625,0.265625,-0.171875
1629880721687,-1.0625,0.28125,-0.140625
1629880721718,-0.984375,0.21875,-0.296875
1629880721750,-0.953125,0.171875,-0.328125
1629880721781,-0.921875,0.09375,-0.328125
1629880721812,-0.953125,0.140625,-0.3125
1629880721843,-1.0,0.125,-0.359375
1629880721875,-1.0,0.140625,-0.359375
1629880721906,-0.9375,0.171875,-0.3125
1629880721937,-0.921875,0.1875,-0.25
1629880721968,-0.9375,0.1875,-0.265625
1629880722000,-0.953125,0.1875,-0.25
1629880722031,-0.9375,0.171875,-0.28125
1629880722062,-0.9375,0.171875,-0.265625
1629880722093,-0.96875,0.171875,-0.21875
1629880722125,-0.9375,0.203125,-0.21875
1629880722156,-0.953125,0.171875,-0.21875
1629880722187,-0.953125,0.171875,-0.21875
1629880722218,-0.953125,0.171875,-0.21875
1629880722250,-0.9375,0.1875,-0.1875
1629880722281,-0.921875,0.171875,-0.203125
1629880722312,-0.921875,0.171875,-0.234375
1629880722343,-0.953125,0.171875,-0.28125
1629880722375,-0.984375,0.171875,-0.3125
1629880722406,-0.984375,0.171875,-0.3125
1629880722437,-0.953125,0.15625,-0.28125
1629880722468,-0.9375,0.15625,-0.25
1629880722500,-0.9375,0.15625,-0.265625
1629880722531,-0.953125,0.15625,-0.265625
1629880722562,-0.953125,0.171875,-0.28125
1629880722593,-0.9375,0.171875,-0.28125
1629880722625,-0.953125,0.171875,-0.28125
1629880722656,-0.9375,0.171875,-0.28125
1629880722687,-0.9375,0.15625,-0.28125
1629880722718,-0.953125,0.15625,-0.28125
1629880722750,-0.9375,0.15625,-0.296875
1629880722781,-0.953125,0.15625,-0.296875
1629880722812,-0.9375,0.15625,-0.28125
1629880722843,-0.9375,0.15625,-0.28125
1629880722875,-0.953125,0.15625,-0.28125
1629880722906,-0.953125,0.15625,-0.296875
1629880722937,-0.953125,0.171875,-0.28125
1629880722968,-0.9375,0.171875,-0.25
1629880723000,-0.9375,0.171875,-0.28125
1629880723031,-0.9375,0.171875,-0.265625
1629880723062,-0.9375,0.171875,-0.265625
1629880723093,-0.9375,0.15625,-0.265625
1629880723125,-0.9375,0.171875,-0.265625
1629880723156,-0.9375,0.171875,-0.265625
1629880723187,-0.953125,0.15625,-0.28125
1629880723218,-0.953125,0.15625,-0.296875
1629880723250,-0.953125,0.15625,-0.28125
1629880723281,-0.953125,0.15625,-0.28125
1629880723312,-0.9375,0.15625,-0.28125
1629880723343,-0.9375,0.15625,-0.28125
1629880723375,-0.9375,0.15625,-0.28125
1629880723406,-0.9375,0.15625,-0.28125
1629880723437,-0.953125,0.15625,-0.28125
1629880723468,-0.9375,0.15625,-0.28125
1629880723500,-0.9375,0.15625,-0.28125
1629880723531,-0.9375,0.15625,-0.28125
1629880723562,-0.953125,0.15625,-0.28125
1629880723593,-0.953125,0.15625,-0.28125
1629880723625,-0.953125,0.15625,-0.28125
1629880723656,-0.9375,0.15625,-0.28125
1629880723687,-0.953125,0.15625,-0.296875
1629880723718,-0.9375,0.15625,-0.28125
1629880723750,-0.9375,0.15625,-0.28125
1629880723781,-0.9375,0.15625,-0.28125
1629880723812,-0.9375,0.15625,-0.28125
1629880723843,-0.9375,0.15625,-0.28125
1629880723875,-0.9375,0.15625,-0.28125
1629880723906,-0.9375,0.15625,-0.28125
1629880723937,-0.953125,0.15625,-0.28125
1629880723968,-0.953125,0.15625,-0.296875
1629880724000,-0.953125,0.15625,-0.28125
1629880724031,-0.9375,0.15625,-0.28125
1629880724062,-0.953125,0.15625,-0.28125
1629880724093,-0.953125,0.15625,-0.28125
1629880724125,-0.9375,0.15625,-0.28125
1629880724156,-0.9375,0.15625,-0.28125
1629880724187,-0.953125,0.15625,-0.28125
1629880724218,-0.9375,0.15625,-0.28125
1629880724250,-0.953125,0.15625,-0.28125
1629880724281,-0.953125,0.15625,-0.28125
1629880724312,-0.9375,0.15625,-0.28125
1629880724343,-0.953125,0.15625,-0.28125
1629880724375,-0.9375,0.15625,-0.28125
1629880724406,-0.953125,0.15625,-0.296875
1629880724437,-0.953125,0.15625,-0.28125
1629880724468,-0.9375,0.15625,-0.28125
1629880724500,-0.9375,0.15625,-0.296875
1629880724531,-0.953125,0.15625,-0.296875
1629880724562,-0.953125,0.15625,-0.28125
1629880724593,-0.9375,0.15625,-0.28125
1629880724625,-0.953125,0.15625,-0.28125
1629880724656,-0.953125,0.15625,-0.28125
1629880724687,-0.9375,0.15625,-0.28125
1629880724718,-0.9375,0.15625,-0.28125
1629880724750,-0.953125,0.15625,-0.28125
1629880724781,-0.9375,0.15625,-0.28125
1629880724812,-0.953125,0.15625,-0.28125
1629880724843,-0.9375,0.15625,-0.28125
1629880724875,-0.9375,0.15625,-0.28125
1629880724906,-0.953125,0.15625,-0.28125
1629880724937,-0.953125,0.15625,-0.296875
1629880724968,-0.9375,0.15625,-0.28125
1629880725000,-0.953125,0.15625,-0.28125
1629880725031,-0.953125,0.15625,-0.28125
1629880725062,-0.953125,0.15625,-0.28125
1629880725093,-0.9375,0.15625,-0.28125
1629880725125,-0.953125,0.15625,-0.28125
1629880725156,-0.9375,0.15625,-0.28125
1629880725187,-0.9375,0.15625,-0.28125
1629880725218,-0.9375,0.15625,-0.28125
1629880725250,-0.9375,0.15625,-0.28125
1629880725281,-0.953125,0.15625,-0.28125
1629880725312,-0.9375,0.15625,-0.28125
1629880725343,-0.9375,0.15625,-0.28125
1629880725375,-0.953125,0.15625,-0.28125
1629880725406,-0.9375,0.15625,-0.28125
1629880725437,-0.9375,0.15625,-0.28125
1629880725468,-0.953125,0.15625,-0.28125
1629880725500,-0.9375,0.15625,-0.28125
1629880725531,-0.9375,0.15625,-0.28125
1629880725562,-0.953125,0.15625,-0.28125
1629880725593,-0.953125,0.15625,-0.28125
1629880725625,-0.953125,0.15625,-0.28125
1629880725656,-0.953125,0.15625,-0.28125
1629880725687,-0.953125,0.15625,-0.28125
1629880725718,-0.9375,0.15625,-0.28125
1629880725750,-0.953125,0.15625,-0.28125
1629880725781,-0.9375,0.15625,-0.28125
1629880725812,-0.953125,0.15625,-0.28125
1629880725843,-0.9375,0.15625,-0.28125
1629880725875,-0.953125,0.15625,-0.28125
1629880725906,-0.953125,0.15625,-0.28125
1629880725937,-0.9375,0.15625,-0.28125
1629880725968,-0.9375,0.15625,-0.28125
1629880726000,-0.9375,0.15625,-0.28125
1629880726031,-0.953125,0.15625,-0.28125
1629880726062,-0.953125,0.15625,-0.28125
1629880726093,-0.9375,0.15625,-0.28125
1629880726125,-0.9375,0.15625,-0.28125
1629880726156,-0.9375,0.15625,-0.28125
1629880726187,-0.953125,0.15625,-0.296875
1629880726218,-0.953125,0.15625,-0.3125
1629880726250,-0.953125,0.15625,-0.265625
1629880726281,-0.9375,0.15625,-0.25
1629880726312,-0.9375,0.140625,-0.265625
1629880726343,-0.953125,0.15625,-0.28125
1629880726375,-0.953125,0.15625,-0.28125
1629880726406,-0.953125,0.171875,-0.296875
1629880726437,-0.953125,0.171875,-0.28125
1629880726468,-0.953125,0.15625,-0.28125
1629880726500,-0.953125,0.140625,-0.265625
1629880726531,-0.953125,0.140625,-0.265625
1629880726562,-0.953125,0.15625,-0.28125
1629880726593,-0.953125,0.15625,-0.296875
1629880726625,-0.953125,0.15625,-0.28125
1629880726656,-0.9375,0.15625,-0.28125
1629880726687,-0.9375,0.15625,-0.28125
1629880726718,-0.9375,0.15625,-0.28125
1629880726750,-0.953125,0.15625,-0.28125
1629880726781,-0.953125,0.15625,-0.28125
1629880726812,-0.953125,0.15625,-0.28125
1629880726843,-0.953125,0.15625,-0.28125
1629880726875,-0.953125,0.15625,-0.28125
1629880726906,-0.953125,0.15625,-0.28125
1629880726937,-0.9375,0.15625,-0.28125
1629880726968,-0.953125,0.15625,-0.28125
1629880727000,-0.953125,0.15625,-0.28125
1629880727031,-0.953125,0.15625,-0.28125
1629880727062,-0.953125,0.15625,-0.28125
1629880727093,-0.9375,0.15625,-0.28125
1629880727125,-0.953125,0.15625,-0.28125
1629880727156,-0.9375,0.15625,-0.28125
1629880727187,-0.9375,0.15625,-0.28125
1629880727218,-0.953125,0.15625,-0.28125
1629880727250,-0.9375,0.15625,-0.28125
1629880727281,-0.953125,0.15625,-0.28125
1629880727312,-0.9375,0.15625,-0.28125
1629880727343,-0.9375,0.15625,-0.28125
1629880727375,-0.953125,0.15625,-0.28125
1629880727406,-0.953125,0.15625,-0.28125
1629880727437,-0.953125,0.15625,-0.28125
1629880727468,-0.953125,0.15625,-0.28125
1629880727500,-0.9375,0.15625,-0.28125
1629880727531,-0.953125,0.15625,-0.28125
1629880727562,-0.953125,0.15625,-0.28125
1629880727593,-0.9375,0.15625,-0.28125
1629880727625,-0.953125,0.15625,-0.28125
1629880727656,-0.953125,0.15625,-0.28125
1629880727687,-0.953125,0.15625,-0.28125
1629880727718,-0.953125,0.15625,-0.28125
1629880727750,-0.953125,0.15625,-0.28125
1629880727781,-0.953125,0.15625,-0.28125
1629880727812,-0.953125,0.15625,-0.28125
1629880727843,-0.953125,0.15625,-0.28125
1629880727875,-0.953125,0.15625,-0.265625
1629880727906,-0.9375,0.15625,-0.28125
1629880727937,-0.953125,0.15625,-0.28125
1629880727968,-0.953125,0.15625,-0.28125
1629880728000,-0.9375,0.15625,-0.28125
1629880728031,-0.953125,0.15625,-0.28125
1629880728062,-0.953125,0.15625,-0.265625
1629880728093,-0.953125,0.15625,-0.28125
1629880728125,-0.953125,0.15625,-0.28125
1629880728156,-0.9375,0.15625,-0.265625
1629880728187,-0.953125,0.15625,-0.28125
1629880728218,-0.953125,0.15625,-0.28125
1629880728250,-0.953125,0.15625,-0.28125
1629880728281,-0.953125,0.15625,-0.265625
1629880728312,-0.953125,0.15625,-0.265625
1629880728343,-0.953125,0.15625,-0.265625
1629880728375,-0.953125,0.15625,-0.28125
1629880728406,-0.953125,0.15625,-0.265625
1629880728437,-0.9375,0.15625,-0.265625
1629880728468,-0.953125,0.15625,-0.28125
1629880728500,-0.953125,0.15625,-0.28125
1629880728531,-0.953125,0.15625,-0.28125
1629880728562,-0.953125,0.15625,-0.265625
1629880728593,-0.953125,0.15625,-0.265625
1629880728625,-0.9375,0.15625,-0.265625
1629880728656,-0.953125,0.15625,-0.28125
1629880728687,-0.953125,0.15625,-0.265625
1629880728718,-0.9375,0.15625,-0.265625
1629880728750,-0.953125,0.15625,-0.28125
1629880728781,-0.953125,0.15625,-0.28125
1629880728812,-0.953125,0.15625,-0.28125
1629880728843,-0.953125,0.15625,-0.28125
1629880728875,-0.953125,0.15625,-0.28125
1629880728906,-0.953125,0.15625,-0.28125
1629880728937,-0.953125,0.15625,-0.28125
1629880728968,-0.9375,0.15625,-0.265625
1629880729000,-0.953125,0.15625,-0.28125
1629880729031,-0.953125,0.15625,-0.28125
1629880729062,-0.953125,0.15625,-0.265625
1629880729093,-0.953125,0.15625,-0.28125
1629880729125,-0.953125,0.15625,-0.28125
1629880729156,-0.953125,0.15625,-0.28125
1629880729187,-0.953125,0.15625,-0.28125
1629880729218,-0.953125,0.15625,-0.28125
1629880729250,-0.953125,0.15625,-0.28125
1629880729281,-0.953125,0.15625,-0.265625
1629880729312,-0.953125,0.15625,-0.28125
1629880729343,-0.953125,0.15625,-0.265625
1629880729375,-0.953125,0.15625,-0.265625
1629880729406,-0.953125,0.15625,-0.265625
1629880729437,-0.953125,0.15625,-0.28125
1629880729468,-0.9375,0.15625,-0.28125
1629880729500,-0.9375,0.15625,-0.265625
1629880729531,-0.953125,0.15625,-0.28125
1629880729562,-0.953125,0.15625,-0.28125
1629880729593,-0.953125,0.15625,-0.28125
1629880729625,-0.9375,0.15625,-0.28125
1629880729656,-0.953125,0.15625,-0.28125
1629880729687,-0.953125,0.15625,-0.28125
1629880729718,-0.953125,0.15625,-0.28125
1629880729750,-0.953125,0.15625,-0.28125
1629880729781,-0.953125,0.15625,-0.265625
1629880729812,-0.953125,0.15625,-0.28125
1629880729843,-0.953125,0.15625,-0.265625
1629880729875,-0.9375,0.15625,-0.28125
1629880729906,-0.953125,0.15625,-0.28125
1629880729937,-0.953125,0.15625,-0.28125
1629880729968,-0.953125,0.15625,-0.28125
1629880730000,-0.953125,0.15625,-0.28125
1629880730031,-0.953125,0.15625,-0.28125
1629880730062,-0.953125,0.15625,-0.28125
1629880730093,-0.953125,0.15625,-0.28125
1629880730125,-0.953125,0.15625,-0.28125
1629880730156,-0.953125,0.15625,-0.265625
1629880730187,-0.9375,0.15625,-0.265625
1629880730218,-0.953125,0.15625,-0.28125
1629880730250,-0.953125,0.15625,-0.28125
1629880730281,-0.953125,0.15625,-0.265625
1629880730312,-0.953125,0.15625,-0.265625
1629880730343,-0.953125,0.15625,-0.265625
1629880730375,-0.953125,0.15625,-0.265625
1629880730406,-0.953125,0.15625,-0.265625
1629880730437,-0.953125,0.15625,-0.265625
1629880730468,-0.953125,0.15625,-0.265625
1629880730500,-0.953125,0.15625,-0.28125
1629880730531,-0.953125,0.15625,-0.28125
1629880730562,-0.953125,0.15625,-0.265625
1629880730593,-0.953125,0.15625,-0.265625
1629880730625,-0.953125,0.15625,-0.265625
1629880730656,-0.953125,0.15625,-0.265625
1629880730687,-0.953125,0.15625,-0.265625
1629880730718,-0.9375,0.15625,-0.265625
1629880730750,-0.953125,0.15625,-0.265625
1629880730781,-0.953125,0.15625,-0.265625
1629880730812,-0.953125,0.15625,-0.265625
1629880730843,-0.953125,0.15625,-0.265625
1629880730875,-0.953125,0.15625,-0.265625
1629880730906,-0.953125,0.15625,-0.28125
1629880730937,-0.953125,0.15625,-0.265625
1629880730968,-0.953125,0.15625,-0.265625
1629880731000,-0.953125,0.15625,-0.28125
1629880731031,-0.953125,0.15625,-0.265625
1629880731062,-0.953125,0.15625,-0.265625
1629880731093,-0.953125,0.15625,-0.28125
1629880731125,-0.9375,0.15625,-0.265625
1629880731156,-0.953125,0.15625,-0.265625
1629880731187,-0.953125,0.15625,-0.265625
1629880731218,-0.953125,0.15625,-0.265625
1629880731250,-0.953125,0.15625,-0.265625
1629880731281,-0.953125,0.15625,-0.265625
1629880731312,-0.953125,0.171875,-0.265625
1629880731343,-0.953125,0.15625,-0.265625
1629880731375,-0.953125,0.171875,-0.265625
1629880731406,-0.953125,0.15625,-0.28125
1629880731437,-0.953125,0.15625,-0.265625
1629880731468,-0.953125,0.15625,-0.265625
1629880731500,-0.953125,0.15625,-0.28125
1629880731531,-0.9375,0.171875,-0.265625
1629880731562,-0.953125,0.171875,-0.265625
1629880731593,-0.9375,0.171875,-0.265625
1629880731625,-0.953125,0.171875,-0.265625
1629880731656,-0.953125,0.171875,-0.265625
1629880731687,-0.953125,0.171875,-0.265625
1629880731718,-0.953125,0.171875,-0.265625
1629880731750,-0.9375,0.171875,-0.265625
1629880731781,-0.953125,0.171875,-0.265625
1629880731812,-0.953125,0.171875,-0.25
1629880731843,-0.953125,0.171875,-0.25
1629880731875,-0.953125,0.171875,-0.25
1629880731906,-0.953125,0.171875,-0.265625
1629880731937,-0.953125,0.171875,-0.25
1629880731968,-0.953125,0.171875,-0.25
1629880732000,-0.953125,0.171875,-0.265625
1629880732031,-0.953125,0.171875,-0.25
1629880732062,-0.953125,0.171875,-0.25
1629880732093,-0.953125,0.171875,-0.25
1629880732125,-0.953125,0.171875,-0.25
1629880732156,-0.953125,0.171875,-0.25
1629880732187,-0.9375,0.171875,-0.234375
1629880732218,-0.921875,0.171875,-0.21875
1629880732250,-0.96875,0.171875,-0.28125
1629880732281,-0.96875,0.171875,-0.296875
1629880732312,-0.953125,0.171875,-0.265625
1629880732343,-0.953125,0.171875,-0.265625
1629880732375,-0.953125,0.171875,-0.265625
1629880732406,-0.953125,0.171875,-0.265625
1629880732437,-0.953125,0.171875,-0.265625
1629880732468,-0.953125,0.171875,-0.265625
1629880732500,-0.953125,0.171875,-0.265625
1629880732531,-0.953125,0.171875,-0.265625
1629880732562,-0.953125,0.171875,-0.265625
1629880732593,-0.953125,0.171875,-0.265625
1629880732625,-0.953125,0.171875,-0.265625
1629880732656,-0.9375,0.171875,-0.265625
1629880732687,-0.953125,0.171875,-0.265625
1629880732718,-0.953125,0.171875,-0.265625
1629880732750,-0.953125,0.171875,-0.265625
1629880732781,-0.953125,0.171875,-0.265625
1629880732812,-0.953125,0.171875,-0.265625
1629880732843,-0.953125,0.171875,-0.265625
1629880732875,-0.9375,0.171875,-0.265625
1629880732906,-0.953125,0.171875,-0.265625
1629880732937,-0.953125,0.171875,-0.265625
1629880732968,-0.953125,0.171875,-0.265625
1629880733000,-0.9375,0.171875,-0.265625
1629880733031,-0.953125,0.171875,-0.265625
1629880733062,-0.9375,0.171875,-0.265625
1629880733093,-0.9375,0.171875,-0.265625
1629880733125,-0.953125,0.171875,-0.265625
1629880733156,-0.953125,0.171875,-0.265625
1629880733187,-0.953125,0.171875,-0.265625
1629880733218,-0.953125,0.171875,-0.265625
1629880733250,-0.953125,0.171875,-0.265625
1629880733281,-0.953125,0.171875,-0.265625
1629880733312,-0.9375,0.171875,-0.265625
1629880733343,-0.953125,0.171875,-0.265625
1629880733375,-0.953125,0.171875,-0.265625
1629880733406,-0.953125,0.171875,-0.265625
1629880733437,-0.9375,0.171875,-0.265625
1629880733468,-0.953125,0.171875,-0.265625
1629880733500,-0.953125,0.171875,-0.265625
1629880733531,-0.953125,0.15625,-0.265625
1629880733562,-0.953125,0.171875,-0.28125
1629880733593,-0.953125,0.171875,-0.265625
1629880733625,-0.953125,0.171875,-0.265625
1629880733656,-0.953125,0.171875,-0.265625
1629880733687,-0.953125,0.171875,-0.265625
1629880733718,-0.953125,0.171875,-0.265625
1629880733750,-0.953125,0.171875,-0.265625
1629880733781,-0.953125,0.171875,-0.265625
1629880733812,-0.953125,0.171875,-0.265625
1629880733843,-0.9375,0.15625,-0.265625
1629880733875,-0.953125,0.171875,-0.265625
1629880733906,-0.953125,0.171875,-0.265625
1629880733937,-0.953125,0.171875,-0.28125
1629880733968,-0.953125,0.171875,-0.28125
1629880734000,-0.953125,0.171875,-0.265625
1629880734031,-0.953125,0.171875,-0.28125
1629880734062,-0.953125,0.171875,-0.28125
1629880734093,-0.9375,0.171875,-0.265625
1629880734125,-0.9375,0.171875,-0.265625
1629880734156,-0.953125,0.171875,-0.28125
1629880734187,-0.953125,0.171875,-0.265625
1629880734218,-0.953125,0.171875,-0.265625
1629880734250,-0.9375,0.15625,-0.265625
1629880734281,-0.953125,0.171875,-0.28125
1629880734312,-0.953125,0.171875,-0.265625
1629880734343,-0.9375,0.171875,-0.28125
1629880734375,-0.953125,0.171875,-0.265625
1629880734406,-0.953125,0.171875,-0.265625
1629880734437,-0.953125,0.171875,-0.265625
1629880734468,-0.953125,0.15625,-0.265625
1629880734500,-0.953125,0.15625,-0.28125
1629880734531,-0.953125,0.171875,-0.296875
1629880734562,-0.953125,0.171875,-0.265625
1629880734593,-0.9375,0.171875,-0.25
1629880734625,-0.953125,0.15625,-0.265625
1629880734656,-0.953125,0.171875,-0.265625
1629880734687,-0.953125,0.171875,-0.265625
1629880734718,-0.953125,0.171875,-0.25
1629880734750,-0.953125,0.171875,-0.25
1629880734781,-0.953125,0.15625,-0.25
1629880734812,-0.9375,0.15625,-0.25
1629880734843,-0.9375,0.15625,-0.265625
1629880734875,-0.953125,0.171875,-0.28125
1629880734906,-0.953125,0.171875,-0.28125
1629880734937,-0.953125,0.171875,-0.265625
1629880734968,-0.953125,0.15625,-0.265625
1629880735000,-0.953125,0.15625,-0.265625
1629880735031,-0.953125,0.171875,-0.28125
1629880735062,-0.953125,0.171875,-0.265625
1629880735093,-0.953125,0.171875,-0.265625
1629880735125,-0.953125,0.15625,-0.265625
1629880735156,-0.953125,0.15625,-0.265625
1629880735187,-0.953125,0.171875,-0.265625
1629880735218,-0.953125,0.171875,-0.265625
1629880735250,-0.953125,0.15625,-0.265625
1629880735281,-0.953125,0.15625,-0.265625
1629880735312,-0.953125,0.15625,-0.265625
1629880735343,-0.953125,0.15625,-0.265625
1629880735375,-0.953125,0.15625,-0.265625
1629880735406,-0.953125,0.171875,-0.28125
1629880735437,-0.953125,0.171875,-0.28125
1629880735468,-0.953125,0.171875,-0.265625
1629880735500,-0.953125,0.15625,-0.28125
1629880735531,-0.953125,0.15625,-0.25
1629880735562,-0.9375,0.15625,-0.25
1629880735593,-0.953125,0.15625,-0.265625
1629880735625,-0.953125,0.171875,-0.265625
1629880735656,-0.953125,0.171875,-0.265625
1629880735687,-0.9375,0.171875,-0.265625
1629880735718,-0.9375,0.171875,-0.25
1629880735750,-0.953125,0.15625,-0.265625
1629880735781,-0.953125,0.15625,-0.265625
1629880735812,-0.953125,0.171875,-0.265625
1629880735843,-0.953125,0.15625,-0.265625
1629880735875,-0.953125,0.15625,-0.265625
1629880735906,-0.953125,0.171875,-0.265625
1629880735937,-0.9375,0.171875,-0.265625
1629880735968,-0.953125,0.171875,-0.28125
1629880736000,-0.953125,0.171875,-0.265625
1629880736031,-0.953125,0.15625,-0.265625
1629880736062,-0.953125,0.15625,-0.265625
1629880736093,-0.9375,0.15625,-0.265625
1629880736125,-0.953125,0.171875,-0.265625
1629880736156,-0.953125,0.171875,-0.265625
1629880736187,-0.953125,0.171875,-0.265625
1629880736218,-0.953125,0.171875,-0.265625
1629880736250,-0.953125,0.15625,-0.265625
1629880736281,-0.953125,0.15625,-0.265625
1629880736312,-0.953125,0.15625,-0.265625
1629880736343,-0.953125,0.15625,-0.265625
1629880736375,-0.9375,0.15625,-0.265625
1629880736406,-0.953125,0.171875,-0.265625
1629880736437,-0.953125,0.15625,-0.28125
1629880736468,-0.953125,0.15625,-0.28125
1629880736500,-0.953125,0.171875,-0.265625
1629880736531,-0.953125,0.15625,-0.265625
1629880736562,-0.953125,0.15625,-0.265625
1629880736593,-0.953125,0.171875,-0.265625
1629880736625,-0.953125,0.15625,-0.265625
1629880736656,-0.953125,0.15625,-0.28125
1629880736687,-0.953125,0.15625,-0.28125
1629880736718,-0.953125,0.15625,-0.265625
1629880736750,-0.953125,0.15625,-0.265625
1629880736781,-0.953125,0.15625,-0.265625
1629880736812,-0.953125,0.15625,-0.265625
1629880736843,-0.953125,0.171875,-0.265625
1629880736875,-0.953125,0.171875,-0.265625
1629880736906,-0.953125,0.15625,-0.265625
1629880736937,-0.953125,0.15625,-0.28125
1629880736968,-0.953125,0.15625,-0.265625
1629880737000,-0.953125,0.15625,-0.265625
1629880737031,-0.953125,0.171875,-0.28125
1629880737062,-0.953125,0.15625,-0.28125
1629880737093,-0.9375,0.15625,-0.265625
1629880737125,-0.953125,0.15625,-0.265625
1629880737156,-0.953125,0.15625,-0.28125
1629880737187,-0.953125,0.171875,-0.28125
1629880737218,-0.953125,0.15625,-0.265625
1629880737250,-0.953125,0.15625,-0.265625
1629880737281,-0.953125,0.15625,-0.265625
1629880737312,-0.9375,0.171875,-0.265625
1629880737343,-0.953125,0.171875,-0.265625
1629880737375,-0.953125,0.15625,-0.28125
1629880737406,-0.953125,0.15625,-0.265625
1629880737437,-0.953125,0.15625,-0.28125
1629880737468,-0.953125,0.15625,-0.265625
1629880737500,-0.953125,0.15625,-0.28125
1629880737531,-0.953125,0.15625,-0.28125
1629880737562,-0.953125,0.15625,-0.265625
1629880737593,-0.953125,0.15625,-0.265625
1629880737625,-0.953125,0.15625,-0.265625
1629880737656,-0.953125,0.15625,-0.28125
1629880737687,-0.953125,0.15625,-0.265625
1629880737718,-0.953125,0.15625,-0.28125
1629880737750,-0.953125,0.15625,-0.265625
1629880737781,-0.953125,0.15625,-0.28125
1629880737812,-0.953125,0.15625,-0.265625
1629880737843,-0.953125,0.15625,-0.28125
1629880737875,-0.953125,0.15625,-0.28125
1629880737906,-0.953125,0.15625,-0.265625
1629880737937,-0.953125,0.15625,-0.28125
1629880737968,-0.953125,0.15625,-0.28125
1629880738000,-0.9375,0.15625,-0.265625
1629880738031,-0.953125,0.15625,-0.28125
1629880738062,-0.953125,0.15625,-0.265625
1629880738093,-0.953125,0.15625,-0.265625
1629880738125,-0.953125,0.15625,-0.28125
1629880738156,-0.953125,0.15625,-0.28125
1629880738187,-0.953125,0.15625,-0.28125
1629880738218,-0.953125,0.15625,-0.265625
1629880738250,-0.953125,0.15625,-0.265625
1629880738281,-0.953125,0.15625,-0.265625
1629880738312,-0.953125,0.15625,-0.265625
1629880738343,-0.953125,0.15625,-0.265625
1629880738375,-0.953125,0.15625,-0.265625
1629880738406,-0.953125,0.15625,-0.265625
1629880738437,-0.953125,0.15625,-0.265625
1629880738468,-0.953125,0.15625,-0.265625
1629880738500,-0.953125,0.15625,-0.28125
1629880738531,-0.953125,0.15625,-0.265625
1629880738562,-0.953125,0.15625,-0.265625
1629880738593,-0.953125,0.15625,-0.265625
1629880738625,-0.953125,0.15625,-0.265625
1629880738656,-0.953125,0.15625,-0.265625
1629880738687,-0.953125,0.15625,-0.265625
1629880738718,-0.953125,0.15625,-0.265625
1629880738750,-0.953125,0.15625,-0.265625
1629880738781,-0.953125,0.15625,-0.265625
1629880738812,-0.953125,0.15625,-0.265625
1629880738843,-0.9375,0.15625,-0.265625
1629880738875,-0.953125,0.15625,-0.265625
1629880738906,-0.953125,0.15625,-0.28125
1629880738937,-0.953125,0.15625,-0.265625
1629880738968,-0.953125,0.171875,-0.265625
1629880739000,-0.953125,0.15625,-0.265625
1629880739031,-0.953125,0.15625,-0.265625
1629880739062,-0.953125,0.15625,-0.265625
1629880739093,-0.953125,0.15625,-0.265625
1629880739125,-0.953125,0.15625,-0.265625
1629880739156,-0.953125,0.15625,-0.265625
1629880739187,-0.953125,0.171875,-0.265625
1629880739218,-0.953125,0.15625,-0.28125
1629880739250,-0.9375,0.15625,-0.265625
1629880739281,-0.953125,0.15625,-0.28125
1629880739312,-0.953125,0.15625,-0.28125
1629880739343,-0.953125,0.15625,-0.265625
1629880739375,-0.953125,0.15625,-0.265625
1629880739406,-0.953125,0.15625,-0.265625
1629880739437,-0.953125,0.15625,-0.265625
1629880739468,-0.953125,0.15625,-0.265625
1629880739500,-0.953125,0.15625,-0.265625
1629880739531,-0.953125,0.15625,-0.265625
1629880739562,-0.953125,0.15625,-0.265625
1629880739593,-0.953125,0.15625,-0.265625
1629880739625,-0.953125,0.15625,-0.265625
1629880739656,-0.953125,0.15625,-0.28125
1629880739687,-0.953125,0.15625,-0.265625
1629880739718,-0.953125,0.15625,-0.265625
1629880739750,-0.953125,0.15625,-0.265625
1629880739781,-0.953125,0.171875,-0.265625
1629880739812,-0.953125,0.15625,-0.265625
1629880739843,-0.953125,0.15625,-0.265625
1629880739875,-0.953125,0.15625,-0.265625
1629880739906,-0.9375,0.15625,-0.265625
1629880739937,-0.953125,0.15625,-0.28125
1629880739968,-0.953125,0.15625,-0.265625
1629880740000,-0.953125,0.171875,-0.28125
1629880740031,-0.953125,0.15625,-0.265625
1629880740062,-0.953125,0.15625,-0.265625
1629880740093,-0.9375,0.15625,-0.265625
1629880740125,-0.953125,0.171875,-0.265625
1629880740156,-0.953125,0.171875,-0.265625
1629880740187,-0.953125,0.171875,-0.265625
1629880740218,-0.953125,0.171875,-0.265625
1629880740250,-0.953125,0.15625,-0.28125
1629880740281,-0.953125,0.15625,-0.265625
1629880740312,-0.953125,0.15625,-0.265625
1629880740343,-0.953125,0.171875,-0.25
1629880740375,-0.953125,0.15625,-0.265625
1629880740406,-0.953125,0.15625,-0.25
1629880740437,-0.953125,0.15625,-0.25
1629880740468,-0.953125,0.15625,-0.25
1629880740500,-0.953125,0.15625,-0.25
1629880740531,-0.953125,0.15625,-0.25
1629880740562,-0.953125,0.15625,-0.25
1629880740593,-0.96875,0.15625,-0.25
1629880740625,-0.953125,0.15625,-0.25
1629880740656,-0.953125,0.15625,-0.25
1629880740687,-0.953125,0.15625,-0.25
1629880740718,-0.953125,0.15625,-0.234375
1629880740750,-0.953125,0.140625,-0.265625
1629880740781,-0.953125,0.15625,-0.25
1629880740812,-0.953125,0.15625,-0.25
1629880740843,-0.953125,0.15625,-0.25
1629880740875,-0.953125,0.15625,-0.234375
1629880740906,-0.953125,0.15625,-0.25
1629880740937,-0.953125,0.15625,-0.265625
1629880740968,-0.953125,0.15625,-0.265625
1629880741000,-0.953125,0.15625,-0.28125
1629880741031,-0.953125,0.15625,-0.265625
1629880741062,-0.953125,0.15625,-0.265625
1629880741093,-0.953125,0.15625,-0.265625
1629880741125,-0.953125,0.15625,-0.265625
1629880741156,-0.953125,0.15625,-0.265625
1629880741187,-0.953125,0.15625,-0.265625
1629880741218,-0.953125,0.15625,-0.265625
1629880741250,-0.953125,0.15625,-0.265625
1629880741281,-0.953125,0.15625,-0.265625
1629880741312,-0.953125,0.15625,-0.265625
1629880741343,-0.953125,0.15625,-0.265625
1629880741375,-0.953125,0.15625,-0.265625
1629880741406,-0.953125,0.15625,-0.265625
1629880741437,-0.953125,0.15625,-0.28125
1629880741468,-0.953125,0.15625,-0.265625
1629880741500,-0.953125,0.15625,-0.265625
1629880741531,-0.953125,0.15625,-0.265625
1629880741562,-0.953125,0.15625,-0.265625
1629880741593,-0.953125,0.15625,-0.265625
1629880741625,-0.953125,0.15625,-0.265625
1629880741656,-0.953125,0.15625,-0.265625
1629880741687,-0.953125,0.15625,-0.265625
1629880741718,-0.953125,0.15625,-0.265625
1629880741750,-0.953125,0.15625,-0.25
1629880741781,-0.953125,0.15625,-0.265625
1629880741812,-0.953125,0.15625,-0.265625
1629880741843,-0.96875,0.15625,-0.265625
1629880741875,-0.9375,0.15625,-0.234375
1629880741906,-0.953125,0.15625,-0.234375
1629880741937,-0.953125,0.15625,-0.25
1629880741968,-0.96875,0.140625,-0.265625
1629880742000,-0.953125,0.15625,-0.25
1629880742031,-0.953125,0.15625,-0.25
1629880742062,-0.953125,0.15625,-0.234375
1629880742093,-0.9375,0.15625,-0.234375
1629880742125,-0.953125,0.15625,-0.28125
1629880742156,-0.953125,0.15625,-0.28125
1629880742187,-0.953125,0.15625,-0.28125
1629880742218,-0.953125,0.15625,-0.28125
1629880742250,-0.953125,0.15625,-0.28125
1629880742281,-0.953125,0.15625,-0.265625
1629880742312,-0.953125,0.15625,-0.28125
1629880742343,-0.953125,0.15625,-0.28125
1629880742375,-0.953125,0.15625,-0.265625
1629880742406,-0.953125,0.15625,-0.28125
1629880742437,-0.953125,0.15625,-0.28125
1629880742468,-0.953125,0.15625,-0.265625
1629880742500,-0.9375,0.15625,-0.28125
1629880742531,-0.953125,0.15625,-0.28125
1629880742562,-0.9375,0.15625,-0.265625
1629880742593,-0.953125,0.15625,-0.28125
1629880742625,-0.953125,0.15625,-0.28125
1629880742656,-0.953125,0.15625,-0.28125
1629880742687,-0.9375,0.15625,-0.265625
1629880742718,-0.953125,0.15625,-0.265625
1629880742750,-0.953125,0.15625,-0.28125
1629880742781,-0.9375,0.15625,-0.28125
1629880742812,-0.953125,0.15625,-0.28125
1629880742843,-0.953125,0.15625,-0.28125
1629880742875,-0.953125,0.15625,-0.28125
1629880742906,-0.9375,0.171875,-0.25
1629880742937,-0.953125,0.15625,-0.28125
1629880742968,-0.953125,0.171875,-0.28125
1629880743000,-0.9375,0.15625,-0.265625
1629880743031,-0.9375,0.15625,-0.28125
1629880743062,-0.953125,0.15625,-0.28125
1629880743093,-0.953125,0.15625,-0.28125
1629880743125,-0.953125,0.15625,-0.28125
1629880743156,-0.953125,0.15625,-0.28125
1629880743187,-0.9375,0.15625,-0.265625
1629880743218,-0.953125,0.15625,-0.265625
1629880743250,-0.9375,0.15625,-0.28125
1629880743281,-0.9375,0.15625,-0.265625
1629880743312,-0.953125,0.15625,-0.28125
1629880743343,-0.953125,0.15625,-0.28125
1629880743375,-0.9375,0.15625,-0.265625
1629880743406,-0.953125,0.15625,-0.265625
1629880743437,-0.953125,0.15625,-0.28125
1629880743468,-0.953125,0.15625,-0.28125
1629880743500,-0.9375,0.15625,-0.265625
1629880743531,-0.953125,0.171875,-0.25
1629880743562,-0.953125,0.15625,-0.28125
1629880743593,-0.953125,0.15625,-0.265625
1629880743625,-0.953125,0.15625,-0.28125
1629880743656,-0.953125,0.171875,-0.234375
1629880743687,-0.953125,0.140625,-0.25
1629880743718,-0.953125,0.15625,-0.265625
1629880743750,-0.953125,0.140625,-0.265625
1629880743781,-0.953125,0.140625,-0.265625
1629880743812,-0.953125,0.15625,-0.265625
1629880743843,-0.953125,0.140625,-0.265625
1629880743875,-0.953125,0.140625,-0.265625
1629880743906,-0.953125,0.140625,-0.28125
1629880743937,-0.953125,0.140625,-0.25
1629880743968,-0.953125,0.140625,-0.28125
1629880744000,-0.953125,0.125,-0.28125
1629880744031,-0.953125,0.140625,-0.28125
1629880744062,-0.953125,0.140625,-0.28125
1629880744093,-0.953125,0.140625,-0.28125
1629880744125,-0.953125,0.140625,-0.28125
1629880744156,-0.953125,0.140625,-0.28125
1629880744187,-0.953125,0.140625,-0.296875
1629880744218,-0.9375,0.140625,-0.28125
1629880744250,-0.953125,0.140625,-0.28125
1629880744281,-0.953125,0.140625,-0.28125
1629880744312,-0.953125,0.140625,-0.296875
1629880744343,-0.953125,0.140625,-0.28125
1629880744375,-0.953125,0.140625,-0.28125
1629880744406,-0.953125,0.140625,-0.28125
1629880744437,-0.9375,0.140625,-0.28125
1629880744468,-0.9375,0.140625,-0.28125
1629880744500,-0.953125,0.15625,-0.28125
1629880744531,-0.953125,0.15625,-0.28125
1629880744562,-0.9375,0.15625,-0.28125
1629880744593,-0.953125,0.15625,-0.28125
1629880744625,-0.953125,0.15625,-0.28125
1629880744656,-0.9375,0.15625,-0.265625
1629880744687,-0.953125,0.15625,-0.28125
1629880744718,-0.953125,0.15625,-0.28125
1629880744750,-0.9375,0.15625,-0.28125
1629880744781,-0.953125,0.15625,-0.265625
1629880744812,-0.953125,0.15625,-0.28125
1629880744843,-0.953125,0.15625,-0.28125
1629880744875,-0.953125,0.15625,-0.28125
1629880744906,-0.953125,0.15625,-0.28125
1629880744937,-0.953125,0.15625,-0.265625
1629880744968,-0.9375,0.15625,-0.265625
1629880745000,-0.953125,0.15625,-0.265625
1629880745031,-0.953125,0.15625,-0.265625
1629880745062,-0.953125,0.15625,-0.28125
1629880745093,-0.953125,0.15625,-0.265625
1629880745125,-0.953125,0.15625,-0.265625
1629880745156,-0.953125,0.15625,-0.265625
1629880745187,-0.953125,0.15625,-0.265625
1629880745218,-0.953125,0.15625,-0.265625
1629880745250,-0.953125,0.15625,-0.265625
1629880745281,-0.953125,0.15625,-0.28125
1629880745312,-0.953125,0.15625,-0.265625
1629880745343,-0.953125,0.15625,-0.265625
1629880745375,-0.953125,0.15625,-0.265625
1629880745406,-0.953125,0.15625,-0.265625
1629880745437,-0.953125,0.15625,-0.265625
1629880745468,-0.953125,0.15625,-0.265625
1629880745500,-0.953125,0.15625,-0.265625
1629880745531,-0.953125,0.15625,-0.265625
1629880745562,-0.953125,0.15625,-0.265625
1629880745593,-0.953125,0.15625,-0.265625
1629880745625,-0.953125,0.15625,-0.265625
1629880745656,-0.953125,0.15625,-0.265625
1629880745687,-0.953125,0.15625,-0.265625
1629880745718,-0.953125,0.15625,-0.265625
1629880745750,-0.953125,0.15625,-0.265625
1629880745781,-0.953125,0.15625,-0.265625
1629880745812,-0.953125,0.15625,-0.265625
1629880745843,-0.953125,0.15625,-0.265625
1629880745875,-0.953125,0.15625,-0.265625
1629880745906,-0.953125,0.15625,-0.265625
1629880745937,-0.953125,0.15625,-0.265625
1629880745968,-0.953125,0.15625,-0.265625
1629880746000,-0.953125,0.15625,-0.265625
1629880746031,-0.953125,0.15625,-0.265625
1629880746062,-0.953125,0.15625,-0.265625
1629880746093,-0.953125,0.15625,-0.265625
1629880746125,-0.953125,0.15625,-0.265625
1629880746156,-0.953125,0.15625,-0.265625
1629880746187,-0.953125,0.15625,-0.28125
1629880746218,-0.953125,0.140625,-0.28125
1629880746250,-0.953125,0.15625,-0.265625
1629880746281,-0.953125,0.15625,-0.28125
1629880746312,-0.953125,0.140625,-0.28125
1629880746343,-0.953125,0.15625,-0.265625
1629880746375,-0.953125,0.15625,-0.28125
1629880746406,-0.953125,0.15625,-0.28125
1629880746437,-0.953125,0.15625,-0.28125
1629880746468,-0.953125,0.15625,-0.28125
1629880746500,-0.953125,0.15625,-0.28125
1629880746531,-0.953125,0.15625,-0.28125
1629880746562,-0.9375,0.15625,-0.28125
1629880746593,-0.953125,0.15625,-0.28125
1629880746625,-0.953125,0.15625,-0.28125
1629880746656,-0.953125,0.15625,-0.28125
1629880746687,-0.953125,0.15625,-0.28125
1629880746718,-0.953125,0.15625,-0.28125
1629880746750,-0.953125,0.15625,-0.28125
1629880746781,-0.953125,0.15625,-0.28125
1629880746812,-0.953125,0.15625,-0.28125
1629880746843,-0.953125,0.15625,-0.28125
1629880746875,-0.953125,0.15625,-0.265625
1629880746906,-0.953125,0.15625,-0.28125
1629880746937,-0.953125,0.15625,-0.265625
1629880746968,-0.953125,0.15625,-0.265625
1629880747000,-0.953125,0.15625,-0.296875
1629880747031,-0.953125,0.140625,-0.296875
1629880747062,-0.953125,0.140625,-0.28125
1629880747093,-0.953125,0.140625,-0.28125
1629880747125,-0.953125,0.140625,-0.28125
1629880747156,-0.9375,0.15625,-0.28125
1629880747187,-0.953125,0.140625,-0.28125
1629880747218,-0.9375,0.140625,-0.28125
1629880747250,-0.953125,0.140625,-0.28125
1629880747281,-0.953125,0.140625,-0.28125
1629880747312,-0.953125,0.140625,-0.28125
1629880747343,-0.953125,0.140625,-0.28125
1629880747375,-0.953125,0.125,-0.296875
1629880747406,-0.953125,0.15625,-0.265625
1629880747437,-0.953125,0.1875,-0.25
1629880747468,-0.9375,0.140625,-0.28125
1629880747500,-0.9375,0.15625,-0.28125
1629880747531,-0.953125,0.15625,-0.28125
1629880747562,-0.9375,0.15625,-0.28125
1629880747593,-0.953125,0.15625,-0.28125
1629880747625,-0.953125,0.15625,-0.28125
1629880747656,-0.953125,0.15625,-0.28125
1629880747687,-0.96875,0.140625,-0.296875
1629880747718,-0.9375,0.15625,-0.25
1629880747750,-0.953125,0.15625,-0.25
1629880747781,-0.953125,0.15625,-0.265625
1629880747812,-0.953125,0.15625,-0.265625
1629880747843,-0.953125,0.15625,-0.28125
1629880747875,-0.953125,0.15625,-0.25
1629880747906,-0.9375,0.15625,-0.25
1629880747937,-0.953125,0.15625,-0.265625
1629880747968,-0.953125,0.15625,-0.25
1629880748000,-0.953125,0.15625,-0.265625
1629880748031,-0.953125,0.15625,-0.265625
1629880748062,-0.953125,0.15625,-0.265625
1629880748093,-0.953125,0.15625,-0.265625
1629880748125,-0.953125,0.15625,-0.265625
1629880748156,-0.953125,0.15625,-0.265625
1629880748187,-0.953125,0.15625,-0.265625
1629880748218,-0.953125,0.15625,-0.265625
1629880748250,-0.953125,0.15625,-0.28125
1629880748281,-0.953125,0.140625,-0.28125
1629880748312,-0.953125,0.15625,-0.265625
1629880748343,-0.953125,0.140625,-0.28125
1629880748375,-0.953125,0.15625,-0.265625
1629880748406,-0.953125,0.15625,-0.25
1629880748437,-0.9375,0.15625,-0.265625
1629880748468,-0.953125,0.140625,-0.28125
1629880748500,-0.953125,0.15625,-0.28125
1629880748531,-0.9375,0.15625,-0.265625
1629880748562,-0.953125,0.15625,-0.28125
1629880748593,-0.953125,0.15625,-0.28125
1629880748625,-0.953125,0.15625,-0.28125
1629880748656,-0.953125,0.15625,-0.28125
1629880748687,-0.953125,0.15625,-0.28125
1629880748718,-0.953125,0.15625,-0.28125
1629880748750,-0.9375,0.15625,-0.28125
1629880748781,-0.9375,0.15625,-0.28125
1629880748812,-0.9375,0.15625,-0.28125
1629880748843,-0.953125,0.15625,-0.28125
1629880748875,-0.953125,0.15625,-0.28125
1629880748906,-0.953125,0.15625,-0.28125
1629880748937,-0.953125,0.15625,-0.28125
1629880748968,-0.953125,0.15625,-0.265625
1629880749000,-0.953125,0.15625,-0.28125
1629880749031,-0.953125,0.15625,-0.28125
1629880749062,-0.9375,0.15625,-0.28125
1629880749093,-0.953125,0.15625,-0.28125
1629880749125,-0.9375,0.15625,-0.28125
1629880749156,-0.9375,0.15625,-0.265625
1629880749187,-0.9375,0.15625,-0.265625
1629880749218,-0.953125,0.15625,-0.265625
1629880749250,-0.953125,0.15625,-0.265625
1629880749281,-0.953125,0.15625,-0.265625
1629880749312,-0.9375,0.15625,-0.265625
1629880749343,-0.953125,0.15625,-0.265625
1629880749375,-0.953125,0.15625,-0.28125
1629880749406,-0.953125,0.15625,-0.28125
1629880749437,-0.953125,0.15625,-0.28125
1629880749468,-0.953125,0.15625,-0.28125
1629880749500,-0.953125,0.15625,-0.28125
1629880749531,-0.953125,0.15625,-0.28125
1629880749562,-0.953125,0.15625,-0.265625
1629880749593,-0.953125,0.15625,-0.265625
1629880749625,-0.953125,0.15625,-0.28125
1629880749656,-0.953125,0.15625,-0.265625
1629880749687,-0.9375,0.15625,-0.265625
1629880749718,-0.953125,0.15625,-0.28125
1629880749750,-0.953125,0.15625,-0.265625
1629880749781,-0.953125,0.15625,-0.28125
1629880749812,-0.953125,0.15625,-0.265625
1629880749843,-0.953125,0.15625,-0.28125
1629880749875,-0.9375,0.15625,-0.265625
1629880749906,-0.9375,0.15625,-0.28125
1629880749937,-0.953125,0.15625,-0.28125
1629880749968,-0.953125,0.15625,-0.28125
1629880750000,-0.953125,0.15625,-0.28125
1629880750031,-0.953125,0.15625,-0.28125
1629880750062,-0.953125,0.15625,-0.28125
1629880750093,-0.953125,0.15625,-0.28125
1629880750125,-0.953125,0.15625,-0.28125
1629880750156,-0.953125,0.15625,-0.28125
1629880750187,-0.953125,0.15625,-0.28125
1629880750218,-0.9375,0.15625,-0.28125
1629880750250,-0.953125,0.15625,-0.28125
1629880750281,-0.9375,0.15625,-0.28125
1629880750312,-0.953125,0.15625,-0.28125
1629880750343,-0.953125,0.15625,-0.28125
1629880750375,-0.953125,0.15625,-0.28125
1629880750406,-0.953125,0.15625,-0.28125
1629880750437,-0.953125,0.15625,-0.296875
1629880750468,-0.953125,0.15625,-0.28125
1629880750500,-0.9375,0.171875,-0.265625
1629880750531,-0.9375,0.15625,-0.28125
1629880750562,-0.953125,0.15625,-0.28125
1629880750593,-0.953125,0.15625,-0.265625
1629880750625,-0.9375,0.15625,-0.265625
1629880750656,-0.953125,0.15625,-0.28125
1629880750687,-0.953125,0.15625,-0.28125
1629880750718,-0.953125,0.15625,-0.28125
1629880750750,-0.953125,0.15625,-0.28125
1629880750781,-0.9375,0.15625,-0.265625
1629880750812,-0.953125,0.15625,-0.265625
1629880750843,-0.953125,0.15625,-0.28125
1629880750875,-0.953125,0.15625,-0.265625
1629880750906,-0.9375,0.15625,-0.265625
1629880750937,-0.9375,0.15625,-0.28125
1629880750968,-0.953125,0.15625,-0.28125
1629880751000,-0.953125,0.15625,-0.28125
1629880751031,-0.953125,0.15625,-0.28125
1629880751062,-0.953125,0.15625,-0.28125
1629880751093,-0.953125,0.15625,-0.265625
1629880751125,-0.9375,0.171875,-0.265625
1629880751156,-0.953125,0.15625,-0.265625
1629880751187,-0.953125,0.15625,-0.265625
1629880751218,-0.953125,0.15625,-0.28125
1629880751250,-0.953125,0.15625,-0.265625
1629880751281,-0.953125,0.15625,-0.265625
1629880751312,-0.953125,0.171875,-0.265625
1629880751343,-0.953125,0.15625,-0.265625
1629880751375,-0.953125,0.15625,-0.265625
1629880751406,-0.953125,0.15625,-0.28125
1629880751437,-0.9375,0.15625,-0.28125
1629880751468,-0.953125,0.171875,-0.28125
1629880751500,-0.953125,0.171875,-0.28125
1629880751531,-0.9375,0.171875,-0.28125
1629880751562,-0.9375,0.171875,-0.28125
1629880751593,-0.953125,0.15625,-0.28125
1629880751625,-0.953125,0.15625,-0.265625
1629880751656,-0.953125,0.15625,-0.28125
1629880751687,-0.953125,0.15625,-0.28125
1629880751718,-0.953125,0.171875,-0.28125
1629880751750,-0.9375,0.171875,-0.265625
1629880751781,-0.953125,0.15625,-0.265625
1629880751812,-0.953125,0.15625,-0.265625
1629880751843,-0.953125,0.15625,-0.28125
1629880751875,-0.9375,0.15625,-0.265625
1629880751906,-0.953125,0.15625,-0.265625
1629880751937,-0.953125,0.15625,-0.265625
1629880751968,-0.953125,0.15625,-0.28125
1629880752000,-0.953125,0.171875,-0.265625
1629880752031,-0.953125,0.15625,-0.28125
1629880752062,-0.9375,0.15625,-0.28125
1629880752093,-0.9375,0.15625,-0.28125
1629880752125,-0.9375,0.15625,-0.265625
1629880752156,-0.953125,0.15625,-0.28125
1629880752187,-0.953125,0.15625,-0.28125
1629880752218,-0.953125,0.15625,-0.265625
1629880752250,-0.953125,0.15625,-0.28125
1629880752281,-0.953125,0.15625,-0.28125
1629880752312,-0.953125,0.15625,-0.265625
1629880752343,-0.953125,0.15625,-0.28125
1629880752375,-0.953125,0.15625,-0.28125
1629880752406,-0.953125,0.15625,-0.265625
1629880752437,-0.953125,0.171875,-0.265625
1629880752468,-0.9375,0.15625,-0.265625
1629880752500,-0.953125,0.15625,-0.265625
1629880752531,-0.953125,0.15625,-0.265625
1629880752562,-0.953125,0.171875,-0.265625
1629880752593,-0.9375,0.15625,-0.265625
1629880752625,-0.9375,0.15625,-0.265625
1629880752656,-0.953125,0.15625,-0.265625
1629880752687,-0.953125,0.15625,-0.265625
1629880752718,-0.953125,0.171875,-0.265625
1629880752750,-0.953125,0.15625,-0.265625
1629880752781,-0.953125,0.15625,-0.265625
1629880752812,-0.9375,0.15625,-0.28125
1629880752843,-0.9375,0.15625,-0.28125
1629880752875,-0.9375,0.171875,-0.28125
1629880752906,-0.9375,0.171875,-0.28125
1629880752937,-0.9375,0.15625,-0.28125
1629880752968,-0.953125,0.171875,-0.28125
1629880753000,-0.9375,0.171875,-0.265625
1629880753031,-0.9375,0.15625,-0.265625
1629880753062,-0.953125,0.15625,-0.28125
1629880753093,-0.953125,0.15625,-0.265625
1629880753125,-0.9375,0.15625,-0.265625
1629880753156,-0.953125,0.15625,-0.265625
1629880753187,-0.953125,0.15625,-0.28125
1629880753218,-0.953125,0.15625,-0.265625
1629880753250,-0.953125,0.15625,-0.28125
1629880753281,-0.9375,0.171875,-0.28125
1629880753312,-0.953125,0.171875,-0.28125
1629880753343,-0.953125,0.171875,-0.28125
1629880753375,-0.953125,0.15625,-0.28125
1629880753406,-0.953125,0.15625,-0.28125
1629880753437,-0.953125,0.15625,-0.28125
1629880753468,-0.9375,0.15625,-0.265625
1629880753500,-0.953125,0.15625,-0.265625
1629880753531,-0.953125,0.171875,-0.265625
1629880753562,-0.953125,0.15625,-0.265625
1629880753593,-0.953125,0.171875,-0.265625
1629880753625,-0.953125,0.15625,-0.265625
1629880753656,-0.953125,0.15625,-0.265625
1629880753687,-0.953125,0.15625,-0.28125
1629880753718,-0.9375,0.15625,-0.265625
1629880753750,-0.9375,0.171875,-0.265625
1629880753781,-0.953125,0.15625,-0.28125
1629880753812,-0.953125,0.15625,-0.28125
1629880753843,-0.953125,0.171875,-0.265625
1629880753875,-0.953125,0.15625,-0.265625
1629880753906,-0.953125,0.15625,-0.28125
1629880753937,-0.953125,0.15625,-0.28125
1629880753968,-0.953125,0.15625,-0.28125
1629880754000,-0.953125,0.15625,-0.28125
1629880754031,-0.953125,0.15625,-0.28125
1629880754062,-0.953125,0.15625,-0.28125
1629880754093,-0.953125,0.15625,-0.28125
1629880754125,-0.9375,0.15625,-0.28125
1629880754156,-0.953125,0.15625,-0.265625
1629880754187,-0.953125,0.15625,-0.28125
1629880754218,-0.9375,0.15625,-0.28125
1629880754250,-0.953125,0.15625,-0.28125
1629880754281,-0.953125,0.15625,-0.28125
1629880754312,-0.9375,0.15625,-0.28125
1629880754343,-0.953125,0.15625,-0.28125
1629880754375,-0.953125,0.15625,-0.28125
1629880754406,-0.953125,0.15625,-0.28125
1629880754437,-0.953125,0.15625,-0.28125
1629880754468,-0.9375,0.171875,-0.28125
1629880754500,-0.953125,0.171875,-0.28125
1629880754531,-0.953125,0.15625,-0.28125
1629880754562,-0.953125,0.15625,-0.28125
1629880754593,-0.953125,0.15625,-0.28125
1629880754625,-0.953125,0.15625,-0.28125
1629880754656,-0.953125,0.15625,-0.28125
1629880754687,-0.953125,0.15625,-0.28125
1629880754718,-0.953125,0.15625,-0.265625
1629880754750,-0.9375,0.15625,-0.265625
1629880754781,-0.953125,0.15625,-0.28125
1629880754812,-0.9375,0.15625,-0.265625
1629880754843,-0.9375,0.15625,-0.265625
1629880754875,-0.9375,0.15625,-0.28125
1629880754906,-0.9375,0.15625,-0.28125
1629880754937,-0.9375,0.15625,-0.28125
1629880754968,-0.953125,0.15625,-0.28125
1629880755000,-0.953125,0.15625,-0.28125
1629880755031,-0.9375,0.171875,-0.28125
1629880755062,-0.953125,0.15625,-0.28125
1629880755093,-0.953125,0.15625,-0.28125
1629880755125,-0.9375,0.15625,-0.28125
1629880755156,-0.953125,0.15625,-0.28125
1629880755187,-0.953125,0.15625,-0.28125
1629880755218,-0.953125,0.15625,-0.28125
1629880755250,-0.953125,0.171875,-0.265625
1629880755281,-0.953125,0.15625,-0.28125
1629880755312,-0.953125,0.15625,-0.28125
1629880755343,-0.953125,0.15625,-0.28125
1629880755375,-0.9375,0.15625,-0.28125
1629880755406,-0.953125,0.15625,-0.28125
1629880755437,-0.9375,0.15625,-0.28125
1629880755468,-0.9375,0.15625,-0.28125
1629880755500,-0.953125,0.15625,-0.28125
1629880755531,-0.953125,0.15625,-0.28125
1629880755562,-0.953125,0.15625,-0.265625
1629880755593,-0.953125,0.15625,-0.265625
1629880755625,-0.9375,0.15625,-0.25
1629880755656,-0.9375,0.15625,-0.265625
1629880755687,-0.96875,0.171875,-0.296875
1629880755718,-0.96875,0.15625,-0.296875
1629880755750,-0.9375,0.171875,-0.28125
1629880755781,-0.9375,0.15625,-0.28125
1629880755812,-0.921875,0.15625,-0.28125
1629880755843,-0.9375,0.15625,-0.28125
1629880755875,-0.953125,0.15625,-0.28125
1629880755906,-0.953125,0.171875,-0.28125
1629880755937,-0.953125,0.15625,-0.28125
1629880755968,-0.953125,0.15625,-0.28125
1629880756000,-0.953125,0.15625,-0.25
1629880756031,-0.9375,0.15625,-0.25
1629880756062,-0.953125,0.15625,-0.265625
1629880756093,-0.953125,0.171875,-0.28125
1629880756125,-0.953125,0.171875,-0.28125
1629880756156,-0.953125,0.171875,-0.28125
1629880756187,-0.9375,0.15625,-0.28125
1629880756218,-0.9375,0.15625,-0.265625
1629880756250,-0.953125,0.171875,-0.28125
1629880756281,-0.953125,0.171875,-0.28125
1629880756312,-0.9375,0.171875,-0.265625
1629880756343,-0.953125,0.15625,-0.28125
1629880756375,-0.953125,0.15625,-0.28125
1629880756406,-0.953125,0.15625,-0.28125
1629880756437,-0.953125,0.15625,-0.28125
1629880756468,-0.9375,0.15625,-0.265625
1629880756500,-0.953125,0.15625,-0.28125
1629880756531,-0.953125,0.15625,-0.28125
1629880756562,-0.953125,0.15625,-0.265625
1629880756593,-0.953125,0.15625,-0.28125
1629880756625,-0.9375,0.15625,-0.28125
1629880756656,-0.953125,0.171875,-0.265625
1629880756687,-0.953125,0.15625,-0.28125
1629880756718,-0.953125,0.171875,-0.265625
1629880756750,-0.953125,0.15625,-0.265625
1629880756781,-0.953125,0.15625,-0.28125
1629880756812,-0.953125,0.15625,-0.28125
1629880756843,-0.9375,0.171875,-0.265625
1629880756875,-0.953125,0.15625,-0.265625
1629880756906,-0.953125,0.15625,-0.28125
1629880756937,-0.953125,0.15625,-0.28125
1629880756968,-0.9375,0.171875,-0.265625
1629880757000,-0.9375,0.171875,-0.265625
1629880757031,-0.953125,0.171875,-0.28125
1629880757062,-0.953125,0.15625,-0.265625
1629880757093,-0.953125,0.15625,-0.265625
1629880757125,-0.953125,0.15625,-0.265625
1629880757156,-0.953125,0.15625,-0.265625
1629880757187,-0.953125,0.15625,-0.28125
1629880757218,-0.953125,0.171875,-0.28125
1629880757250,-0.953125,0.171875,-0.265625
1629880757281,-0.9375,0.171875,-0.265625
1629880757312,-0.953125,0.171875,-0.28125
1629880757343,-0.953125,0.15625,-0.28125
1629880757375,-0.9375,0.171875,-0.265625
1629880757406,-0.9375,0.171875,-0.265625
1629880757437,-0.953125,0.15625,-0.265625
1629880757468,-0.953125,0.15625,-0.28125
1629880757500,-0.953125,0.171875,-0.265625
1629880757531,-0.953125,0.171875,-0.265625
1629880757562,-0.953125,0.15625,-0.265625
1629880757593,-0.953125,0.15625,-0.265625
1629880757625,-0.953125,0.15625,-0.265625
1629880757656,-0.9375,0.171875,-0.265625
1629880757687,-0.953125,0.171875,-0.265625
1629880757718,-0.953125,0.15625,-0.265625
1629880757750,-0.953125,0.171875,-0.28125
1629880757781,-0.953125,0.171875,-0.265625
1629880757812,-0.9375,0.171875,-0.265625
1629880757843,-0.953125,0.15625,-0.265625
1629880757875,-0.953125,0.15625,-0.28125
1629880757906,-0.953125,0.15625,-0.265625
1629880757937,-0.9375,0.171875,-0.265625
1629880757968,-0.9375,0.15625,-0.265625
1629880758000,-0.953125,0.15625,-0.265625
1629880758031,-0.953125,0.171875,-0.265625
1629880758062,-0.953125,0.171875,-0.265625
1629880758093,-0.953125,0.15625,-0.265625
1629880758125,-0.9375,0.15625,-0.265625
1629880758156,-0.953125,0.171875,-0.28125
1629880758187,-0.953125,0.171875,-0.28125
1629880758218,-0.9375,0.15625,-0.28125
1629880758250,-0.953125,0.15625,-0.28125
1629880758281,-0.9375,0.15625,-0.28125
1629880758312,-0.953125,0.15625,-0.28125
1629880758343,-0.953125,0.15625,-0.28125
1629880758375,-0.953125,0.15625,-0.265625
1629880758406,-0.953125,0.15625,-0.265625
1629880758437,-0.953125,0.171875,-0.28125
1629880758468,-0.9375,0.171875,-0.265625
1629880758500,-0.953125,0.15625,-0.265625
1629880758531,-0.953125,0.15625,-0.265625
1629880758562,-0.9375,0.15625,-0.265625
1629880758593,-0.953125,0.171875,-0.265625
1629880758625,-0.953125,0.171875,-0.265625
1629880758656,-0.953125,0.171875,-0.28125
1629880758687,-0.953125,0.15625,-0.28125
1629880758718,-0.953125,0.15625,-0.265625
1629880758750,-0.953125,0.15625,-0.265625
1629880758781,-0.953125,0.15625,-0.265625
1629880758812,-0.953125,0.171875,-0.265625
1629880758843,-0.953125,0.15625,-0.265625
1629880758875,-0.953125,0.15625,-0.28125
1629880758906,-0.953125,0.15625,-0.265625
1629880758937,-0.953125,0.171875,-0.265625
1629880758968,-0.953125,0.171875,-0.28125
1629880759000,-0.953125,0.171875,-0.28125
1629880759031,-0.9375,0.171875,-0.265625
1629880759062,-0.9375,0.171875,-0.265625
1629880759093,-0.953125,0.171875,-0.265625
1629880759125,-0.953125,0.171875,-0.28125
1629880759156,-0.953125,0.171875,-0.28125
1629880759187,-0.953125,0.171875,-0.265625
1629880759218,-0.953125,0.171875,-0.265625
1629880759250,-0.953125,0.171875,-0.265625
1629880759281,-0.9375,0.171875,-0.25
1629880759312,-0.953125,0.171875,-0.25
1629880759343,-0.9375,0.171875,-0.25
1629880759375,-0.9375,0.171875,-0.25
1629880759406,-0.953125,0.171875,-0.265625
1629880759437,-0.953125,0.171875,-0.265625
1629880759468,-0.96875,0.15625,-0.25
1629880759500,-0.9375,0.171875,-0.21875
1629880759531,-0.9375,0.171875,-0.21875
1629880759562,-0.96875,0.171875,-0.234375
1629880759593,-0.953125,0.171875,-0.25
1629880759625,-0.953125,0.171875,-0.25
1629880759656,-0.953125,0.171875,-0.25
1629880759687,-0.953125,0.171875,-0.234375
1629880759718,-0.953125,0.171875,-0.234375
1629880759750,-0.953125,0.171875,-0.234375
1629880759781,-0.953125,0.171875,-0.25
1629880759812,-0.953125,0.171875,-0.25
1629880759843,-0.96875,0.1875,-0.265625
1629880759875,-0.953125,0.171875,-0.25
1629880759906,-0.953125,0.171875,-0.265625
1629880759937,-0.953125,0.171875,-0.265625
1629880759968,-0.953125,0.171875,-0.265625
1629880760000,-0.9375,0.171875,-0.25
1629880760031,-0.953125,0.171875,-0.265625
1629880760062,-0.953125,0.171875,-0.265625
1629880760093,-0.953125,0.171875,-0.265625
1629880760125,-0.953125,0.171875,-0.265625
1629880760156,-0.953125,0.171875,-0.265625
1629880760187,-0.953125,0.171875,-0.25
1629880760218,-0.953125,0.171875,-0.265625
1629880760250,-0.953125,0.171875,-0.265625
1629880760281,-0.953125,0.171875,-0.265625
1629880760312,-0.953125,0.171875,-0.265625
1629880760343,-0.9375,0.171875,-0.265625
1629880760375,-0.953125,0.171875,-0.265625
1629880760406,-0.953125,0.171875,-0.265625
1629880760437,-0.953125,0.171875,-0.25
1629880760468,-0.953125,0.171875,-0.265625
1629880760500,-0.953125,0.171875,-0.265625
1629880760531,-0.953125,0.171875,-0.265625
1629880760562,-0.953125,0.171875,-0.25
1629880760593,-0.953125,0.171875,-0.25
1629880760625,-0.953125,0.171875,-0.265625
1629880760656,-0.953125,0.171875,-0.265625
1629880760687,-0.953125,0.171875,-0.25
1629880760718,-0.953125,0.171875,-0.25
1629880760750,-0.9375,0.171875,-0.265625
1629880760781,-0.9375,0.171875,-0.25
1629880760812,-0.953125,0.171875,-0.265625
1629880760843,-0.953125,0.171875,-0.265625
1629880760875,-0.953125,0.171875,-0.265625
1629880760906,-0.953125,0.171875,-0.265625
1629880760937,-0.953125,0.171875,-0.265625
1629880760968,-0.953125,0.171875,-0.265625
1629880761000,-0.9375,0.171875,-0.265625
1629880761031,-0.9375,0.171875,-0.265625
1629880761062,-0.953125,0.171875,-0.265625
1629880761093,-0.953125,0.171875,-0.265625
1629880761125,-0.9375,0.171875,-0.265625
1629880761156,-0.953125,0.171875,-0.265625
1629880761187,-0.953125,0.171875,-0.28125
1629880761218,-0.953125,0.171875,-0.265625
1629880761250,-0.9375,0.171875,-0.265625
1629880761281,-0.9375,0.171875,-0.28125
1629880761312,-0.953125,0.171875,-0.28125
1629880761343,-0.9375,0.171875,-0.265625
1629880761375,-0.953125,0.171875,-0.28125
1629880761406,-0.953125,0.15625,-0.265625
1629880761437,-0.953125,0.15625,-0.265625
1629880761468,-0.953125,0.15625,-0.265625
1629880761500,-0.953125,0.15625,-0.265625
1629880761531,-0.953125,0.15625,-0.265625
1629880761562,-0.953125,0.15625,-0.265625
1629880761593,-0.953125,0.15625,-0.265625
1629880761625,-0.953125,0.15625,-0.265625
1629880761656,-0.953125,0.15625,-0.265625
1629880761687,-0.953125,0.15625,-0.265625
1629880761718,-0.953125,0.15625,-0.265625
1629880761750,-0.953125,0.171875,-0.265625
1629880761781,-0.953125,0.171875,-0.265625
1629880761812,-0.96875,0.15625,-0.28125
1629880761843,-0.9375,0.171875,-0.25
1629880761875,-0.9375,0.171875,-0.234375
1629880761906,-0.953125,0.140625,-0.265625
1629880761937,-0.953125,0.140625,-0.28125
1629880761968,-0.953125,0.140625,-0.265625
1629880762000,-0.953125,0.140625,-0.28125
1629880762031,-0.953125,0.140625,-0.28125
1629880762062,-0.953125,0.140625,-0.265625
1629880762093,-0.953125,0.140625,-0.265625
1629880762125,-0.953125,0.15625,-0.265625
1629880762156,-0.953125,0.171875,-0.28125
1629880762187,-0.953125,0.171875,-0.265625
1629880762218,-0.953125,0.15625,-0.265625
1629880762250,-0.9375,0.15625,-0.265625
1629880762281,-0.953125,0.15625,-0.265625
1629880762312,-0.953125,0.15625,-0.265625
1629880762343,-0.953125,0.15625,-0.265625
1629880762375,-0.953125,0.171875,-0.265625
1629880762406,-0.953125,0.171875,-0.265625
1629880762437,-0.953125,0.15625,-0.265625
1629880762468,-0.953125,0.15625,-0.265625
1629880762500,-0.953125,0.15625,-0.265625
1629880762531,-0.953125,0.15625,-0.265625
1629880762562,-0.953125,0.15625,-0.28125
1629880762593,-0.953125,0.15625,-0.28125
1629880762625,-0.953125,0.15625,-0.265625
1629880762656,-0.9375,0.15625,-0.265625
1629880762687,-0.953125,0.15625,-0.28125
1629880762718,-0.953125,0.15625,-0.28125
1629880762750,-0.9375,0.15625,-0.265625
1629880762781,-0.953125,0.171875,-0.265625
1629880762812,-0.9375,0.171875,-0.28125
1629880762843,-0.953125,0.15625,-0.265625
1629880762875,-0.953125,0.15625,-0.296875
1629880762906,-0.953125,0.15625,-0.296875
1629880762937,-0.9375,0.171875,-0.234375
1629880762968,-0.953125,0.15625,-0.25
1629880763000,-0.953125,0.171875,-0.265625
1629880763031,-0.953125,0.15625,-0.265625
1629880763062,-0.953125,0.171875,-0.265625
1629880763093,-0.953125,0.171875,-0.265625
1629880763125,-0.953125,0.171875,-0.265625
1629880763156,-0.953125,0.15625,-0.265625
1629880763187,-0.953125,0.171875,-0.28125
1629880763218,-0.9375,0.171875,-0.265625
1629880763250,-0.953125,0.171875,-0.265625
1629880763281,-0.953125,0.171875,-0.265625
1629880763312,-0.953125,0.171875,-0.265625
1629880763343,-0.953125,0.171875,-0.265625
1629880763375,-0.9375,0.171875,-0.265625
1629880763406,-0.953125,0.171875,-0.265625
1629880763437,-0.953125,0.15625,-0.28125
1629880763468,-0.9375,0.171875,-0.28125
1629880763500,-0.9375,0.171875,-0.265625
1629880763531,-0.953125,0.171875,-0.265625
1629880763562,-0.953125,0.171875,-0.28125
1629880763593,-0.9375,0.171875,-0.28125
1629880763625,-0.953125,0.171875,-0.28125
1629880763656,-0.9375,0.15625,-0.265625
1629880763687,-0.953125,0.171875,-0.28125
1629880763718,-0.953125,0.171875,-0.28125
1629880763750,-0.9375,0.171875,-0.28125
1629880763781,-0.9375,0.15625,-0.265625
1629880763812,-0.9375,0.171875,-0.28125
1629880763843,-0.953125,0.171875,-0.28125
1629880763875,-0.9375,0.15625,-0.28125
1629880763906,-0.9375,0.171875,-0.28125
1629880763937,-0.9375,0.171875,-0.28125
1629880763968,-0.9375,0.171875,-0.28125
1629880764000,-0.9375,0.171875,-0.28125
1629880764031,-0.953125,0.171875,-0.265625
1629880764062,-0.953125,0.171875,-0.28125
1629880764093,-0.9375,0.171875,-0.265625
1629880764125,-0.9375,0.15625,-0.28125
1629880764156,-0.9375,0.15625,-0.296875
1629880764187,-0.953125,0.15625,-0.28125
1629880764218,-0.953125,0.15625,-0.296875
1629880764250,-0.9375,0.15625,-0.296875
1629880764281,-0.9375,0.15625,-0.296875
1629880764312,-0.9375,0.15625,-0.28125
1629880764343,-0.9375,0.15625,-0.28125
1629880764375,-0.9375,0.171875,-0.296875
1629880764406,-0.953125,0.15625,-0.296875
1629880764437,-0.953125,0.15625,-0.296875
1629880764468,-0.9375,0.15625,-0.28125
1629880764500,-0.9375,0.15625,-0.28125
1629880764531,-0.9375,0.15625,-0.28125
1629880764562,-0.9375,0.15625,-0.28125
1629880764593,-0.9375,0.15625,-0.28125
1629880764625,-0.9375,0.15625,-0.28125
1629880764656,-0.953125,0.15625,-0.28125
1629880764687,-0.953125,0.15625,-0.28125
1629880764718,-0.984375,0.15625,-0.296875
1629880764750,-0.96875,0.15625,-0.28125
1629880764781,-0.9375,0.15625,-0.265625
1629880764812,-0.921875,0.171875,-0.25
1629880764843,-0.953125,0.171875,-0.25
1629880764875,-0.953125,0.171875,-0.25
1629880764906,-0.953125,0.1875,-0.234375
1629880764937,-0.953125,0.203125,-0.21875
1629880764968,-0.953125,0.171875,-0.234375
1629880765000,-0.921875,0.140625,-0.28125
1629880765031,-0.9375,0.140625,-0.25
1629880765062,-0.953125,0.15625,-0.265625
1629880765093,-0.96875,0.15625,-0.28125
1629880765125,-0.953125,0.125,-0.3125
1629880765156,-0.9375,0.0625,-0.28125
1629880765187,-0.96875,0.140625,-0.25
1629880765218,-0.96875,0.15625,-0.234375
1629880765250,-0.9375,0.1875,-0.203125
1629880765281,-0.9375,0.203125,-0.1875
1629880765312,-0.953125,0.1875,-0.203125
1629880765343,-0.921875,0.15625,-0.265625
1629880765375,-0.921875,0.140625,-0.296875
1629880765406,-1.0,0.140625,-0.265625
1629880765437,-0.984375,0.171875,-0.21875
1629880765468,-0.953125,0.171875,-0.21875
1629880765500,-0.953125,0.140625,-0.25
1629880765531,-0.96875,0.140625,-0.234375
1629880765562,-0.953125,0.171875,-0.1875
1629880765593,-0.96875,0.171875,-0.203125
1629880765625,-0.96875,0.171875,-0.234375
1629880765656,-0.96875,0.171875,-0.21875
1629880765687,-0.96875,0.1875,-0.203125
1629880765718,-0.953125,0.171875,-0.1875
1629880765750,-0.96875,0.171875,-0.171875
1629880765781,-0.953125,0.140625,-0.1875
1629880765812,-0.96875,0.125,-0.1875
1629880765843,-0.96875,0.140625,-0.1875
1629880765875,-0.984375,0.140625,-0.21875
1629880765906,-0.96875,0.140625,-0.1875
1629880765937,-0.96875,0.15625,-0.1875
1629880765968,-0.96875,0.15625,-0.171875
1629880766000,-0.96875,0.15625,-0.203125
1629880766031,-0.96875,0.140625,-0.1875
1629880766062,-0.96875,0.171875,-0.15625
1629880766093,-0.9375,0.109375,-0.15625
1629880766125,-0.984375,0.140625,-0.171875
1629880766156,-0.984375,0.140625,-0.203125
1629880766187,-0.96875,0.15625,-0.203125
1629880766218,-0.953125,0.15625,-0.1875
1629880766250,-0.96875,0.15625,-0.171875
1629880766281,-0.984375,0.171875,-0.1875
1629880766312,-0.96875,0.1875,-0.15625
1629880766343,-0.96875,0.203125,-0.171875
1629880766375,-0.984375,0.203125,-0.203125
1629880766406,-0.984375,0.1875,-0.21875
1629880766437,-0.96875,0.203125,-0.171875
1629880766468,-0.953125,0.1875,-0.140625
1629880766500,-0.9375,0.1875,-0.125
1629880766531,-0.9375,0.171875,-0.125
1629880766562,-0.953125,0.203125,-0.140625
1629880766593,-0.953125,0.234375,-0.171875
1629880766625,-0.9375,0.234375,-0.15625
1629880766656,-0.953125,0.25,-0.171875
1629880766687,-0.953125,0.234375,-0.234375
1629880766718,-0.9375,0.234375,-0.234375
1629880766750,-0.921875,0.25,-0.25
1629880766781,-0.921875,0.265625,-0.265625
1629880766812,-0.921875,0.28125,-0.296875
1629880766843,-0.921875,0.265625,-0.359375
1629880766875,-0.921875,0.265625,-0.375
1629880766906,-0.90625,0.234375,-0.34375
1629880766937,-0.9375,0.265625,-0.328125
1629880766968,-0.9375,0.265625,-0.3125
1629880767000,-0.921875,0.28125,-0.265625
1629880767031,-0.9375,0.296875,-0.265625
1629880767062,-0.9375,0.28125,-0.25
1629880767093,-0.921875,0.25,-0.21875
1629880767125,-0.9375,0.234375,-0.203125
1629880767156,-0.9375,0.21875,-0.1875
1629880767187,-0.9375,0.203125,-0.171875
1629880767218,-0.9375,0.203125,-0.1875
1629880767250,-0.953125,0.21875,-0.203125
1629880767281,-0.953125,0.21875,-0.203125
1629880767312,-0.921875,0.234375,-0.203125
1629880767343,-0.9375,0.25,-0.234375
1629880767375,-0.953125,0.234375,-0.234375
1629880767406,-0.9375,0.234375,-0.25
1629880767437,-0.9375,0.234375,-0.25
1629880767468,-0.9375,0.21875,-0.25
1629880767500,-0.953125,0.21875,-0.265625
1629880767531,-0.953125,0.203125,-0.28125
1629880767562,-0.9375,0.203125,-0.265625
1629880767593,-0.953125,0.203125,-0.28125
1629880767625,-0.953125,0.203125,-0.265625
1629880767656,-0.953125,0.203125,-0.265625
1629880767687,-0.953125,0.203125,-0.265625
1629880767718,-0.953125,0.203125,-0.296875
1629880767750,-0.953125,0.171875,-0.21875
1629880767781,-0.9375,0.1875,-0.140625
1629880767812,-0.953125,0.171875,-0.171875
1629880767843,-0.953125,0.15625,-0.171875
1629880767875,-0.9375,0.1875,-0.171875
1629880767906,-0.96875,0.21875,-0.203125
1629880767937,-0.96875,0.234375,-0.21875
1629880767968,-0.9375,0.25,-0.203125
1629880768000,-0.921875,0.25,-0.203125
1629880768031,-0.96875,0.21875,-0.28125
1629880768062,-0.984375,0.171875,-0.328125
1629880768093,-1.03125,0.203125,-0.265625
1629880768125,-0.953125,0.1875,-0.203125
1629880768156,-0.96875,0.1875,-0.25
1629880768187,-0.96875,0.1875,-0.234375
1629880768218,-0.953125,0.203125,-0.171875
1629880768250,-0.953125,0.21875,-0.15625
1629880768281,-0.90625,0.234375,-0.140625
1629880768312,-0.875,0.25,-0.140625
1629880768343,-0.9375,0.21875,-0.25
1629880768375,-0.953125,0.265625,-0.40625
1629880768406,-0.9375,0.265625,-0.421875
1629880768437,-0.90625,0.265625,-0.296875
1629880768468,-0.890625,0.28125,-0.265625
1629880768500,-0.90625,0.28125,-0.234375
1629880768531,-0.875,0.25,-0.328125
1629880768562,-0.875,0.234375,-0.359375
1629880768593,-0.890625,0.234375,-0.390625
1629880768625,-0.875,0.25,-0.4375
1629880768656,-0.875,0.25,-0.5
1629880768687,-0.828125,0.28125,-0.484375
1629880768718,-0.828125,0.296875,-0.484375
1629880768750,-0.8125,0.34375,-0.5
1629880768781,-0.8125,0.34375,-0.5
1629880768812,-0.84375,0.328125,-0.5
1629880768843,-0.828125,0.265625,-0.46875
1629880768875,-0.84375,0.265625,-0.484375
1629880768906,-0.859375,0.203125,-0.46875
1629880768937,-0.875,0.203125,-0.421875
1629880768968,-0.890625,0.203125,-0.40625
1629880769000,-0.875,0.203125,-0.390625
1629880769031,-0.875,0.203125,-0.40625
1629880769062,-0.890625,0.203125,-0.421875
1629880769093,-0.890625,0.21875,-0.40625
1629880769125,-0.890625,0.234375,-0.40625
1629880769156,-0.875,0.234375,-0.40625
1629880769187,-0.890625,0.234375,-0.40625
1629880769218,-0.90625,0.21875,-0.40625
1629880769250,-0.890625,0.21875,-0.359375
1629880769281,-0.890625,0.203125,-0.390625
1629880769312,-0.875,0.203125,-0.375
1629880769343,-0.890625,0.203125,-0.375
1629880769375,-0.90625,0.1875,-0.40625
1629880769406,-0.90625,0.203125,-0.390625
1629880769437,-0.90625,0.203125,-0.375
1629880769468,-0.890625,0.203125,-0.359375
1629880769500,-0.90625,0.203125,-0.375
1629880769531,-0.90625,0.203125,-0.375
1629880769562,-0.921875,0.21875,-0.375
1629880769593,-0.921875,0.203125,-0.375
1629880769625,-0.90625,0.203125,-0.34375
1629880769656,-0.90625,0.1875,-0.34375
1629880769687,-0.90625,0.203125,-0.34375
1629880769718,-0.90625,0.1875,-0.359375
1629880769750,-0.90625,0.1875,-0.359375
1629880769781,-0.90625,0.1875,-0.375
1629880769812,-0.921875,0.1875,-0.375
1629880769843,-0.921875,0.1875,-0.375
1629880769875,-0.90625,0.1875,-0.359375
1629880769906,-0.921875,0.1875,-0.359375
1629880769937,-0.90625,0.203125,-0.375
1629880769968,-0.9375,0.21875,-0.359375
1629880770000,-0.90625,0.1875,-0.34375
1629880770031,-0.90625,0.1875,-0.34375
1629880770062,-0.90625,0.1875,-0.34375
1629880770093,-0.921875,0.203125,-0.34375
1629880770125,-0.921875,0.1875,-0.34375
1629880770156,-0.921875,0.1875,-0.34375
1629880770187,-0.921875,0.1875,-0.34375
1629880770218,-0.921875,0.1875,-0.34375
1629880770250,-0.921875,0.1875,-0.34375
1629880770281,-0.921875,0.1875,-0.34375
1629880770312,-0.921875,0.1875,-0.359375
1629880770343,-0.921875,0.1875,-0.34375
1629880770375,-0.921875,0.1875,-0.34375
1629880770406,-0.921875,0.1875,-0.34375
1629880770437,-0.90625,0.203125,-0.34375
1629880770468,-0.921875,0.1875,-0.34375
1629880770500,-0.90625,0.1875,-0.359375
1629880770531,-0.90625,0.1875,-0.359375
1629880770562,-0.90625,0.1875,-0.359375
1629880770593,-0.921875,0.1875,-0.359375
1629880770625,-0.90625,0.1875,-0.359375
1629880770656,-0.90625,0.1875,-0.359375
1629880770687,-0.921875,0.1875,-0.359375
1629880770718,-0.90625,0.1875,-0.359375
1629880770750,-0.921875,0.1875,-0.375
1629880770781,-0.90625,0.1875,-0.359375
1629880770812,-0.921875,0.1875,-0.359375
1629880770843,-0.921875,0.1875,-0.359375
1629880770875,-0.921875,0.1875,-0.34375
1629880770906,-0.921875,0.1875,-0.34375
1629880770937,-0.921875,0.1875,-0.359375
1629880770968,-0.921875,0.1875,-0.34375
1629880771000,-0.90625,0.1875,-0.359375
1629880771031,-0.921875,0.1875,-0.359375
1629880771062,-0.90625,0.1875,-0.359375
1629880771093,-0.921875,0.1875,-0.359375
1629880771125,-0.90625,0.1875,-0.359375
1629880771156,-0.90625,0.1875,-0.359375
1629880771187,-0.921875,0.1875,-0.359375
1629880771218,-0.90625,0.1875,-0.359375
1629880771250,-0.90625,0.1875,-0.359375
1629880771281,-0.921875,0.1875,-0.359375
1629880771312,-0.921875,0.1875,-0.375
1629880771343,-0.921875,0.1875,-0.375
1629880771375,-0.90625,0.171875,-0.359375
1629880771406,-0.921875,0.171875,-0.375
1629880771437,-0.90625,0.171875,-0.375
1629880771468,-0.90625,0.171875,-0.375
1629880771500,-0.90625,0.171875,-0.375
1629880771531,-0.90625,0.1875,-0.359375
1629880771562,-0.921875,0.1875,-0.359375
1629880771593,-0.921875,0.1875,-0.375
1629880771625,-0.90625,0.1875,-0.34375
1629880771656,-0.921875,0.1875,-0.34375
1629880771687,-0.921875,0.171875,-0.34375
1629880771718,-0.921875,0.171875,-0.359375
1629880771750,-0.921875,0.1875,-0.359375
1629880771781,-0.921875,0.1875,-0.359375
1629880771812,-0.921875,0.1875,-0.359375
1629880771843,-0.921875,0.171875,-0.359375
1629880771875,-0.921875,0.1875,-0.359375
1629880771906,-0.921875,0.1875,-0.359375
1629880771937,-0.921875,0.1875,-0.359375
1629880771968,-0.90625,0.1875,-0.359375
1629880772000,-0.921875,0.1875,-0.359375
1629880772031,-0.90625,0.1875,-0.359375
1629880772062,-0.921875,0.1875,-0.359375
1629880772093,-0.921875,0.1875,-0.359375
1629880772125,-0.90625,0.1875,-0.34375
1629880772156,-0.921875,0.1875,-0.359375
1629880772187,-0.921875,0.1875,-0.359375
1629880772218,-0.921875,0.1875,-0.359375
1629880772250,-0.921875,0.1875,-0.359375
1629880772281,-0.921875,0.1875,-0.34375
1629880772312,-0.921875,0.1875,-0.34375
1629880772343,-0.921875,0.1875,-0.34375
1629880772375,-0.921875,0.1875,-0.34375
1629880772406,-0.921875,0.1875,-0.34375
1629880772437,-0.921875,0.1875,-0.34375
1629880772468,-0.921875,0.1875,-0.34375
1629880772500,-0.921875,0.171875,-0.34375
1629880772531,-0.921875,0.1875,-0.359375
1629880772562,-0.921875,0.1875,-0.359375
1629880772593,-0.921875,0.1875,-0.34375
1629880772625,-0.921875,0.1875,-0.34375
1629880772656,-0.921875,0.1875,-0.34375
1629880772687,-0.921875,0.1875,-0.34375
1629880772718,-0.921875,0.1875,-0.34375
1629880772750,-0.921875,0.1875,-0.34375
1629880772781,-0.921875,0.1875,-0.34375
1629880772812,-0.921875,0.1875,-0.34375
1629880772843,-0.921875,0.1875,-0.34375
1629880772875,-0.921875,0.1875,-0.34375
1629880772906,-0.921875,0.1875,-0.328125
1629880772937,-0.921875,0.1875,-0.328125
1629880772968,-0.9375,0.1875,-0.328125
1629880773000,-0.921875,0.1875,-0.296875
1629880773031,-0.9375,0.1875,-0.296875
1629880773062,-0.9375,0.1875,-0.296875
1629880773093,-0.9375,0.1875,-0.296875
1629880773125,-0.9375,0.1875,-0.28125
1629880773156,-0.9375,0.1875,-0.28125
1629880773187,-0.9375,0.1875,-0.265625
1629880773218,-0.9375,0.1875,-0.296875
1629880773250,-0.921875,0.1875,-0.234375
1629880773281,-0.953125,0.171875,-0.265625
1629880773312,-0.953125,0.1875,-0.296875
1629880773343,-0.9375,0.1875,-0.28125
1629880773375,-0.9375,0.1875,-0.28125
1629880773406,-0.9375,0.1875,-0.28125
1629880773437,-0.9375,0.203125,-0.265625
1629880773468,-0.9375,0.203125,-0.25
1629880773500,-0.921875,0.203125,-0.25
1629880773531,-0.9375,0.1875,-0.3125
1629880773562,-0.953125,0.1875,-0.328125
1629880773593,-0.9375,0.1875,-0.3125
1629880773625,-0.9375,0.1875,-0.296875
1629880773656,-0.9375,0.1875,-0.296875
1629880773687,-0.9375,0.1875,-0.296875
1629880773718,-0.921875,0.1875,-0.28125
1629880773750,-0.9375,0.1875,-0.296875
1629880773781,-0.9375,0.1875,-0.3125
1629880773812,-0.9375,0.1875,-0.296875
1629880773843,-0.9375,0.203125,-0.296875
1629880773875,-0.9375,0.1875,-0.296875
1629880773906,-0.9375,0.1875,-0.296875
1629880773937,-0.9375,0.1875,-0.3125
1629880773968,-0.9375,0.1875,-0.296875
1629880774000,-0.9375,0.1875,-0.296875
1629880774031,-0.9375,0.1875,-0.3125
1629880774062,-0.9375,0.1875,-0.296875
1629880774093,-0.9375,0.203125,-0.296875
1629880774125,-0.921875,0.1875,-0.296875
1629880774156,-0.9375,0.1875,-0.296875
1629880774187,-0.9375,0.1875,-0.3125
1629880774218,-0.9375,0.1875,-0.3125
1629880774250,-0.9375,0.203125,-0.296875
1629880774281,-0.9375,0.203125,-0.3125
1629880774312,-0.9375,0.1875,-0.3125
1629880774343,-0.9375,0.1875,-0.296875
1629880774375,-0.921875,0.1875,-0.296875
1629880774406,-0.9375,0.203125,-0.3125
1629880774437,-0.9375,0.1875,-0.296875
1629880774468,-0.921875,0.1875,-0.296875
1629880774500,-0.9375,0.1875,-0.3125
1629880774531,-0.9375,0.1875,-0.296875
1629880774562,-0.9375,0.203125,-0.296875
1629880774593,-0.9375,0.203125,-0.3125
1629880774625,-0.9375,0.1875,-0.296875
1629880774656,-0.9375,0.203125,-0.296875
1629880774687,-0.9375,0.1875,-0.3125
1629880774718,-0.9375,0.203125,-0.3125
1629880774750,-0.9375,0.1875,-0.296875
1629880774781,-0.9375,0.1875,-0.296875
1629880774812,-0.9375,0.1875,-0.3125
1629880774843,-0.9375,0.1875,-0.296875
1629880774875,-0.921875,0.203125,-0.296875
1629880774906,-0.9375,0.203125,-0.3125
1629880774937,-0.9375,0.203125,-0.296875
1629880774968,-0.9375,0.203125,-0.3125
1629880775000,-0.921875,0.203125,-0.296875
1629880775031,-0.921875,0.203125,-0.296875
1629880775062,-0.9375,0.203125,-0.3125
1629880775093,-0.9375,0.203125,-0.3125
1629880775125,-0.921875,0.203125,-0.296875
1629880775156,-0.9375,0.203125,-0.3125
1629880775187,-0.9375,0.203125,-0.3125
1629880775218,-0.921875,0.1875,-0.296875
1629880775250,-0.921875,0.203125,-0.3125
1629880775281,-0.9375,0.203125,-0.296875
1629880775312,-0.9375,0.1875,-0.296875
1629880775343,-0.921875,0.203125,-0.296875
1629880775375,-0.9375,0.203125,-0.296875
1629880775406,-0.9375,0.203125,-0.296875
1629880775437,-0.9375,0.1875,-0.296875
1629880775468,-0.921875,0.203125,-0.296875
1629880775500,-0.9375,0.1875,-0.296875
1629880775531,-0.9375,0.203125,-0.3125
1629880775562,-0.9375,0.203125,-0.3125
1629880775593,-0.9375,0.203125,-0.3125
1629880775625,-0.9375,0.203125,-0.3125
1629880775656,-0.921875,0.1875,-0.3125
1629880775687,-0.9375,0.1875,-0.296875
1629880775718,-0.9375,0.1875,-0.3125
1629880775750,-0.9375,0.1875,-0.3125
1629880775781,-0.9375,0.1875,-0.3125
1629880775812,-0.9375,0.1875,-0.3125
1629880775843,-0.9375,0.1875,-0.3125
1629880775875,-0.9375,0.1875,-0.3125
1629880775906,-0.9375,0.203125,-0.3125
1629880775937,-0.921875,0.203125,-0.296875
1629880775968,-0.9375,0.1875,-0.296875
1629880776000,-0.9375,0.1875,-0.296875
1629880776031,-0.921875,0.203125,-0.296875
1629880776062,-0.9375,0.203125,-0.296875
1629880776093,-0.9375,0.203125,-0.3125
1629880776125,-0.921875,0.203125,-0.3125
1629880776156,-0.9375,0.1875,-0.3125
1629880776187,-0.921875,0.1875,-0.296875
1629880776218,-0.9375,0.1875,-0.296875
1629880776250,-0.9375,0.1875,-0.3125
1629880776281,-0.9375,0.1875,-0.3125
1629880776312,-0.921875,0.1875,-0.3125
1629880776343,-0.9375,0.1875,-0.296875
1629880776375,-0.9375,0.203125,-0.296875
1629880776406,-0.9375,0.1875,-0.3125
1629880776437,-0.9375,0.203125,-0.296875
1629880776468,-0.9375,0.203125,-0.3125
1629880776500,-0.9375,0.1875,-0.3125
1629880776531,-0.921875,0.203125,-0.3125
1629880776562,-0.921875,0.203125,-0.296875
1629880776593,-0.9375,0.1875,-0.3125
1629880776625,-0.9375,0.203125,-0.296875
1629880776656,-0.9375,0.203125,-0.296875
1629880776687,-0.9375,0.203125,-0.296875
1629880776718,-0.9375,0.203125,-0.28125
1629880776750,-0.9375,0.203125,-0.296875
1629880776781,-0.9375,0.203125,-0.296875
1629880776812,-0.9375,0.203125,-0.28125
1629880776843,-0.9375,0.203125,-0.265625
1629880776875,-0.9375,0.203125,-0.28125
1629880776906,-0.9375,0.203125,-0.28125
1629880776937,-0.9375,0.203125,-0.265625
1629880776968,-0.921875,0.203125,-0.28125
1629880777000,-0.9375,0.203125,-0.3125
1629880777031,-0.9375,0.1875,-0.3125
1629880777062,-0.9375,0.203125,-0.296875
1629880777093,-0.9375,0.203125,-0.296875
1629880777125,-0.9375,0.203125,-0.296875
1629880777156,-0.9375,0.203125,-0.3125
1629880777187,-0.9375,0.203125,-0.3125
1629880777218,-0.9375,0.203125,-0.296875
1629880777250,-0.9375,0.203125,-0.296875
1629880777281,-0.921875,0.203125,-0.296875
1629880777312,-0.9375,0.203125,-0.3125
1629880777343,-0.9375,0.203125,-0.296875
1629880777375,-0.9375,0.203125,-0.28125
1629880777406,-0.9375,0.203125,-0.296875
1629880777437,-0.9375,0.203125,-0.296875
1629880777468,-0.9375,0.203125,-0.265625
1629880777500,-0.9375,0.21875,-0.25
1629880777531,-0.9375,0.203125,-0.28125
1629880777562,-0.9375,0.203125,-0.28125
1629880777593,-0.9375,0.203125,-0.28125
1629880777625,-0.9375,0.203125,-0.25
1629880777656,-0.9375,0.203125,-0.234375
1629880777687,-0.953125,0.203125,-0.265625
1629880777718,-0.9375,0.203125,-0.265625
1629880777750,-0.9375,0.203125,-0.265625
1629880777781,-0.953125,0.1875,-0.296875
1629880777812,-0.921875,0.203125,-0.234375
1629880777843,-0.9375,0.1875,-0.265625
1629880777875,-0.9375,0.203125,-0.296875
1629880777906,-0.9375,0.21875,-0.25
1629880777937,-0.96875,0.203125,-0.28125
1629880777968,-0.953125,0.1875,-0.28125
1629880778000,-0.953125,0.203125,-0.28125
1629880778031,-0.953125,0.234375,-0.25
1629880778062,-0.96875,0.234375,-0.265625
1629880778093,-0.9375,0.21875,-0.265625
1629880778125,-0.9375,0.203125,-0.28125
1629880778156,-0.921875,0.1875,-0.296875
1629880778187,-0.921875,0.171875,-0.28125
1629880778218,-0.921875,0.15625,-0.28125
1629880778250,-0.9375,0.171875,-0.296875
1629880778281,-0.9375,0.171875,-0.296875
1629880778312,-0.953125,0.1875,-0.28125
1629880778343,-0.9375,0.203125,-0.265625
1629880778375,-0.9375,0.203125,-0.265625
1629880778406,-0.9375,0.21875,-0.265625
1629880778437,-0.9375,0.21875,-0.265625
1629880778468,-0.9375,0.21875,-0.265625
1629880778500,-0.953125,0.21875,-0.25
1629880778531,-0.953125,0.234375,-0.265625
1629880778562,-0.921875,0.21875,-0.25
1629880778593,-0.9375,0.25,-0.234375
1629880778625,-0.953125,0.25,-0.25
1629880778656,-0.9375,0.234375,-0.28125
1629880778687,-0.9375,0.21875,-0.265625
1629880778718,-0.9375,0.1875,-0.265625
1629880778750,-0.921875,0.1875,-0.265625
1629880778781,-0.921875,0.1875,-0.265625
1629880778812,-0.9375,0.203125,-0.25
1629880778843,-0.9375,0.21875,-0.25
1629880778875,-0.921875,0.234375,-0.265625
1629880778906,-0.9375,0.25,-0.25
1629880778937,-0.921875,0.25,-0.25
1629880778968,-0.921875,0.234375,-0.265625
1629880779000,-0.9375,0.21875,-0.265625
1629880779031,-0.9375,0.203125,-0.25
1629880779062,-0.9375,0.21875,-0.25
1629880779093,-0.9375,0.21875,-0.25
1629880779125,-0.9375,0.21875,-0.265625
1629880779156,-0.9375,0.21875,-0.28125
1629880779187,-0.953125,0.21875,-0.28125
1629880779218,-0.9375,0.21875,-0.265625
1629880779250,-0.921875,0.21875,-0.265625
1629880779281,-0.9375,0.203125,-0.28125
1629880779312,-0.9375,0.203125,-0.265625
1629880779343,-0.9375,0.203125,-0.265625
1629880779375,-0.9375,0.21875,-0.265625
1629880779406,-0.9375,0.203125,-0.28125
1629880779437,-0.9375,0.203125,-0.296875
1629880779468,-0.9375,0.1875,-0.296875
1629880779500,-0.9375,0.1875,-0.296875
1629880779531,-0.9375,0.203125,-0.28125
1629880779562,-0.9375,0.203125,-0.28125
1629880779593,-0.9375,0.21875,-0.28125
1629880779625,-0.9375,0.21875,-0.28125
1629880779656,-0.9375,0.21875,-0.28125
1629880779687,-0.9375,0.203125,-0.28125
1629880779718,-0.921875,0.1875,-0.265625
1629880779750,-0.921875,0.203125,-0.28125
1629880779781,-0.9375,0.203125,-0.296875
1629880779812,-0.9375,0.1875,-0.296875
1629880779843,-0.9375,0.203125,-0.28125
1629880779875,-0.9375,0.203125,-0.28125
1629880779906,-0.9375,0.203125,-0.28125
1629880779937,-0.921875,0.203125,-0.28125
1629880779968,-0.921875,0.203125,-0.28125
1629880780000,-0.9375,0.21875,-0.28125
1629880780031,-0.953125,0.203125,-0.296875
1629880780062,-0.9375,0.203125,-0.296875
1629880780093,-0.9375,0.1875,-0.28125
1629880780125,-0.921875,0.203125,-0.28125
1629880780156,-0.9375,0.1875,-0.296875
1629880780187,-0.9375,0.1875,-0.28125
1629880780218,-0.9375,0.203125,-0.28125
1629880780250,-0.9375,0.203125,-0.296875
1629880780281,-0.9375,0.203125,-0.28125
1629880780312,-0.921875,0.203125,-0.296875
1629880780343,-0.921875,0.203125,-0.296875
1629880780375,-0.9375,0.203125,-0.296875
1629880780406,-0.9375,0.203125,-0.3125
1629880780437,-0.9375,0.1875,-0.3125
1629880780468,-0.9375,0.203125,-0.28125
1629880780500,-0.921875,0.203125,-0.265625
1629880780531,-0.9375,0.203125,-0.265625
1629880780562,-0.9375,0.203125,-0.28125
1629880780593,-0.9375,0.203125,-0.28125
1629880780625,-0.9375,0.203125,-0.265625
1629880780656,-0.9375,0.203125,-0.265625
1629880780687,-0.9375,0.203125,-0.28125
1629880780718,-0.9375,0.1875,-0.328125
1629880780750,-0.9375,0.1875,-0.328125
1629880780781,-0.9375,0.203125,-0.3125
1629880780812,-0.921875,0.1875,-0.3125
1629880780843,-0.921875,0.1875,-0.296875
1629880780875,-0.9375,0.1875,-0.296875
1629880780906,-0.9375,0.203125,-0.296875
1629880780937,-0.9375,0.1875,-0.296875
1629880780968,-0.9375,0.1875,-0.296875
1629880781000,-0.9375,0.1875,-0.296875
1629880781031,-0.9375,0.1875,-0.296875
1629880781062,-0.9375,0.203125,-0.296875
1629880781093,-0.9375,0.1875,-0.296875
1629880781125,-0.9375,0.1875,-0.296875
1629880781156,-0.9375,0.1875,-0.296875
1629880781187,-0.921875,0.1875,-0.296875
1629880781218,-0.921875,0.1875,-0.3125
1629880781250,-0.9375,0.1875,-0.3125
1629880781281,-0.9375,0.1875,-0.3125
1629880781312,-0.921875,0.1875,-0.3125
1629880781343,-0.921875,0.1875,-0.3125
1629880781375,-0.921875,0.1875,-0.3125
1629880781406,-0.921875,0.1875,-0.3125
1629880781437,-0.921875,0.1875,-0.328125
1629880781468,-0.921875,0.1875,-0.328125
1629880781500,-0.921875,0.1875,-0.328125
1629880781531,-0.921875,0.1875,-0.34375
1629880781562,-0.9375,0.1875,-0.359375
1629880781593,-0.921875,0.1875,-0.328125
1629880781625,-0.9375,0.1875,-0.3125
1629880781656,-0.9375,0.1875,-0.3125
1629880781687,-0.921875,0.1875,-0.296875
1629880781718,-0.921875,0.1875,-0.28125
1629880781750,-0.921875,0.1875,-0.296875
1629880781781,-0.921875,0.1875,-0.296875
1629880781812,-0.9375,0.1875,-0.296875
1629880781843,-0.9375,0.1875,-0.296875
1629880781875,-0.9375,0.1875,-0.296875
1629880781906,-0.9375,0.203125,-0.296875
1629880781937,-0.9375,0.1875,-0.296875
1629880781968,-0.9375,0.1875,-0.3125
1629880782000,-0.9375,0.1875,-0.3125
1629880782031,-0.9375,0.203125,-0.296875
1629880782062,-0.9375,0.1875,-0.296875
1629880782093,-0.9375,0.1875,-0.3125
1629880782125,-0.9375,0.203125,-0.3125
1629880782156,-0.9375,0.1875,-0.28125
1629880782187,-0.9375,0.203125,-0.296875
1629880782218,-0.9375,0.203125,-0.296875
1629880782250,-0.9375,0.203125,-0.28125
1629880782281,-0.9375,0.1875,-0.28125
1629880782312,-0.9375,0.203125,-0.28125
1629880782343,-0.9375,0.203125,-0.296875
1629880782375,-0.9375,0.203125,-0.296875
1629880782406,-0.9375,0.203125,-0.296875
1629880782437,-0.9375,0.1875,-0.296875
1629880782468,-0.9375,0.203125,-0.296875
1629880782500,-0.9375,0.203125,-0.296875
1629880782531,-0.9375,0.203125,-0.28125
1629880782562,-0.9375,0.203125,-0.296875
1629880782593,-0.9375,0.203125,-0.296875
1629880782625,-0.9375,0.203125,-0.296875
1629880782656,-0.9375,0.1875,-0.296875
1629880782687,-0.9375,0.203125,-0.296875
1629880782718,-0.9375,0.203125,-0.3125
1629880782750,-0.9375,0.1875,-0.296875
1629880782781,-0.9375,0.1875,-0.296875
1629880782812,-0.9375,0.1875,-0.296875
1629880782843,-0.9375,0.1875,-0.3125
1629880782875,-0.953125,0.1875,-0.3125
1629880782906,-0.9375,0.203125,-0.28125
1629880782937,-0.921875,0.203125,-0.234375
1629880782968,-0.9375,0.1875,-0.25
1629880783000,-0.9375,0.1875,-0.25
1629880783031,-0.9375,0.1875,-0.234375
1629880783062,-0.9375,0.1875,-0.25
1629880783093,-0.9375,0.203125,-0.28125
1629880783125,-0.9375,0.203125,-0.28125
1629880783156,-0.9375,0.203125,-0.28125
1629880783187,-0.9375,0.203125,-0.28125
1629880783218,-0.9375,0.203125,-0.296875
1629880783250,-0.9375,0.1875,-0.28125
1629880783281,-0.9375,0.203125,-0.28125
1629880783312,-0.9375,0.1875,-0.28125
1629880783343,-0.9375,0.1875,-0.28125
1629880783375,-0.9375,0.203125,-0.28125
1629880783406,-0.9375,0.1875,-0.28125
1629880783437,-0.9375,0.1875,-0.28125
1629880783468,-0.9375,0.1875,-0.28125
1629880783500,-0.9375,0.203125,-0.28125
1629880783531,-0.9375,0.1875,-0.28125
1629880783562,-0.9375,0.203125,-0.28125
1629880783593,-0.9375,0.1875,-0.28125
1629880783625,-0.9375,0.1875,-0.28125
1629880783656,-0.9375,0.1875,-0.28125
1629880783687,-0.9375,0.1875,-0.28125
1629880783718,-0.9375,0.1875,-0.28125
1629880783750,-0.9375,0.203125,-0.265625
1629880783781,-0.9375,0.203125,-0.265625
1629880783812,-0.9375,0.203125,-0.28125
1629880783843,-0.9375,0.203125,-0.265625
1629880783875,-0.9375,0.1875,-0.28125
1629880783906,-0.9375,0.1875,-0.28125
1629880783937,-0.9375,0.1875,-0.28125
1629880783968,-0.9375,0.1875,-0.28125
1629880784000,-0.9375,0.1875,-0.28125
1629880784031,-0.9375,0.1875,-0.28125
1629880784062,-0.9375,0.1875,-0.265625
1629880784093,-0.9375,0.203125,-0.28125
1629880784125,-0.9375,0.203125,-0.265625
1629880784156,-0.9375,0.203125,-0.265625
1629880784187,-0.9375,0.203125,-0.265625
1629880784218,-0.9375,0.1875,-0.265625
1629880784250,-0.9375,0.1875,-0.28125
1629880784281,-0.9375,0.1875,-0.28125
1629880784312,-0.9375,0.203125,-0.28125
1629880784343,-0.9375,0.1875,-0.28125
1629880784375,-0.9375,0.203125,-0.28125
1629880784406,-0.9375,0.1875,-0.28125
1629880784437,-0.9375,0.1875,-0.28125
1629880784468,-0.9375,0.203125,-0.28125
1629880784500,-0.9375,0.1875,-0.28125
1629880784531,-0.9375,0.1875,-0.28125
1629880784562,-0.9375,0.1875,-0.28125
1629880784593,-0.9375,0.1875,-0.28125
1629880784625,-0.9375,0.203125,-0.28125
1629880784656,-0.9375,0.203125,-0.28125
1629880784687,-0.9375,0.203125,-0.28125
1629880784718,-0.9375,0.203125,-0.265625
1629880784750,-0.9375,0.1875,-0.28125
1629880784781,-0.9375,0.1875,-0.28125
1629880784812,-0.9375,0.1875,-0.28125
1629880784843,-0.9375,0.1875,-0.28125
1629880784875,-0.9375,0.1875,-0.28125
1629880784906,-0.9375,0.203125,-0.28125
1629880784937,-0.9375,0.203125,-0.28125
1629880784968,-0.9375,0.1875,-0.28125
1629880785000,-0.9375,0.1875,-0.28125
1629880785031,-0.9375,0.1875,-0.28125
1629880785062,-0.9375,0.203125,-0.28125
1629880785093,-0.9375,0.1875,-0.28125
1629880785125,-0.9375,0.1875,-0.265625
1629880785156,-0.9375,0.1875,-0.28125
1629880785187,-0.9375,0.1875,-0.28125
1629880785218,-0.9375,0.1875,-0.28125
1629880785250,-0.9375,0.203125,-0.28125
1629880785281,-0.9375,0.203125,-0.28125
1629880785312,-0.9375,0.1875,-0.28125
1629880785343,-0.9375,0.203125,-0.28125
1629880785375,-0.9375,0.1875,-0.28125
1629880785406,-0.9375,0.203125,-0.28125
1629880785437,-0.9375,0.1875,-0.28125
1629880785468,-0.9375,0.1875,-0.28125
1629880785500,-0.9375,0.1875,-0.28125
1629880785531,-0.9375,0.1875,-0.28125
1629880785562,-0.9375,0.203125,-0.28125
1629880785593,-0.9375,0.203125,-0.28125
1629880785625,-0.9375,0.203125,-0.28125
1629880785656,-0.9375,0.203125,-0.265625
1629880785687,-0.9375,0.1875,-0.28125
1629880785718,-0.9375,0.1875,-0.28125
1629880785750,-0.9375,0.1875,-0.28125
1629880785781,-0.9375,0.1875,-0.28125
1629880785812,-0.9375,0.203125,-0.28125
1629880785843,-0.9375,0.1875,-0.28125
1629880785875,-0.9375,0.1875,-0.265625
1629880785906,-0.9375,0.203125,-0.28125
1629880785937,-0.9375,0.1875,-0.28125
1629880785968,-0.9375,0.203125,-0.28125
1629880786000,-0.9375,0.203125,-0.296875
1629880786031,-0.9375,0.203125,-0.28125
1629880786062,-0.9375,0.203125,-0.28125
1629880786093,-0.9375,0.203125,-0.28125
1629880786125,-0.9375,0.1875,-0.28125
1629880786156,-0.9375,0.203125,-0.28125
1629880786187,-0.9375,0.1875,-0.28125
1629880786218,-0.9375,0.1875,-0.28125
1629880786250,-0.9375,0.203125,-0.296875
1629880786281,-0.9375,0.203125,-0.28125
1629880786312,-0.9375,0.203125,-0.28125
1629880786343,-0.9375,0.1875,-0.296875
1629880786375,-0.9375,0.203125,-0.28125
1629880786406,-0.9375,0.1875,-0.28125
1629880786437,-0.9375,0.1875,-0.28125
1629880786468,-0.9375,0.203125,-0.28125
1629880786500,-0.9375,0.1875,-0.28125
1629880786531,-0.9375,0.203125,-0.28125
1629880786562,-0.9375,0.203125,-0.28125
1629880786593,-0.9375,0.1875,-0.28125
1629880786625,-0.9375,0.1875,-0.28125
1629880786656,-0.9375,0.1875,-0.28125
1629880786687,-0.9375,0.1875,-0.28125
1629880786718,-0.9375,0.203125,-0.28125
1629880786750,-0.9375,0.203125,-0.28125
1629880786781,-0.9375,0.203125,-0.28125
1629880786812,-0.9375,0.1875,-0.28125
1629880786843,-0.9375,0.1875,-0.265625
1629880786875,-0.9375,0.1875,-0.265625
1629880786906,-0.9375,0.1875,-0.28125
1629880786937,-0.9375,0.1875,-0.28125
1629880786968,-0.9375,0.1875,-0.28125
1629880787000,-0.9375,0.1875,-0.265625
1629880787031,-0.9375,0.1875,-0.28125
1629880787062,-0.9375,0.203125,-0.28125
1629880787093,-0.9375,0.1875,-0.28125
1629880787125,-0.9375,0.1875,-0.28125
1629880787156,-0.9375,0.1875,-0.28125
1629880787187,-0.9375,0.1875,-0.265625
1629880787218,-0.9375,0.1875,-0.265625
1629880787250,-0.9375,0.1875,-0.28125
1629880787281,-0.9375,0.1875,-0.28125
1629880787312,-0.9375,0.203125,-0.265625
1629880787343,-0.9375,0.1875,-0.28125
1629880787375,-0.9375,0.1875,-0.28125
1629880787406,-0.9375,0.1875,-0.28125
1629880787437,-0.9375,0.203125,-0.265625
1629880787468,-0.953125,0.203125,-0.28125
1629880787500,-0.9375,0.1875,-0.265625
1629880787531,-0.9375,0.1875,-0.265625
1629880787562,-0.9375,0.1875,-0.28125
1629880787593,-0.9375,0.1875,-0.265625
1629880787625,-0.9375,0.1875,-0.265625
1629880787656,-0.9375,0.1875,-0.28125
1629880787687,-0.9375,0.1875,-0.265625
1629880787718,-0.9375,0.1875,-0.265625
1629880787750,-0.9375,0.1875,-0.28125
1629880787781,-0.9375,0.203125,-0.265625
1629880787812,-0.9375,0.203125,-0.265625
1629880787843,-0.9375,0.1875,-0.265625
1629880787875,-0.9375,0.1875,-0.265625
1629880787906,-0.9375,0.1875,-0.28125
1629880787937,-0.9375,0.1875,-0.28125
1629880787968,-0.9375,0.1875,-0.28125
1629880788000,-0.9375,0.1875,-0.28125
1629880788031,-0.9375,0.203125,-0.28125
1629880788062,-0.953125,0.1875,-0.296875
1629880788093,-0.9375,0.203125,-0.28125
1629880788125,-0.9375,0.1875,-0.265625
1629880788156,-0.9375,0.203125,-0.28125
1629880788187,-0.9375,0.203125,-0.265625
1629880788218,-0.9375,0.203125,-0.265625
1629880788250,-0.9375,0.1875,-0.28125
1629880788281,-0.9375,0.1875,-0.28125
1629880788312,-0.9375,0.1875,-0.28125
1629880788343,-0.9375,0.203125,-0.28125
1629880788375,-0.9375,0.203125,-0.265625
1629880788406,-0.9375,0.203125,-0.265625
1629880788437,-0.9375,0.203125,-0.265625
1629880788468,-0.9375,0.203125,-0.265625
1629880788500,-0.9375,0.1875,-0.265625
1629880788531,-0.9375,0.203125,-0.265625
1629880788562,-0.9375,0.203125,-0.265625
1629880788593,-0.9375,0.203125,-0.265625
1629880788625,-0.9375,0.1875,-0.28125
1629880788656,-0.9375,0.1875,-0.28125
1629880788687,-0.9375,0.1875,-0.296875
1629880788718,-0.9375,0.1875,-0.28125
1629880788750,-0.9375,0.203125,-0.28125
1629880788781,-0.9375,0.1875,-0.296875
1629880788812,-0.9375,0.1875,-0.28125
1629880788843,-0.9375,0.203125,-0.265625
1629880788875,-0.9375,0.203125,-0.265625
1629880788906,-0.9375,0.203125,-0.28125
1629880788937,-0.9375,0.1875,-0.265625
1629880788968,-0.953125,0.203125,-0.28125
1629880789000,-0.9375,0.203125,-0.28125
1629880789031,-0.9375,0.1875,-0.28125
1629880789062,-0.9375,0.1875,-0.28125
1629880789093,-0.9375,0.1875,-0.28125
1629880789125,-0.9375,0.203125,-0.265625
1629880789156,-0.9375,0.203125,-0.28125
1629880789187,-0.9375,0.203125,-0.265625
1629880789218,-0.9375,0.203125,-0.265625
1629880789250,-0.9375,0.203125,-0.265625
1629880789281,-0.9375,0.203125,-0.265625
1629880789312,-0.9375,0.203125,-0.265625
1629880789343,-0.953125,0.203125,-0.28125
1629880789375,-0.9375,0.1875,-0.28125
1629880789406,-0.9375,0.1875,-0.28125
1629880789437,-0.9375,0.1875,-0.28125
1629880789468,-0.9375,0.1875,-0.28125
1629880789500,-0.9375,0.1875,-0.265625
1629880789531,-0.9375,0.203125,-0.265625
1629880789562,-0.9375,0.203125,-0.28125
1629880789593,-0.9375,0.203125,-0.28125
1629880789625,-0.9375,0.203125,-0.265625
1629880789656,-0.9375,0.203125,-0.265625
1629880789687,-0.9375,0.1875,-0.265625
1629880789718,-0.9375,0.1875,-0.28125
1629880789750,-0.9375,0.203125,-0.265625
1629880789781,-0.9375,0.1875,-0.265625
1629880789812,-0.953125,0.1875,-0.265625
1629880789843,-0.9375,0.203125,-0.265625
1629880789875,-0.9375,0.1875,-0.265625
1629880789906,-0.9375,0.203125,-0.28125
1629880789937,-0.9375,0.1875,-0.265625
1629880789968,-0.9375,0.1875,-0.28125
1629880790000,-0.9375,0.1875,-0.28125
1629880790031,-0.9375,0.1875,-0.28125
1629880790062,-0.9375,0.1875,-0.28125
1629880790093,-0.9375,0.203125,-0.265625
1629880790125,-0.9375,0.1875,-0.28125
1629880790156,-0.9375,0.1875,-0.265625
1629880790187,-0.9375,0.203125,-0.265625
1629880790218,-0.9375,0.203125,-0.265625
1629880790250,-0.9375,0.203125,-0.265625
1629880790281,-0.9375,0.203125,-0.28125
1629880790312,-0.9375,0.203125,-0.28125
1629880790343,-0.9375,0.1875,-0.28125
1629880790375,-0.9375,0.1875,-0.28125
1629880790406,-0.9375,0.1875,-0.265625
1629880790437,-0.9375,0.1875,-0.28125
1629880790468,-0.9375,0.203125,-0.265625
1629880790500,-0.9375,0.203125,-0.265625
1629880790531,-0.9375,0.1875,-0.28125
1629880790562,-0.9375,0.1875,-0.28125
1629880790593,-0.9375,0.1875,-0.28125
1629880790625,-0.9375,0.203125,-0.28125
1629880790656,-0.9375,0.1875,-0.28125
1629880790687,-0.9375,0.1875,-0.28125
1629880790718,-0.9375,0.1875,-0.265625
1629880790750,-0.9375,0.1875,-0.28125
1629880790781,-0.9375,0.203125,-0.265625
1629880790812,-0.9375,0.1875,-0.265625
1629880790843,-0.9375,0.1875,-0.28125
1629880790875,-0.9375,0.1875,-0.28125
1629880790906,-0.9375,0.1875,-0.265625
1629880790937,-0.9375,0.1875,-0.28125
1629880790968,-0.9375,0.1875,-0.28125
1629880791000,-0.9375,0.203125,-0.28125
1629880791031,-0.9375,0.203125,-0.28125
1629880791062,-0.9375,0.203125,-0.28125
1629880791093,-0.9375,0.203125,-0.28125
1629880791125,-0.9375,0.1875,-0.265625
1629880791156,-0.9375,0.1875,-0.265625
1629880791187,-0.9375,0.1875,-0.28125
1629880791218,-0.9375,0.1875,-0.265625
1629880791250,-0.9375,0.1875,-0.265625
1629880791281,-0.9375,0.1875,-0.265625
1629880791312,-0.9375,0.1875,-0.28125
1629880791343,-0.9375,0.203125,-0.28125
1629880791375,-0.9375,0.1875,-0.265625
1629880791406,-0.9375,0.203125,-0.265625
1629880791437,-0.9375,0.203125,-0.265625
1629880791468,-0.9375,0.1875,-0.265625
1629880791500,-0.9375,0.203125,-0.265625
1629880791531,-0.9375,0.203125,-0.28125
1629880791562,-0.9375,0.203125,-0.28125
1629880791593,-0.9375,0.203125,-0.28125
1629880791625,-0.9375,0.1875,-0.28125
1629880791656,-0.9375,0.1875,-0.265625
1629880791687,-0.9375,0.1875,-0.265625
1629880791718,-0.9375,0.1875,-0.28125
1629880791750,-0.9375,0.1875,-0.265625
1629880791781,-0.9375,0.1875,-0.28125
1629880791812,-0.953125,0.203125,-0.265625
1629880791843,-0.9375,0.203125,-0.265625
1629880791875,-0.9375,0.1875,-0.28125
1629880791906,-0.9375,0.1875,-0.28125
1629880791937,-0.9375,0.203125,-0.265625
1629880791968,-0.9375,0.1875,-0.28125
1629880792000,-0.9375,0.1875,-0.28125
1629880792031,-0.9375,0.1875,-0.28125
1629880792062,-0.9375,0.203125,-0.265625
1629880792093,-0.9375,0.203125,-0.265625
1629880792125,-0.9375,0.1875,-0.265625
1629880792156,-0.9375,0.1875,-0.265625
1629880792187,-0.953125,0.203125,-0.28125
1629880792218,-0.9375,0.203125,-0.28125
1629880792250,-0.9375,0.203125,-0.265625
1629880792281,-0.9375,0.1875,-0.265625
1629880792312,-0.9375,0.203125,-0.265625
1629880792343,-0.9375,0.203125,-0.28125
1629880792375,-0.9375,0.1875,-0.265625
1629880792406,-0.9375,0.203125,-0.265625
1629880792437,-0.9375,0.1875,-0.28125
1629880792468,-0.9375,0.203125,-0.265625
1629880792500,-0.9375,0.1875,-0.265625
1629880792531,-0.9375,0.203125,-0.28125
1629880792562,-0.9375,0.203125,-0.265625
1629880792593,-0.9375,0.203125,-0.265625
1629880792625,-0.9375,0.203125,-0.265625
1629880792656,-0.9375,0.1875,-0.265625
1629880792687,-0.9375,0.203125,-0.265625
1629880792718,-0.9375,0.1875,-0.265625
1629880792750,-0.9375,0.203125,-0.265625
1629880792781,-0.9375,0.203125,-0.265625
1629880792812,-0.9375,0.1875,-0.28125
1629880792843,-0.953125,0.203125,-0.28125
1629880792875,-0.9375,0.1875,-0.265625
1629880792906,-0.9375,0.203125,-0.265625
1629880792937,-0.9375,0.1875,-0.28125
1629880792968,-0.9375,0.1875,-0.28125
1629880793000,-0.9375,0.1875,-0.25
1629880793031,-0.9375,0.203125,-0.25
1629880793062,-0.9375,0.203125,-0.265625
1629880793093,-0.9375,0.1875,-0.265625
1629880793125,-0.9375,0.203125,-0.265625
1629880793156,-0.9375,0.1875,-0.265625
1629880793187,-0.9375,0.203125,-0.25
1629880793218,-0.9375,0.203125,-0.265625
1629880793250,-0.9375,0.203125,-0.265625
1629880793281,-0.9375,0.1875,-0.265625
1629880793312,-0.9375,0.203125,-0.265625
1629880793343,-0.9375,0.203125,-0.28125
1629880793375,-0.953125,0.1875,-0.28125
1629880793406,-0.9375,0.203125,-0.265625
1629880793437,-0.9375,0.203125,-0.265625
1629880793468,-0.9375,0.1875,-0.265625
1629880793500,-0.9375,0.1875,-0.265625
1629880793531,-0.9375,0.1875,-0.265625
1629880793562,-0.9375,0.203125,-0.265625
1629880793593,-0.9375,0.1875,-0.265625
1629880793625,-0.9375,0.1875,-0.265625
1629880793656,-0.9375,0.1875,-0.265625
1629880793687,-0.9375,0.1875,-0.265625
1629880793718,-0.9375,0.1875,-0.265625
1629880793750,-0.9375,0.203125,-0.265625
1629880793781,-0.9375,0.1875,-0.28125
1629880793812,-0.9375,0.203125,-0.265625
1629880793843,-0.9375,0.203125,-0.265625
1629880793875,-0.9375,0.1875,-0.28125
1629880793906,-0.9375,0.203125,-0.28125
1629880793937,-0.9375,0.203125,-0.265625
1629880793968,-0.9375,0.203125,-0.265625
1629880794000,-0.9375,0.1875,-0.28125
1629880794031,-0.9375,0.1875,-0.265625
1629880794062,-0.9375,0.203125,-0.265625
1629880794093,-0.9375,0.203125,-0.28125
1629880794125,-0.9375,0.1875,-0.265625
1629880794156,-0.9375,0.1875,-0.265625
1629880794187,-0.953125,0.203125,-0.28125
1629880794218,-0.9375,0.203125,-0.265625
1629880794250,-0.9375,0.203125,-0.265625
1629880794281,-0.9375,0.1875,-0.28125
1629880794312,-0.9375,0.1875,-0.265625
1629880794343,-0.9375,0.203125,-0.265625
1629880794375,-0.9375,0.203125,-0.265625
1629880794406,-0.9375,0.203125,-0.265625
1629880794437,-0.9375,0.203125,-0.265625
1629880794468,-0.9375,0.1875,-0.265625
1629880794500,-0.9375,0.1875,-0.265625
1629880794531,-0.9375,0.1875,-0.265625
1629880794562,-0.9375,0.1875,-0.265625
1629880794593,-0.9375,0.1875,-0.265625
1629880794625,-0.9375,0.1875,-0.265625
1629880794656,-0.9375,0.1875,-0.265625
1629880794687,-0.9375,0.1875,-0.265625
1629880794718,-0.9375,0.1875,-0.265625
1629880794750,-0.9375,0.203125,-0.265625
1629880794781,-0.9375,0.1875,-0.265625
1629880794812,-0.9375,0.1875,-0.265625
1629880794843,-0.9375,0.1875,-0.265625
1629880794875,-0.9375,0.203125,-0.265625
1629880794906,-0.9375,0.203125,-0.28125
1629880794937,-0.953125,0.1875,-0.28125
1629880794968,-0.9375,0.1875,-0.265625
1629880795000,-0.9375,0.1875,-0.265625
1629880795031,-0.953125,0.1875,-0.265625
1629880795062,-0.9375,0.1875,-0.265625
1629880795093,-0.9375,0.203125,-0.265625
1629880795125,-0.9375,0.203125,-0.265625
1629880795156,-0.9375,0.1875,-0.265625
1629880795187,-0.953125,0.1875,-0.28125
1629880795218,-0.9375,0.1875,-0.265625
1629880795250,-0.9375,0.1875,-0.265625
1629880795281,-0.9375,0.1875,-0.265625
1629880795312,-0.9375,0.1875,-0.265625
1629880795343,-0.9375,0.1875,-0.265625
1629880795375,-0.9375,0.1875,-0.265625
1629880795406,-0.953125,0.1875,-0.265625
1629880795437,-0.9375,0.1875,-0.265625
1629880795468,-0.9375,0.1875,-0.265625
1629880795500,-0.9375,0.1875,-0.265625
1629880795531,-0.9375,0.1875,-0.265625
1629880795562,-0.9375,0.203125,-0.265625
1629880795593,-0.9375,0.1875,-0.265625
1629880795625,-0.9375,0.1875,-0.265625
1629880795656,-0.9375,0.1875,-0.265625
1629880795687,-0.9375,0.1875,-0.265625
1629880795718,-0.9375,0.203125,-0.265625
1629880795750,-0.9375,0.1875,-0.265625
1629880795781,-0.9375,0.203125,-0.265625
1629880795812,-0.9375,0.1875,-0.265625
1629880795843,-0.953125,0.203125,-0.265625
1629880795875,-0.9375,0.203125,-0.265625
1629880795906,-0.9375,0.1875,-0.265625
1629880795937,-0.9375,0.203125,-0.265625
1629880795968,-0.9375,0.203125,-0.265625
1629880796000,-0.9375,0.1875,-0.265625
1629880796031,-0.9375,0.203125,-0.265625
1629880796062,-0.9375,0.1875,-0.265625
1629880796093,-0.9375,0.1875,-0.265625
1629880796125,-0.953125,0.203125,-0.265625
1629880796156,-0.953125,0.203125,-0.28125
1629880796187,-0.9375,0.1875,-0.25
1629880796218,-0.9375,0.203125,-0.265625
1629880796250,-0.9375,0.1875,-0.265625
1629880796281,-0.953125,0.1875,-0.265625
1629880796312,-0.9375,0.203125,-0.265625
1629880796343,-0.9375,0.1875,-0.28125
1629880796375,-0.9375,0.203125,-0.265625
1629880796406,-0.9375,0.1875,-0.265625
1629880796437,-0.9375,0.203125,-0.28125
1629880796468,-0.9375,0.203125,-0.265625
1629880796500,-0.9375,0.1875,-0.265625
1629880796531,-0.953125,0.1875,-0.28125
1629880796562,-0.9375,0.1875,-0.265625
1629880796593,-0.9375,0.203125,-0.265625
1629880796625,-0.9375,0.1875,-0.265625
1629880796656,-0.953125,0.203125,-0.265625
1629880796687,-0.9375,0.1875,-0.265625
1629880796718,-0.9375,0.1875,-0.265625
1629880796750,-0.953125,0.203125,-0.265625
1629880796781,-0.953125,0.1875,-0.28125
1629880796812,-0.9375,0.1875,-0.265625
1629880796843,-0.9375,0.1875,-0.265625
1629880796875,-0.9375,0.1875,-0.265625
1629880796906,-0.9375,0.1875,-0.265625
1629880796937,-0.953125,0.203125,-0.28125
1629880796968,-0.9375,0.1875,-0.265625
1629880797000,-0.9375,0.1875,-0.265625
1629880797031,-0.9375,0.1875,-0.265625
1629880797062,-0.9375,0.1875,-0.28125
1629880797093,-0.9375,0.1875,-0.265625
1629880797125,-0.9375,0.1875,-0.265625
1629880797156,-0.9375,0.1875,-0.28125
1629880797187,-0.9375,0.1875,-0.28125
1629880797218,-0.953125,0.1875,-0.28125
1629880797250,-0.9375,0.1875,-0.265625
1629880797281,-0.9375,0.1875,-0.265625
1629880797312,-0.9375,0.203125,-0.265625
1629880797343,-0.9375,0.1875,-0.265625
1629880797375,-0.9375,0.203125,-0.265625
1629880797406,-0.9375,0.1875,-0.265625
1629880797437,-0.9375,0.203125,-0.265625
1629880797468,-0.9375,0.203125,-0.265625
1629880797500,-0.9375,0.203125,-0.265625
1629880797531,-0.9375,0.1875,-0.265625
1629880797562,-0.9375,0.203125,-0.265625
1629880797593,-0.9375,0.203125,-0.265625
1629880797625,-0.9375,0.1875,-0.28125
1629880797656,-0.9375,0.1875,-0.265625
1629880797687,-0.9375,0.1875,-0.265625
1629880797718,-0.9375,0.1875,-0.265625
1629880797750,-0.9375,0.1875,-0.265625
1629880797781,-0.9375,0.203125,-0.265625
1629880797812,-0.9375,0.203125,-0.265625
1629880797843,-0.9375,0.1875,-0.265625
1629880797875,-0.9375,0.1875,-0.265625
1629880797906,-0.9375,0.203125,-0.28125
1629880797937,-0.9375,0.1875,-0.265625
1629880797968,-0.9375,0.203125,-0.265625
1629880798000,-0.9375,0.203125,-0.265625
1629880798031,-0.9375,0.1875,-0.28125
1629880798062,-0.9375,0.1875,-0.265625
1629880798093,-0.9375,0.203125,-0.265625
1629880798125,-0.9375,0.203125,-0.265625
1629880798156,-0.953125,0.203125,-0.28125
1629880798187,-0.9375,0.203125,-0.265625
1629880798218,-0.9375,0.203125,-0.265625
1629880798250,-0.9375,0.203125,-0.28125
1629880798281,-0.9375,0.203125,-0.265625
1629880798312,-0.9375,0.1875,-0.265625
1629880798343,-0.9375,0.203125,-0.265625
1629880798375,-0.9375,0.203125,-0.28125
1629880798406,-0.9375,0.203125,-0.265625
1629880798437,-0.9375,0.203125,-0.265625
1629880798468,-0.9375,0.203125,-0.28125
1629880798500,-0.9375,0.203125,-0.265625
1629880798531,-0.9375,0.203125,-0.265625
1629880798562,-0.9375,0.203125,-0.28125
1629880798593,-0.9375,0.203125,-0.265625
1629880798625,-0.9375,0.1875,-0.265625
1629880798656,-0.9375,0.203125,-0.265625
1629880798687,-0.9375,0.1875,-0.265625
1629880798718,-0.9375,0.203125,-0.28125
1629880798750,-0.9375,0.203125,-0.265625
1629880798781,-0.9375,0.203125,-0.265625
1629880798812,-0.9375,0.1875,-0.265625
1629880798843,-0.9375,0.203125,-0.28125
1629880798875,-0.9375,0.203125,-0.28125
1629880798906,-0.9375,0.203125,-0.265625
1629880798937,-0.9375,0.203125,-0.265625
1629880798968,-0.9375,0.203125,-0.265625
1629880799000,-0.9375,0.203125,-0.28125
1629880799031,-0.9375,0.203125,-0.265625
1629880799062,-0.9375,0.203125,-0.265625
1629880799093,-0.9375,0.203125,-0.28125
1629880799125,-0.9375,0.203125,-0.265625
1629880799156,-0.9375,0.203125,-0.265625
1629880799187,-0.9375,0.1875,-0.265625
1629880799218,-0.9375,0.203125,-0.28125
1629880799250,-0.9375,0.203125,-0.28125
1629880799281,-0.953125,0.203125,-0.265625
1629880799312,-0.9375,0.1875,-0.265625
1629880799343,-0.953125,0.203125,-0.28125
1629880799375,-0.9375,0.203125,-0.265625
1629880799406,-0.9375,0.203125,-0.265625
1629880799437,-0.9375,0.203125,-0.28125
1629880799468,-0.9375,0.203125,-0.265625
1629880799500,-0.9375,0.1875,-0.28125
1629880799531,-0.9375,0.203125,-0.28125
1629880799562,-0.9375,0.203125,-0.265625
1629880799593,-0.9375,0.203125,-0.265625
1629880799625,-0.9375,0.203125,-0.265625
1629880799656,-0.9375,0.203125,-0.265625
1629880799687,-0.9375,0.203125,-0.265625
1629880799718,-0.9375,0.203125,-0.265625
1629880799750,-0.9375,0.203125,-0.265625
1629880799781,-0.9375,0.1875,-0.265625
1629880799812,-0.9375,0.1875,-0.265625
1629880799843,-0.9375,0.203125,-0.265625
1629880799875,-0.9375,0.1875,-0.265625
1629880799906,-0.9375,0.203125,-0.265625
1629880799937,-0.9375,0.203125,-0.265625
1629880799968,-0.9375,0.203125,-0.265625
1629880800000,-0.9375,0.1875,-0.265625
1629880800031,-0.9375,0.203125,-0.265625
1629880800062,-0.9375,0.203125,-0.265625
1629880800093,-0.9375,0.203125,-0.265625
1629880800125,-0.9375,0.203125,-0.265625
1629880800156,-0.953125,0.1875,-0.265625
1629880800187,-0.9375,0.203125,-0.265625
1629880800218,-0.953125,0.1875,-0.265625
1629880800250,-0.9375,0.203125,-0.265625
1629880800281,-0.9375,0.203125,-0.265625
1629880800312,-0.9375,0.203125,-0.265625
1629880800343,-0.9375,0.1875,-0.265625
1629880800375,-0.9375,0.1875,-0.265625
1629880800406,-0.9375,0.203125,-0.265625
1629880800437,-0.9375,0.1875,-0.265625
1629880800468,-0.953125,0.1875,-0.265625
1629880800500,-0.9375,0.203125,-0.265625
1629880800531,-0.9375,0.1875,-0.265625
1629880800562,-0.9375,0.203125,-0.265625
1629880800593,-0.9375,0.203125,-0.265625
1629880800625,-0.9375,0.1875,-0.265625
1629880800656,-0.9375,0.1875,-0.265625
1629880800687,-0.9375,0.203125,-0.265625
1629880800718,-0.9375,0.1875,-0.25
1629880800750,-0.953125,0.1875,-0.265625
1629880800781,-0.953125,0.1875,-0.265625
1629880800812,-0.9375,0.203125,-0.25
1629880800843,-0.9375,0.1875,-0.25
1629880800875,-0.953125,0.203125,-0.265625
1629880800906,-0.9375,0.203125,-0.265625
1629880800937,-0.9375,0.203125,-0.265625
1629880800968,-0.9375,0.203125,-0.265625
1629880801000,-0.9375,0.203125,-0.265625
1629880801031,-0.9375,0.203125,-0.265625
1629880801062,-0.9375,0.203125,-0.265625
1629880801093,-0.9375,0.203125,-0.265625
1629880801125,-0.90625,0.203125,-0.21875
1629880801156,-0.96875,0.1875,-0.328125
1629880801187,-0.96875,0.1875,-0.328125
1629880801218,-0.9375,0.203125,-0.28125
1629880801250,-0.9375,0.203125,-0.28125
1629880801281,-0.9375,0.203125,-0.28125
1629880801312,-0.9375,0.1875,-0.265625
1629880801343,-0.9375,0.203125,-0.28125
1629880801375,-0.9375,0.203125,-0.28125
1629880801406,-0.9375,0.203125,-0.28125
1629880801437,-0.9375,0.203125,-0.28125
1629880801468,-0.9375,0.203125,-0.28125
1629880801500,-0.9375,0.203125,-0.265625
1629880801531,-0.9375,0.1875,-0.28125
1629880801562,-0.953125,0.1875,-0.28125
1629880801593,-0.9375,0.203125,-0.28125
1629880801625,-0.9375,0.203125,-0.28125
1629880801656,-0.9375,0.203125,-0.28125
1629880801687,-0.9375,0.1875,-0.28125
1629880801718,-0.9375,0.203125,-0.28125
1629880801750,-0.9375,0.1875,-0.28125
1629880801781,-0.9375,0.203125,-0.28125
1629880801812,-0.9375,0.203125,-0.28125
1629880801843,-0.9375,0.203125,-0.28125
1629880801875,-0.9375,0.203125,-0.28125
1629880801906,-0.9375,0.203125,-0.28125
1629880801937,-0.9375,0.203125,-0.28125
1629880801968,-0.9375,0.203125,-0.28125
1629880802000,-0.9375,0.203125,-0.28125
1629880802031,-0.9375,0.1875,-0.28125
1629880802062,-0.9375,0.203125,-0.28125
1629880802093,-0.9375,0.203125,-0.28125
1629880802125,-0.9375,0.203125,-0.28125
1629880802156,-0.9375,0.203125,-0.28125
1629880802187,-0.9375,0.203125,-0.28125
1629880802218,-0.9375,0.203125,-0.28125
1629880802250,-0.9375,0.203125,-0.28125
1629880802281,-0.9375,0.203125,-0.28125
1629880802312,-0.9375,0.203125,-0.28125
1629880802343,-0.9375,0.203125,-0.28125
1629880802375,-0.9375,0.203125,-0.28125
1629880802406,-0.9375,0.203125,-0.28125
1629880802437,-0.9375,0.203125,-0.28125
1629880802468,-0.9375,0.1875,-0.28125
1629880802500,-0.9375,0.203125,-0.28125
1629880802531,-0.9375,0.203125,-0.28125
1629880802562,-0.9375,0.203125,-0.28125
1629880802593,-0.9375,0.203125,-0.28125
1629880802625,-0.9375,0.203125,-0.28125
1629880802656,-0.9375,0.203125,-0.28125
1629880802687,-0.9375,0.203125,-0.28125
1629880802718,-0.9375,0.203125,-0.28125
1629880802750,-0.9375,0.203125,-0.28125
1629880802781,-0.9375,0.203125,-0.28125
1629880802812,-0.9375,0.203125,-0.28125
1629880802843,-0.9375,0.203125,-0.28125
1629880802875,-0.9375,0.203125,-0.28125
1629880802906,-0.9375,0.203125,-0.28125
1629880802937,-0.9375,0.203125,-0.28125
1629880802968,-0.9375,0.203125,-0.28125
1629880803000,-0.9375,0.203125,-0.28125
1629880803031,-0.9375,0.203125,-0.28125
1629880803062,-0.9375,0.203125,-0.28125
1629880803093,-0.9375,0.203125,-0.28125
1629880803125,-0.9375,0.203125,-0.28125
1629880803156,-0.9375,0.203125,-0.28125
1629880803187,-0.9375,0.203125,-0.28125
1629880803218,-0.9375,0.203125,-0.28125
1629880803250,-0.9375,0.203125,-0.28125
1629880803281,-0.9375,0.203125,-0.28125
1629880803312,-0.9375,0.203125,-0.28125
1629880803343,-0.9375,0.1875,-0.28125
1629880803375,-0.9375,0.203125,-0.28125
1629880803406,-0.9375,0.1875,-0.28125
1629880803437,-0.9375,0.203125,-0.28125
1629880803468,-0.9375,0.203125,-0.28125
1629880803500,-0.9375,0.203125,-0.28125
1629880803531,-0.9375,0.203125,-0.28125
1629880803562,-0.9375,0.203125,-0.28125
1629880803593,-0.9375,0.203125,-0.28125
1629880803625,-0.9375,0.203125,-0.28125
1629880803656,-0.9375,0.203125,-0.28125
1629880803687,-0.9375,0.203125,-0.28125
1629880803718,-0.9375,0.203125,-0.28125
1629880803750,-0.9375,0.203125,-0.28125
1629880803781,-0.9375,0.203125,-0.28125
1629880803812,-0.9375,0.203125,-0.28125
1629880803843,-0.9375,0.203125,-0.28125
1629880803875,-0.9375,0.203125,-0.28125
1629880803906,-0.9375,0.203125,-0.28125
1629880803937,-0.9375,0.1875,-0.28125
1629880803968,-0.9375,0.203125,-0.28125
1629880804000,-0.9375,0.203125,-0.265625
1629880804031,-0.9375,0.203125,-0.28125
1629880804062,-0.9375,0.203125,-0.28125
1629880804093,-0.9375,0.203125,-0.28125
1629880804125,-0.9375,0.203125,-0.265625
1629880804156,-0.9375,0.203125,-0.28125
1629880804187,-0.9375,0.203125,-0.28125
1629880804218,-0.9375,0.203125,-0.28125
1629880804250,-0.9375,0.203125,-0.28125
1629880804281,-0.9375,0.203125,-0.28125
1629880804312,-0.9375,0.203125,-0.28125
1629880804343,-0.9375,0.203125,-0.28125
1629880804375,-0.9375,0.203125,-0.28125
1629880804406,-0.9375,0.203125,-0.28125
1629880804437,-0.9375,0.203125,-0.28125
1629880804468,-0.9375,0.203125,-0.28125
1629880804500,-0.9375,0.203125,-0.28125
1629880804531,-0.9375,0.203125,-0.28125
1629880804562,-0.9375,0.203125,-0.28125
1629880804593,-0.9375,0.203125,-0.28125
1629880804625,-0.9375,0.203125,-0.28125
1629880804656,-0.9375,0.203125,-0.28125
1629880804687,-0.9375,0.203125,-0.28125
1629880804718,-0.9375,0.203125,-0.28125
1629880804750,-0.9375,0.203125,-0.28125
1629880804781,-0.9375,0.203125,-0.28125
1629880804812,-0.9375,0.203125,-0.28125
1629880804843,-0.9375,0.203125,-0.28125
1629880804875,-0.9375,0.203125,-0.28125
1629880804906,-0.9375,0.203125,-0.28125
1629880804937,-0.9375,0.203125,-0.28125
1629880804968,-0.9375,0.203125,-0.28125
1629880805000,-0.9375,0.203125,-0.28125
1629880805031,-0.9375,0.203125,-0.28125
1629880805062,-0.9375,0.203125,-0.28125
1629880805093,-0.9375,0.203125,-0.28125
1629880805125,-0.9375,0.203125,-0.28125
1629880805156,-0.9375,0.203125,-0.28125
1629880805187,-0.9375,0.203125,-0.28125
1629880805218,-0.9375,0.203125,-0.28125
1629880805250,-0.9375,0.203125,-0.28125
1629880805281,-0.9375,0.203125,-0.28125
1629880805312,-0.9375,0.203125,-0.28125
1629880805343,-0.9375,0.203125,-0.28125
1629880805375,-0.9375,0.203125,-0.265625
1629880805406,-0.9375,0.203125,-0.28125
1629880805437,-0.9375,0.203125,-0.28125
1629880805468,-0.9375,0.203125,-0.28125
1629880805500,-0.9375,0.203125,-0.28125
1629880805531,-0.9375,0.203125,-0.265625
1629880805562,-0.9375,0.203125,-0.265625
1629880805593,-0.9375,0.203125,-0.265625
1629880805625,-0.9375,0.203125,-0.265625
1629880805656,-0.9375,0.203125,-0.265625
1629880805687,-0.9375,0.203125,-0.265625
1629880805718,-0.9375,0.203125,-0.265625
1629880805750,-0.9375,0.203125,-0.265625
1629880805781,-0.9375,0.203125,-0.265625
1629880805812,-0.9375,0.1875,-0.28125
1629880805843,-0.9375,0.1875,-0.28125
1629880805875,-0.9375,0.203125,-0.265625
1629880805906,-0.9375,0.203125,-0.28125
1629880805937,-0.9375,0.203125,-0.265625
1629880805968,-0.9375,0.1875,-0.265625
1629880806000,-0.9375,0.203125,-0.28125
1629880806031,-0.953125,0.203125,-0.28125
1629880806062,-0.9375,0.203125,-0.28125
1629880806093,-0.9375,0.203125,-0.265625
1629880806125,-0.9375,0.203125,-0.265625
1629880806156,-0.9375,0.1875,-0.265625
1629880806187,-0.9375,0.203125,-0.265625
1629880806218,-0.953125,0.203125,-0.265625
1629880806250,-0.9375,0.203125,-0.265625
1629880806281,-0.9375,0.203125,-0.265625
1629880806312,-0.9375,0.203125,-0.265625
1629880806343,-0.9375,0.1875,-0.265625
1629880806375,-0.9375,0.203125,-0.265625
1629880806406,-0.9375,0.203125,-0.265625
1629880806437,-0.9375,0.203125,-0.265625
1629880806468,-0.9375,0.203125,-0.265625
1629880806500,-0.9375,0.203125,-0.265625
1629880806531,-0.9375,0.203125,-0.265625
1629880806562,-0.953125,0.203125,-0.265625
1629880806593,-0.9375,0.203125,-0.265625
1629880806625,-0.9375,0.203125,-0.265625
1629880806656,-0.953125,0.203125,-0.265625
1629880806687,-0.9375,0.203125,-0.265625
1629880806718,-0.9375,0.203125,-0.265625
1629880806750,-0.953125,0.203125,-0.265625
1629880806781,-0.953125,0.203125,-0.265625
1629880806812,-0.953125,0.21875,-0.265625
1629880806843,-0.953125,0.21875,-0.265625
1629880806875,-0.953125,0.203125,-0.28125
1629880806906,-0.9375,0.21875,-0.234375
1629880806937,-0.96875,0.1875,-0.25
1629880806968,-0.921875,0.1875,-0.171875
1629880807000,-0.953125,0.1875,-0.171875
1629880807031,-0.9375,0.15625,-0.1875
1629880807062,-0.9375,0.15625,-0.1875
1629880807093,-0.953125,0.171875,-0.21875
1629880807125,-0.984375,0.171875,-0.25
1629880807156,-0.953125,0.171875,-0.234375
1629880807187,-0.953125,0.171875,-0.21875
1629880807218,-0.96875,0.171875,-0.234375
1629880807250,-0.96875,0.171875,-0.25
1629880807281,-0.953125,0.1875,-0.21875
1629880807312,-0.953125,0.1875,-0.203125
1629880807343,-0.953125,0.203125,-0.203125
1629880807375,-0.953125,0.21875,-0.21875
1629880807406,-0.953125,0.21875,-0.21875
1629880807437,-0.953125,0.203125,-0.21875
1629880807468,-0.953125,0.203125,-0.203125
1629880807500,-0.9375,0.203125,-0.21875
1629880807531,-0.953125,0.203125,-0.21875
1629880807562,-0.953125,0.203125,-0.21875
1629880807593,-0.953125,0.203125,-0.25
1629880807625,-0.96875,0.203125,-0.25
1629880807656,-0.953125,0.203125,-0.265625
1629880807687,-0.953125,0.1875,-0.34375
1629880807718,-0.984375,0.1875,-0.328125
1629880807750,-0.953125,0.25,-0.109375
1629880807781,-0.90625,0.25,-0.078125
1629880807812,-0.9375,0.203125,-0.15625
1629880807843,-0.984375,0.203125,-0.171875
1629880807875,-0.953125,0.234375,-0.140625
1629880807906,-0.9375,0.234375,-0.171875
1629880807937,-0.953125,0.21875,-0.25
1629880807968,-0.96875,0.203125,-0.25
1629880808000,-0.984375,0.203125,-0.21875
1629880808031,-0.96875,0.1875,-0.203125
1629880808062,-0.9375,0.171875,-0.15625
1629880808093,-0.953125,0.15625,-0.171875
1629880808125,-0.953125,0.171875,-0.203125
1629880808156,-0.96875,0.203125,-0.234375
1629880808187,-0.96875,0.21875,-0.234375
1629880808218,-0.953125,0.21875,-0.21875
1629880808250,-0.953125,0.1875,-0.21875
1629880808281,-0.953125,0.1875,-0.21875
1629880808312,-0.953125,0.1875,-0.21875
1629880808343,-0.953125,0.1875,-0.234375
1629880808375,-0.953125,0.203125,-0.234375
1629880808406,-0.96875,0.203125,-0.25
1629880808437,-0.953125,0.1875,-0.234375
1629880808468,-0.953125,0.1875,-0.21875
1629880808500,-0.953125,0.1875,-0.21875
1629880808531,-0.953125,0.1875,-0.21875
1629880808562,-0.953125,0.1875,-0.21875
1629880808593,-0.953125,0.1875,-0.21875
1629880808625,-0.96875,0.1875,-0.234375
1629880808656,-0.953125,0.1875,-0.21875
1629880808687,-0.953125,0.1875,-0.21875
1629880808718,-0.953125,0.1875,-0.21875
1629880808750,-0.953125,0.1875,-0.21875
1629880808781,-0.953125,0.203125,-0.21875
1629880808812,-0.953125,0.203125,-0.21875
1629880808843,-0.953125,0.1875,-0.234375
1629880808875,-0.953125,0.1875,-0.234375
1629880808906,-0.953125,0.203125,-0.234375
1629880808937,-0.953125,0.1875,-0.21875
1629880808968,-0.953125,0.1875,-0.234375
1629880809000,-0.953125,0.1875,-0.21875
1629880809031,-0.953125,0.1875,-0.21875
1629880809062,-0.953125,0.1875,-0.21875
1629880809093,-0.953125,0.1875,-0.234375
1629880809125,-0.953125,0.1875,-0.21875
1629880809156,-0.953125,0.1875,-0.21875
1629880809187,-0.96875,0.1875,-0.234375
1629880809218,-0.96875,0.1875,-0.234375
1629880809250,-0.953125,0.1875,-0.21875
1629880809281,-0.953125,0.1875,-0.234375
1629880809312,-0.953125,0.1875,-0.234375
1629880809343,-0.953125,0.1875,-0.21875
1629880809375,-0.953125,0.203125,-0.21875
1629880809406,-0.953125,0.1875,-0.234375
1629880809437,-0.953125,0.1875,-0.21875
1629880809468,-0.953125,0.1875,-0.21875
1629880809500,-0.953125,0.1875,-0.21875
1629880809531,-0.953125,0.1875,-0.21875
1629880809562,-0.953125,0.1875,-0.234375
1629880809593,-0.953125,0.1875,-0.25
1629880809625,-0.953125,0.1875,-0.25
1629880809656,-0.953125,0.1875,-0.25
1629880809687,-0.953125,0.1875,-0.234375
1629880809718,-0.953125,0.1875,-0.234375
1629880809750,-0.953125,0.1875,-0.25
1629880809781,-0.953125,0.203125,-0.25
1629880809812,-0.9375,0.1875,-0.234375
1629880809843,-0.953125,0.1875,-0.25
1629880809875,-0.953125,0.1875,-0.265625
1629880809906,-0.953125,0.1875,-0.25
1629880809937,-0.953125,0.1875,-0.25
1629880809968,-0.953125,0.1875,-0.25
1629880810000,-0.953125,0.1875,-0.25
1629880810031,-0.953125,0.1875,-0.234375
1629880810062,-0.953125,0.1875,-0.25
1629880810093,-0.953125,0.1875,-0.25
1629880810125,-0.953125,0.1875,-0.25
1629880810156,-0.953125,0.1875,-0.25
1629880810187,-0.953125,0.1875,-0.25
1629880810218,-0.953125,0.1875,-0.25
1629880810250,-0.953125,0.1875,-0.25
1629880810281,-0.953125,0.1875,-0.25
1629880810312,-0.953125,0.1875,-0.25
1629880810343,-0.953125,0.1875,-0.234375
1629880810375,-0.953125,0.1875,-0.25
1629880810406,-0.953125,0.1875,-0.25
1629880810437,-0.953125,0.1875,-0.25
1629880810468,-0.953125,0.1875,-0.25
1629880810500,-0.953125,0.1875,-0.25
1629880810531,-0.953125,0.1875,-0.25
1629880810562,-0.953125,0.1875,-0.25
1629880810593,-0.9375,0.1875,-0.234375
1629880810625,-0.953125,0.1875,-0.25
1629880810656,-0.953125,0.1875,-0.25
1629880810687,-0.953125,0.1875,-0.25
1629880810718,-0.953125,0.1875,-0.25
1629880810750,-0.953125,0.1875,-0.25
1629880810781,-0.9375,0.1875,-0.25
1629880810812,-0.953125,0.1875,-0.265625
1629880810843,-0.953125,0.1875,-0.25
1629880810875,-0.953125,0.1875,-0.25
1629880810906,-0.953125,0.1875,-0.25
1629880810937,-0.953125,0.1875,-0.25
1629880810968,-0.9375,0.1875,-0.25
1629880811000,-0.953125,0.1875,-0.25
1629880811031,-0.953125,0.1875,-0.25
1629880811062,-0.953125,0.1875,-0.265625
1629880811093,-0.953125,0.1875,-0.265625
1629880811125,-0.9375,0.1875,-0.21875
1629880811156,-0.9375,0.1875,-0.203125
1629880811187,-0.953125,0.1875,-0.234375
1629880811218,-0.953125,0.1875,-0.234375
1629880811250,-0.953125,0.1875,-0.234375
1629880811281,-0.953125,0.1875,-0.234375
1629880811312,-0.953125,0.1875,-0.234375
1629880811343,-0.953125,0.1875,-0.234375
1629880811375,-0.953125,0.1875,-0.234375
1629880811406,-0.953125,0.1875,-0.21875
1629880811437,-0.953125,0.1875,-0.21875
1629880811468,-0.953125,0.1875,-0.21875
1629880811500,-0.953125,0.1875,-0.203125
1629880811531,-0.96875,0.1875,-0.203125
1629880811562,-0.953125,0.1875,-0.21875
1629880811593,-0.953125,0.1875,-0.203125
1629880811625,-0.953125,0.1875,-0.21875
1629880811656,-0.953125,0.1875,-0.21875
1629880811687,-0.953125,0.1875,-0.21875
1629880811718,-0.96875,0.1875,-0.25
1629880811750,-0.96875,0.1875,-0.234375
1629880811781,-0.953125,0.1875,-0.21875
1629880811812,-0.953125,0.1875,-0.21875
1629880811843,-0.953125,0.1875,-0.21875
1629880811875,-0.953125,0.1875,-0.21875
1629880811906,-0.953125,0.1875,-0.21875
1629880811937,-0.953125,0.1875,-0.21875
1629880811968,-0.953125,0.1875,-0.21875
1629880812000,-0.96875,0.1875,-0.21875
1629880812031,-0.953125,0.1875,-0.21875
1629880812062,-0.953125,0.1875,-0.21875
1629880812093,-0.96875,0.1875,-0.203125
1629880812125,-0.953125,0.1875,-0.21875
1629880812156,-0.96875,0.1875,-0.203125
1629880812187,-0.96875,0.1875,-0.203125
1629880812218,-0.96875,0.1875,-0.203125
1629880812250,-0.96875,0.1875,-0.203125
1629880812281,-0.953125,0.1875,-0.203125
1629880812312,-0.96875,0.1875,-0.1875
1629880812343,-0.953125,0.171875,-0.203125
1629880812375,-0.96875,0.1875,-0.203125
1629880812406,-0.953125,0.1875,-0.21875
1629880812437,-0.96875,0.1875,-0.21875
1629880812468,-0.953125,0.1875,-0.203125
1629880812500,-0.953125,0.1875,-0.203125
1629880812531,-0.953125,0.1875,-0.203125
1629880812562,-0.953125,0.1875,-0.21875
1629880812593,-0.953125,0.1875,-0.203125
1629880812625,-0.96875,0.1875,-0.234375
1629880812656,-0.96875,0.1875,-0.25
1629880812687,-0.953125,0.1875,-0.21875
1629880812718,-0.953125,0.1875,-0.21875
1629880812750,-0.953125,0.1875,-0.21875
1629880812781,-0.953125,0.1875,-0.21875
1629880812812,-0.953125,0.1875,-0.21875
1629880812843,-0.96875,0.1875,-0.234375
1629880812875,-0.953125,0.1875,-0.234375
1629880812906,-0.953125,0.1875,-0.234375
1629880812937,-0.953125,0.1875,-0.234375
1629880812968,-0.953125,0.1875,-0.234375
1629880813000,-0.953125,0.1875,-0.234375
1629880813031,-0.953125,0.1875,-0.234375
1629880813062,-0.953125,0.171875,-0.234375
1629880813093,-0.953125,0.171875,-0.234375
1629880813125,-0.953125,0.1875,-0.234375
1629880813156,-0.953125,0.1875,-0.234375
1629880813187,-0.953125,0.1875,-0.234375
1629880813218,-0.953125,0.171875,-0.234375
1629880813250,-0.953125,0.171875,-0.234375
1629880813281,-0.953125,0.171875,-0.234375
1629880813312,-0.953125,0.171875,-0.25
1629880813343,-0.953125,0.171875,-0.234375
1629880813375,-0.953125,0.171875,-0.234375
1629880813406,-0.953125,0.1875,-0.234375
1629880813437,-0.953125,0.171875,-0.21875
1629880813468,-0.953125,0.171875,-0.21875
1629880813500,-0.953125,0.171875,-0.21875
1629880813531,-0.953125,0.171875,-0.21875
1629880813562,-0.953125,0.1875,-0.234375
1629880813593,-0.953125,0.171875,-0.21875
1629880813625,-0.953125,0.171875,-0.234375
1629880813656,-0.953125,0.171875,-0.234375
1629880813687,-0.953125,0.171875,-0.21875
1629880813718,-0.953125,0.171875,-0.234375
1629880813750,-0.953125,0.171875,-0.234375
1629880813781,-0.953125,0.171875,-0.234375
1629880813812,-0.953125,0.1875,-0.234375
1629880813843,-0.953125,0.1875,-0.21875
1629880813875,-0.953125,0.1875,-0.234375
1629880813906,-0.953125,0.1875,-0.21875
1629880813937,-0.953125,0.1875,-0.21875
1629880813968,-0.953125,0.171875,-0.234375
1629880814000,-0.953125,0.171875,-0.21875
1629880814031,-0.953125,0.1875,-0.21875
1629880814062,-0.953125,0.171875,-0.234375
1629880814093,-0.953125,0.171875,-0.234375
1629880814125,-0.953125,0.171875,-0.21875
1629880814156,-0.953125,0.1875,-0.234375
1629880814187,-0.953125,0.1875,-0.234375
1629880814218,-0.953125,0.1875,-0.234375
1629880814250,-0.96875,0.1875,-0.234375
