timestamp,ax,ay,az
1630415912000,-0.78125,0.484375,0.40625
1630415912031,-0.78125,0.484375,0.40625
1630415912062,-0.765625,0.484375,0.40625
1630415912093,-0.765625,0.484375,0.40625
1630415912125,-0.765625,0.484375,0.40625
1630415912156,-0.765625,0.484375,0.40625
1630415912187,-0.78125,0.484375,0.40625
1630415912218,-0.78125,0.46875,0.40625
1630415912250,-0.78125,0.46875,0.40625
1630415912281,-0.765625,0.46875,0.40625
1630415912312,-0.765625,0.46875,0.40625
1630415912343,-0.78125,0.484375,0.40625
1630415912375,-0.78125,0.484375,0.40625
1630415912406,-0.78125,0.484375,0.40625
1630415912437,-0.765625,0.484375,0.40625
1630415912468,-0.765625,0.484375,0.40625
1630415912500,-0.765625,0.484375,0.40625
1630415912531,-0.765625,0.484375,0.40625
1630415912562,-0.78125,0.484375,0.40625
1630415912593,-0.765625,0.484375,0.40625
1630415912625,-0.765625,0.484375,0.40625
1630415912656,-0.78125,0.484375,0.40625
1630415912687,-0.78125,0.484375,0.40625
1630415912718,-0.78125,0.484375,0.40625
1630415912750,-0.78125,0.484375,0.390625
1630415912781,-0.78125,0.484375,0.40625
1630415912812,-0.765625,0.484375,0.40625
1630415912843,-0.765625,0.484375,0.40625
1630415912875,-0.78125,0.484375,0.40625
1630415912906,-0.765625,0.484375,0.40625
1630415912937,-0.78125,0.46875,0.40625
1630415912968,-0.78125,0.46875,0.40625
1630415913000,-0.78125,0.46875,0.40625
1630415913031,-0.78125,0.484375,0.40625
1630415913062,-0.78125,0.484375,0.40625
1630415913093,-0.78125,0.484375,0.40625
1630415913125,-0.78125,0.484375,0.40625
1630415913156,-0.765625,0.484375,0.40625
1630415913187,-0.765625,0.484375,0.40625
1630415913218,-0.78125,0.484375,0.40625
1630415913250,-0.78125,0.46875,0.40625
1630415913281,-0.78125,0.46875,0.40625
1630415913312,-0.78125,0.484375,0.40625
1630415913343,-0.765625,0.484375,0.40625
1630415913375,-0.765625,0.484375,0.40625
1630415913406,-0.78125,0.46875,0.40625
1630415913437,-0.78125,0.484375,0.40625
1630415913468,-0.765625,0.484375,0.40625
1630415913500,-0.78125,0.484375,0.40625
1630415913531,-0.765625,0.484375,0.40625
1630415913562,-0.765625,0.484375,0.40625
1630415913593,-0.765625,0.484375,0.40625
1630415913625,-0.78125,0.484375,0.40625
1630415913656,-0.78125,0.484375,0.40625
1630415913687,-0.765625,0.46875,0.40625
1630415913718,-0.765625,0.484375,0.40625
1630415913750,-0.78125,0.484375,0.40625
1630415913781,-0.765625,0.484375,0.40625
1630415913812,-0.765625,0.484375,0.40625
1630415913843,-0.765625,0.484375,0.40625
1630415913875,-0.765625,0.484375,0.40625
1630415913906,-0.765625,0.46875,0.40625
1630415913937,-0.78125,0.484375,0.40625
1630415913968,-0.765625,0.484375,0.40625
1630415914000,-0.765625,0.484375,0.40625
1630415914031,-0.765625,0.484375,0.40625
1630415914062,-0.765625,0.484375,0.40625
1630415914093,-0.78125,0.484375,0.40625
1630415914125,-0.765625,0.46875,0.40625
1630415914156,-0.765625,0.484375,0.40625
1630415914187,-0.78125,0.484375,0.40625
1630415914218,-0.765625,0.484375,0.40625
1630415914250,-0.765625,0.484375,0.40625
1630415914281,-0.765625,0.484375,0.40625
1630415914312,-0.765625,0.484375,0.40625
1630415914343,-0.78125,0.484375,0.40625
1630415914375,-0.78125,0.46875,0.40625
1630415914406,-0.78125,0.46875,0.40625
1630415914437,-0.765625,0.484375,0.40625
1630415914468,-0.765625,0.484375,0.40625
1630415914500,-0.765625,0.484375,0.40625
1630415914531,-0.765625,0.484375,0.40625
1630415914562,-0.765625,0.484375,0.40625
1630415914593,-0.765625,0.484375,0.40625
1630415914625,-0.765625,0.484375,0.40625
1630415914656,-0.765625,0.484375,0.40625
1630415914687,-0.78125,0.484375,0.40625
1630415914718,-0.765625,0.484375,0.40625
1630415914750,-0.765625,0.46875,0.40625
1630415914781,-0.765625,0.484375,0.40625
1630415914812,-0.765625,0.484375,0.40625
1630415914843,-0.765625,0.484375,0.40625
1630415914875,-0.765625,0.484375,0.40625
1630415914906,-0.78125,0.46875,0.40625
1630415914937,-0.78125,0.46875,0.40625
1630415914968,-0.78125,0.46875,0.390625
1630415915000,-0.78125,0.46875,0.390625
1630415915031,-0.78125,0.484375,0.390625
1630415915062,-0.78125,0.484375,0.390625
1630415915093,-0.78125,0.5,0.390625
1630415915125,-0.765625,0.5,0.40625
1630415915156,-0.765625,0.5,0.421875
1630415915187,-0.765625,0.5,0.421875
1630415915218,-0.765625,0.5,0.421875
1630415915250,-0.765625,0.484375,0.40625
1630415915281,-0.78125,0.46875,0.40625
1630415915312,-0.78125,0.46875,0.40625
1630415915343,-0.78125,0.46875,0.390625
1630415915375,-0.78125,0.46875,0.390625
1630415915406,-0.78125,0.46875,0.40625
1630415915437,-0.78125,0.46875,0.40625
1630415915468,-0.78125,0.46875,0.40625
1630415915500,-0.78125,0.46875,0.40625
1630415915531,-0.78125,0.46875,0.40625
1630415915562,-0.78125,0.453125,0.390625
1630415915593,-0.796875,0.46875,0.390625
1630415915625,-0.78125,0.46875,0.390625
1630415915656,-0.78125,0.484375,0.40625
1630415915687,-0.78125,0.484375,0.40625
1630415915718,-0.765625,0.484375,0.40625
1630415915750,-0.765625,0.484375,0.421875
1630415915781,-0.765625,0.484375,0.40625
1630415915812,-0.78125,0.484375,0.40625
1630415915843,-0.78125,0.484375,0.390625
1630415915875,-0.78125,0.484375,0.40625
1630415915906,-0.78125,0.46875,0.390625
1630415915937,-0.78125,0.46875,0.390625
1630415915968,-0.78125,0.46875,0.390625
1630415916000,-0.78125,0.484375,0.390625
1630415916031,-0.78125,0.484375,0.40625
1630415916062,-0.78125,0.46875,0.40625
1630415916093,-0.78125,0.46875,0.40625
1630415916125,-0.78125,0.46875,0.40625
1630415916156,-0.765625,0.484375,0.40625
1630415916187,-0.78125,0.484375,0.40625
1630415916218,-0.78125,0.484375,0.40625
1630415916250,-0.78125,0.484375,0.40625
1630415916281,-0.78125,0.484375,0.40625
1630415916312,-0.765625,0.484375,0.40625
1630415916343,-0.78125,0.484375,0.40625
1630415916375,-0.78125,0.484375,0.40625
1630415916406,-0.78125,0.46875,0.40625
1630415916437,-0.78125,0.46875,0.40625
1630415916468,-0.78125,0.46875,0.40625
1630415916500,-0.78125,0.484375,0.40625
1630415916531,-0.78125,0.484375,0.390625
1630415916562,-0.78125,0.484375,0.40625
1630415916593,-0.78125,0.484375,0.40625
1630415916625,-0.78125,0.46875,0.40625
1630415916656,-0.78125,0.46875,0.40625
1630415916687,-0.78125,0.46875,0.40625
1630415916718,-0.765625,0.484375,0.40625
1630415916750,-0.765625,0.484375,0.40625
1630415916781,-0.78125,0.484375,0.40625
1630415916812,-0.765625,0.484375,0.40625
1630415916843,-0.765625,0.5,0.40625
1630415916875,-0.765625,0.484375,0.40625
1630415916906,-0.765625,0.484375,0.40625
1630415916937,-0.78125,0.46875,0.390625
1630415916968,-0.796875,0.46875,0.40625
1630415917000,-0.78125,0.46875,0.390625
1630415917031,-0.78125,0.46875,0.390625
1630415917062,-0.78125,0.46875,0.390625
1630415917093,-0.78125,0.484375,0.390625
1630415917125,-0.78125,0.484375,0.40625
1630415917156,-0.765625,0.484375,0.40625
1630415917187,-0.765625,0.484375,0.40625
1630415917218,-0.765625,0.5,0.40625
1630415917250,-0.765625,0.5,0.40625
1630415917281,-0.765625,0.5,0.40625
1630415917312,-0.765625,0.5,0.40625
1630415917343,-0.765625,0.484375,0.40625
1630415917375,-0.765625,0.484375,0.40625
1630415917406,-0.78125,0.484375,0.40625
1630415917437,-0.78125,0.46875,0.40625
1630415917468,-0.765625,0.46875,0.40625
1630415917500,-0.78125,0.46875,0.390625
1630415917531,-0.78125,0.46875,0.40625
1630415917562,-0.78125,0.453125,0.390625
1630415917593,-0.78125,0.453125,0.40625
1630415917625,-0.78125,0.46875,0.390625
1630415917656,-0.78125,0.484375,0.390625
1630415917687,-0.78125,0.484375,0.390625
1630415917718,-0.765625,0.5,0.40625
1630415917750,-0.765625,0.5,0.390625
1630415917781,-0.78125,0.5,0.390625
1630415917812,-0.765625,0.5,0.421875
1630415917843,-0.765625,0.5,0.421875
1630415917875,-0.765625,0.484375,0.40625
1630415917906,-0.765625,0.5,0.40625
1630415917937,-0.765625,0.484375,0.40625
1630415917968,-0.765625,0.46875,0.40625
1630415918000,-0.78125,0.453125,0.40625
1630415918031,-0.78125,0.453125,0.40625
1630415918062,-0.78125,0.453125,0.390625
1630415918093,-0.78125,0.453125,0.390625
1630415918125,-0.78125,0.46875,0.390625
1630415918156,-0.78125,0.484375,0.390625
1630415918187,-0.765625,0.484375,0.390625
1630415918218,-0.765625,0.5,0.40625
1630415918250,-0.765625,0.5,0.421875
1630415918281,-0.75,0.5,0.421875
1630415918312,-0.75,0.5,0.421875
1630415918343,-0.75,0.5,0.421875
1630415918375,-0.765625,0.5,0.40625
1630415918406,-0.765625,0.484375,0.40625
1630415918437,-0.78125,0.46875,0.40625
1630415918468,-0.78125,0.46875,0.40625
1630415918500,-0.796875,0.46875,0.390625
1630415918531,-0.796875,0.46875,0.390625
1630415918562,-0.796875,0.46875,0.390625
1630415918593,-0.78125,0.46875,0.390625
1630415918625,-0.78125,0.484375,0.40625
1630415918656,-0.78125,0.484375,0.390625
1630415918687,-0.765625,0.5,0.40625
1630415918718,-0.765625,0.5,0.40625
1630415918750,-0.765625,0.5,0.40625
1630415918781,-0.765625,0.5,0.40625
1630415918812,-0.78125,0.484375,0.40625
1630415918843,-0.78125,0.484375,0.390625
1630415918875,-0.78125,0.484375,0.40625
1630415918906,-0.765625,0.484375,0.40625
1630415918937,-0.78125,0.484375,0.40625
1630415918968,-0.78125,0.46875,0.40625
1630415919000,-0.765625,0.46875,0.40625
1630415919031,-0.78125,0.46875,0.359375
1630415919062,-0.78125,0.484375,0.359375
1630415919093,-0.78125,0.484375,0.390625
1630415919125,-0.796875,0.484375,0.390625
1630415919156,-0.78125,0.5,0.40625
1630415919187,-0.765625,0.5,0.421875
1630415919218,-0.75,0.5,0.4375
1630415919250,-0.734375,0.5,0.4375
1630415919281,-0.75,0.5,0.4375
1630415919312,-0.734375,0.5,0.421875
1630415919343,-0.75,0.515625,0.40625
1630415919375,-0.75,0.5,0.40625
1630415919406,-0.78125,0.484375,0.40625
1630415919437,-0.78125,0.46875,0.40625
1630415919468,-0.78125,0.46875,0.40625
1630415919500,-0.78125,0.46875,0.390625
1630415919531,-0.78125,0.484375,0.390625
1630415919562,-0.78125,0.484375,0.40625
1630415919593,-0.765625,0.5,0.40625
1630415919625,-0.765625,0.5,0.40625
1630415919656,-0.765625,0.484375,0.40625
1630415919687,-0.765625,0.5,0.40625
1630415919718,-0.765625,0.484375,0.40625
1630415919750,-0.765625,0.5,0.40625
1630415919781,-0.765625,0.5,0.40625
1630415919812,-0.78125,0.5,0.40625
1630415919843,-0.78125,0.484375,0.40625
1630415919875,-0.78125,0.484375,0.40625
1630415919906,-0.78125,0.484375,0.390625
1630415919937,-0.765625,0.46875,0.390625
1630415919968,-0.78125,0.484375,0.40625
1630415920000,-0.78125,0.484375,0.390625
1630415920031,-0.765625,0.484375,0.390625
1630415920062,-0.78125,0.5,0.40625
1630415920093,-0.765625,0.5,0.40625
1630415920125,-0.765625,0.5,0.40625
1630415920156,-0.75,0.5,0.421875
1630415920187,-0.75,0.5,0.421875
1630415920218,-0.75,0.5,0.421875
1630415920250,-0.765625,0.5,0.40625
1630415920281,-0.78125,0.484375,0.40625
1630415920312,-0.765625,0.46875,0.40625
1630415920343,-0.765625,0.484375,0.40625
1630415920375,-0.78125,0.484375,0.390625
1630415920406,-0.78125,0.484375,0.390625
1630415920437,-0.765625,0.46875,0.390625
1630415920468,-0.765625,0.46875,0.40625
1630415920500,-0.765625,0.484375,0.40625
1630415920531,-0.765625,0.484375,0.40625
1630415920562,-0.765625,0.5,0.40625
1630415920593,-0.765625,0.5,0.40625
1630415920625,-0.75,0.5,0.40625
1630415920656,-0.75,0.5,0.40625
1630415920687,-0.75,0.515625,0.421875
1630415920718,-0.75,0.5,0.421875
1630415920750,-0.765625,0.5,0.40625
1630415920781,-0.765625,0.5,0.40625
1630415920812,-0.765625,0.5,0.40625
1630415920843,-0.765625,0.5,0.40625
1630415920875,-0.765625,0.484375,0.40625
1630415920906,-0.765625,0.484375,0.40625
1630415920937,-0.765625,0.484375,0.40625
1630415920968,-0.765625,0.484375,0.40625
1630415921000,-0.765625,0.484375,0.40625
1630415921031,-0.765625,0.484375,0.40625
1630415921062,-0.765625,0.484375,0.40625
1630415921093,-0.765625,0.484375,0.40625
1630415921125,-0.765625,0.484375,0.40625
1630415921156,-0.765625,0.5,0.40625
1630415921187,-0.765625,0.5,0.40625
1630415921218,-0.765625,0.5,0.40625
1630415921250,-0.765625,0.5,0.40625
1630415921281,-0.765625,0.5,0.40625
1630415921312,-0.765625,0.5,0.40625
1630415921343,-0.765625,0.484375,0.40625
1630415921375,-0.78125,0.484375,0.40625
1630415921406,-0.765625,0.484375,0.390625
1630415921437,-0.765625,0.484375,0.40625
1630415921468,-0.765625,0.484375,0.40625
1630415921500,-0.765625,0.484375,0.40625
1630415921531,-0.765625,0.484375,0.40625
1630415921562,-0.765625,0.484375,0.40625
1630415921593,-0.765625,0.484375,0.40625
1630415921625,-0.765625,0.484375,0.40625
1630415921656,-0.765625,0.484375,0.40625
1630415921687,-0.765625,0.484375,0.40625
1630415921718,-0.765625,0.484375,0.40625
1630415921750,-0.765625,0.484375,0.40625
1630415921781,-0.78125,0.484375,0.40625
1630415921812,-0.765625,0.484375,0.40625
1630415921843,-0.765625,0.484375,0.40625
1630415921875,-0.765625,0.484375,0.40625
1630415921906,-0.765625,0.484375,0.40625
1630415921937,-0.765625,0.484375,0.40625
1630415921968,-0.765625,0.484375,0.40625
1630415922000,-0.765625,0.5,0.40625
1630415922031,-0.765625,0.484375,0.40625
1630415922062,-0.765625,0.484375,0.40625
1630415922093,-0.78125,0.484375,0.40625
1630415922125,-0.765625,0.484375,0.40625
1630415922156,-0.765625,0.484375,0.40625
1630415922187,-0.765625,0.5,0.40625
1630415922218,-0.765625,0.5,0.40625
1630415922250,-0.78125,0.484375,0.40625
1630415922281,-0.765625,0.484375,0.40625
1630415922312,-0.765625,0.5,0.40625
1630415922343,-0.765625,0.5,0.40625
1630415922375,-0.765625,0.484375,0.40625
1630415922406,-0.765625,0.484375,0.40625
1630415922437,-0.765625,0.484375,0.40625
1630415922468,-0.765625,0.484375,0.40625
1630415922500,-0.765625,0.484375,0.40625
1630415922531,-0.765625,0.484375,0.40625
1630415922562,-0.765625,0.484375,0.40625
1630415922593,-0.765625,0.484375,0.40625
1630415922625,-0.765625,0.484375,0.40625
1630415922656,-0.765625,0.484375,0.40625
1630415922687,-0.765625,0.484375,0.40625
1630415922718,-0.765625,0.5,0.40625
1630415922750,-0.78125,0.5,0.40625
1630415922781,-0.796875,0.5,0.40625
1630415922812,-0.8125,0.515625,0.40625
1630415922843,-0.84375,0.515625,0.421875
1630415922875,-0.8125,0.515625,0.421875
1630415922906,-0.78125,0.515625,0.4375
1630415922937,-0.75,0.484375,0.390625
1630415922968,-0.75,0.484375,0.390625
1630415923000,-0.765625,0.453125,0.40625
1630415923031,-0.78125,0.4375,0.421875
1630415923062,-0.796875,0.4375,0.421875
1630415923093,-0.796875,0.4375,0.4375
1630415923125,-0.796875,0.4375,0.4375
1630415923156,-0.78125,0.4375,0.4375
1630415923187,-0.796875,0.421875,0.4375
1630415923218,-0.796875,0.421875,0.4375
1630415923250,-0.796875,0.40625,0.4375
1630415923281,-0.796875,0.40625,0.453125
1630415923312,-0.78125,0.390625,0.453125
1630415923343,-0.796875,0.390625,0.453125
1630415923375,-0.796875,0.390625,0.453125
1630415923406,-0.796875,0.375,0.46875
1630415923437,-0.796875,0.375,0.46875
1630415923468,-0.84375,0.34375,0.484375
1630415923500,-0.796875,0.328125,0.484375
1630415923531,-0.796875,0.296875,0.484375
1630415923562,-0.78125,0.28125,0.5
1630415923593,-0.78125,0.28125,0.5
1630415923625,-0.78125,0.28125,0.546875
1630415923656,-0.796875,0.265625,0.546875
1630415923687,-0.796875,0.28125,0.5625
1630415923718,-0.765625,0.265625,0.5625
1630415923750,-0.78125,0.296875,0.609375
1630415923781,-0.734375,0.296875,0.59375
1630415923812,-0.71875,0.328125,0.546875
1630415923843,-0.75,0.34375,0.578125
1630415923875,-0.75,0.34375,0.5625
1630415923906,-0.765625,0.34375,0.578125
1630415923937,-0.75,0.328125,0.59375
1630415923968,-0.734375,0.296875,0.59375
1630415924000,-0.71875,0.296875,0.640625
1630415924031,-0.796875,0.265625,0.609375
1630415924062,-0.796875,0.234375,0.5625
1630415924093,-0.796875,0.25,0.5625
1630415924125,-0.734375,0.265625,0.5625
1630415924156,-0.609375,0.234375,0.578125
1630415924187,-0.6875,0.265625,0.609375
1630415924218,-0.671875,0.25,0.5625
1630415924250,-0.703125,0.265625,0.5625
1630415924281,-0.71875,0.28125,0.53125
1630415924312,-0.703125,0.3125,0.515625
1630415924343,-0.671875,0.34375,0.515625
1630415924375,-0.6875,0.375,0.515625
1630415924406,-0.65625,0.359375,0.515625
1630415924437,-0.640625,0.265625,0.515625
1630415924468,-0.625,0.25,0.515625
1630415924500,-0.640625,0.265625,0.546875
1630415924531,-0.671875,0.28125,0.765625
1630415924562,-0.75,0.359375,0.734375
1630415924593,-0.796875,0.4375,0.640625
1630415924625,-0.796875,0.40625,0.484375
1630415924656,-0.796875,0.421875,0.484375
1630415924687,-0.65625,0.421875,0.375
1630415924718,-0.515625,0.40625,0.296875
1630415924750,-0.578125,0.453125,0.09375
1630415924781,-0.609375,0.546875,-0.03125
1630415924812,-0.578125,0.59375,-0.125
1630415924843,-0.609375,0.6875,-0.25
1630415924875,-0.71875,0.765625,-0.28125
1630415924906,-0.6875,0.90625,-0.078125
1630415924937,-0.78125,1.125,-0.234375
1630415924968,-1.1875,0.515625,-0.484375
1630415925000,-0.765625,0.890625,-0.015625
1630415925031,-0.765625,0.875,-0.109375
1630415925062,-0.640625,0.90625,-0.03125
1630415925093,-0.3125,1.046875,0.078125
1630415925125,-0.421875,1.0,-0.296875
1630415925156,-1.0,0.890625,-0.203125
1630415925187,-0.28125,1.0625,0.0
1630415925218,-0.453125,1.03125,-0.046875
1630415925250,-0.109375,1.015625,0.03125
1630415925281,-0.15625,0.921875,0.1875
1630415925312,-0.15625,0.9375,-0.390625
1630415925343,-0.171875,1.015625,-0.40625
1630415925375,0.203125,1.078125,0.046875
1630415925406,-0.234375,1.25,0.390625
1630415925437,-0.265625,1.1875,0.234375
1630415925468,-0.3125,1.015625,-0.0625
1630415925500,-0.25,0.90625,-0.1875
1630415925531,-0.40625,0.84375,-0.171875
1630415925562,-0.59375,0.8125,-0.265625
1630415925593,-0.5625,0.8125,-0.203125
1630415925625,-0.3125,0.96875,-0.015625
1630415925656,-0.359375,0.84375,-0.125
1630415925687,-0.140625,0.90625,-0.109375
1630415925718,0.1875,0.984375,-0.03125
1630415925750,0.234375,0.953125,0.03125
1630415925781,-0.09375,0.984375,-0.078125
1630415925812,-0.53125,0.921875,0.09375
1630415925843,-0.40625,0.984375,-0.03125
1630415925875,-0.421875,1.125,-0.265625
1630415925906,-0.546875,1.109375,-0.296875
1630415925937,-0.734375,1.078125,-0.171875
1630415925968,-0.71875,1.09375,-0.015625
1630415926000,-0.640625,1.0625,0.03125
1630415926031,-0.5625,0.921875,0.09375
1630415926062,-0.421875,0.921875,0.171875
1630415926093,-0.421875,0.953125,0.140625
1630415926125,-0.890625,0.875,-0.078125
1630415926156,-1.015625,0.78125,-0.265625
1630415926187,-0.84375,0.46875,-0.375
1630415926218,-1.0,0.1875,-0.453125
1630415926250,-0.921875,0.1875,-0.140625
1630415926281,-0.9375,0.15625,-0.046875
1630415926312,-0.875,0.0625,-0.0625
1630415926343,-0.5,0.171875,0.1875
1630415926375,-0.484375,0.09375,-0.109375
1630415926406,-0.21875,0.328125,0.171875
1630415926437,-0.28125,0.640625,0.796875
1630415926468,-0.359375,0.640625,1.125
1630415926500,-0.40625,0.6875,1.046875
1630415926531,-0.375,0.65625,0.734375
1630415926562,-0.375,0.625,0.671875
1630415926593,-0.40625,0.671875,0.703125
1630415926625,-0.59375,0.671875,0.65625
1630415926656,-0.578125,0.671875,0.65625
1630415926687,-0.46875,0.609375,0.5625
1630415926718,-0.359375,0.515625,0.53125
1630415926750,-0.421875,0.40625,0.671875
1630415926781,-0.6875,0.46875,1.125
1630415926812,-0.6875,0.421875,1.15625
1630415926843,-0.21875,0.3125,0.765625
1630415926875,-0.21875,0.3125,0.65625
1630415926906,-0.40625,0.359375,0.78125
1630415926937,-0.515625,0.359375,0.78125
1630415926968,-0.515625,0.34375,0.703125
1630415927000,-0.65625,0.3125,0.65625
1630415927031,-0.671875,0.328125,0.65625
1630415927062,-0.578125,0.359375,0.6875
1630415927093,-0.5,0.421875,0.734375
1630415927125,-0.46875,0.421875,0.75
1630415927156,-0.46875,0.421875,0.78125
1630415927187,-0.4375,0.421875,0.8125
1630415927218,-0.46875,0.4375,0.8125
1630415927250,-0.546875,0.390625,0.796875
1630415927281,-0.5625,0.359375,0.765625
1630415927312,-0.5625,0.265625,0.640625
1630415927343,-0.578125,0.265625,0.703125
1630415927375,-0.5625,0.296875,0.75
1630415927406,-0.375,0.390625,0.671875
1630415927437,-0.296875,0.421875,0.5625
1630415927468,-0.4375,0.578125,0.53125
1630415927500,-0.78125,0.734375,0.6875
1630415927531,-0.828125,0.6875,0.671875
1630415927562,-0.515625,0.671875,0.6875
1630415927593,-0.5,0.65625,0.6875
1630415927625,-0.578125,0.5625,0.75
1630415927656,-0.5625,0.46875,0.734375
1630415927687,-0.5625,0.4375,0.703125
1630415927718,-0.65625,0.4375,0.65625
1630415927750,-0.6875,0.4375,0.625
1630415927781,-0.625,0.421875,0.5625
1630415927812,-0.578125,0.40625,0.546875
1630415927843,-0.59375,0.390625,0.546875
1630415927875,-0.640625,0.359375,0.578125
1630415927906,-0.65625,0.359375,0.609375
1630415927937,-0.640625,0.40625,0.640625
1630415927968,-0.625,0.453125,0.6875
1630415928000,-0.609375,0.46875,0.6875
1630415928031,-0.609375,0.46875,0.671875
1630415928062,-0.59375,0.46875,0.671875
1630415928093,-0.546875,0.46875,0.6875
1630415928125,-0.53125,0.46875,0.6875
1630415928156,-0.5625,0.46875,0.671875
1630415928187,-0.609375,0.46875,0.640625
1630415928218,-0.609375,0.453125,0.609375
1630415928250,-0.609375,0.453125,0.609375
1630415928281,-0.609375,0.453125,0.625
1630415928312,-0.59375,0.453125,0.640625
1630415928343,-0.59375,0.46875,0.671875
1630415928375,-0.59375,0.453125,0.6875
1630415928406,-0.59375,0.453125,0.671875
1630415928437,-0.578125,0.4375,0.671875
1630415928468,-0.578125,0.4375,0.671875
1630415928500,-0.59375,0.421875,0.65625
1630415928531,-0.609375,0.4375,0.640625
1630415928562,-0.609375,0.453125,0.640625
1630415928593,-0.625,0.46875,0.640625
1630415928625,-0.609375,0.453125,0.65625
1630415928656,-0.546875,0.4375,0.671875
1630415928687,-0.53125,0.4375,0.6875
1630415928718,-0.5625,0.4375,0.6875
1630415928750,-0.59375,0.4375,0.671875
1630415928781,-0.578125,0.4375,0.640625
1630415928812,-0.59375,0.453125,0.625
1630415928843,-0.609375,0.484375,0.609375
1630415928875,-0.609375,0.484375,0.609375
1630415928906,-0.59375,0.46875,0.609375
1630415928937,-0.609375,0.5,0.59375
1630415928968,-0.625,0.5,0.59375
1630415929000,-0.625,0.515625,0.609375
1630415929031,-0.609375,0.5,0.625
1630415929062,-0.59375,0.5,0.640625
1630415929093,-0.59375,0.5,0.65625
1630415929125,-0.59375,0.5,0.65625
1630415929156,-0.578125,0.484375,0.640625
1630415929187,-0.578125,0.484375,0.625
1630415929218,-0.59375,0.484375,0.625
1630415929250,-0.59375,0.5,0.625
1630415929281,-0.59375,0.5,0.625
1630415929312,-0.609375,0.5,0.625
1630415929343,-0.59375,0.5,0.625
1630415929375,-0.578125,0.484375,0.640625
1630415929406,-0.59375,0.484375,0.640625
1630415929437,-0.59375,0.484375,0.640625
1630415929468,-0.578125,0.484375,0.640625
1630415929500,-0.59375,0.46875,0.640625
1630415929531,-0.59375,0.46875,0.625
1630415929562,-0.59375,0.484375,0.625
1630415929593,-0.59375,0.484375,0.640625
1630415929625,-0.59375,0.5,0.640625
1630415929656,-0.578125,0.484375,0.625
1630415929687,-0.59375,0.484375,0.625
1630415929718,-0.59375,0.484375,0.625
1630415929750,-0.59375,0.46875,0.640625
1630415929781,-0.59375,0.46875,0.640625
1630415929812,-0.59375,0.46875,0.65625
1630415929843,-0.578125,0.46875,0.65625
1630415929875,-0.59375,0.46875,0.625
1630415929906,-0.59375,0.484375,0.640625
1630415929937,-0.578125,0.46875,0.65625
1630415929968,-0.578125,0.46875,0.671875
1630415930000,-0.578125,0.46875,0.65625
1630415930031,-0.578125,0.46875,0.671875
1630415930062,-0.578125,0.46875,0.65625
1630415930093,-0.578125,0.46875,0.65625
1630415930125,-0.578125,0.46875,0.65625
1630415930156,-0.578125,0.484375,0.65625
1630415930187,-0.578125,0.46875,0.65625
1630415930218,-0.578125,0.46875,0.640625
1630415930250,-0.578125,0.46875,0.640625
1630415930281,-0.578125,0.46875,0.65625
1630415930312,-0.578125,0.46875,0.65625
1630415930343,-0.578125,0.453125,0.671875
1630415930375,-0.578125,0.46875,0.65625
1630415930406,-0.578125,0.46875,0.65625
1630415930437,-0.578125,0.46875,0.65625
1630415930468,-0.578125,0.46875,0.65625
1630415930500,-0.578125,0.46875,0.65625
1630415930531,-0.578125,0.46875,0.65625
1630415930562,-0.578125,0.46875,0.65625
1630415930593,-0.578125,0.46875,0.65625
1630415930625,-0.578125,0.46875,0.65625
1630415930656,-0.578125,0.46875,0.65625
1630415930687,-0.578125,0.46875,0.65625
1630415930718,-0.578125,0.46875,0.65625
1630415930750,-0.578125,0.46875,0.65625
1630415930781,-0.578125,0.46875,0.671875
1630415930812,-0.578125,0.46875,0.65625
1630415930843,-0.578125,0.46875,0.65625
1630415930875,-0.578125,0.46875,0.671875
1630415930906,-0.578125,0.46875,0.65625
1630415930937,-0.578125,0.46875,0.65625
1630415930968,-0.5625,0.46875,0.671875
1630415931000,-0.578125,0.46875,0.671875
1630415931031,-0.578125,0.46875,0.671875
1630415931062,-0.5625,0.46875,0.65625
1630415931093,-0.5625,0.46875,0.65625
1630415931125,-0.5625,0.46875,0.671875
1630415931156,-0.578125,0.46875,0.671875
1630415931187,-0.578125,0.46875,0.65625
1630415931218,-0.5625,0.46875,0.671875
1630415931250,-0.5625,0.46875,0.65625
1630415931281,-0.5625,0.46875,0.65625
1630415931312,-0.578125,0.46875,0.671875
1630415931343,-0.5625,0.46875,0.671875
1630415931375,-0.5625,0.46875,0.65625
1630415931406,-0.5625,0.46875,0.671875
1630415931437,-0.578125,0.46875,0.671875
1630415931468,-0.578125,0.46875,0.65625
1630415931500,-0.5625,0.46875,0.671875
1630415931531,-0.5625,0.46875,0.671875
1630415931562,-0.578125,0.46875,0.65625
1630415931593,-0.578125,0.46875,0.671875
1630415931625,-0.5625,0.46875,0.671875
1630415931656,-0.578125,0.46875,0.671875
1630415931687,-0.5625,0.46875,0.65625
1630415931718,-0.5625,0.46875,0.671875
1630415931750,-0.5625,0.46875,0.65625
1630415931781,-0.5625,0.46875,0.65625
1630415931812,-0.578125,0.46875,0.65625
1630415931843,-0.5625,0.46875,0.65625
1630415931875,-0.5625,0.46875,0.65625
1630415931906,-0.5625,0.46875,0.671875
1630415931937,-0.5625,0.46875,0.671875
1630415931968,-0.5625,0.46875,0.671875
1630415932000,-0.5625,0.46875,0.671875
1630415932031,-0.5625,0.46875,0.671875
1630415932062,-0.5625,0.46875,0.65625
1630415932093,-0.5625,0.46875,0.65625
1630415932125,-0.5625,0.46875,0.671875
1630415932156,-0.5625,0.46875,0.65625
1630415932187,-0.5625,0.46875,0.671875
1630415932218,-0.5625,0.46875,0.65625
1630415932250,-0.5625,0.46875,0.65625
1630415932281,-0.5625,0.46875,0.671875
1630415932312,-0.5625,0.46875,0.671875
1630415932343,-0.5625,0.46875,0.671875
1630415932375,-0.5625,0.46875,0.671875
1630415932406,-0.5625,0.46875,0.671875
1630415932437,-0.5625,0.46875,0.671875
1630415932468,-0.5625,0.46875,0.65625
1630415932500,-0.5625,0.46875,0.671875
1630415932531,-0.5625,0.484375,0.671875
1630415932562,-0.5625,0.46875,0.65625
1630415932593,-0.5625,0.46875,0.65625
1630415932625,-0.5625,0.46875,0.65625
1630415932656,-0.5625,0.46875,0.671875
1630415932687,-0.5625,0.46875,0.671875
1630415932718,-0.5625,0.46875,0.671875
1630415932750,-0.5625,0.46875,0.671875
1630415932781,-0.5625,0.46875,0.671875
1630415932812,-0.5625,0.46875,0.65625
1630415932843,-0.5625,0.46875,0.671875
1630415932875,-0.5625,0.46875,0.671875
1630415932906,-0.5625,0.46875,0.65625
1630415932937,-0.5625,0.484375,0.671875
1630415932968,-0.5625,0.46875,0.671875
1630415933000,-0.5625,0.46875,0.671875
1630415933031,-0.5625,0.46875,0.671875
1630415933062,-0.5625,0.484375,0.671875
1630415933093,-0.5625,0.46875,0.65625
1630415933125,-0.5625,0.46875,0.671875
1630415933156,-0.5625,0.46875,0.671875
1630415933187,-0.5625,0.484375,0.671875
1630415933218,-0.5625,0.484375,0.671875
1630415933250,-0.5625,0.46875,0.671875
1630415933281,-0.5625,0.46875,0.671875
1630415933312,-0.5625,0.484375,0.671875
1630415933343,-0.5625,0.484375,0.671875
1630415933375,-0.5625,0.484375,0.65625
1630415933406,-0.5625,0.484375,0.65625
1630415933437,-0.546875,0.484375,0.671875
1630415933468,-0.5625,0.46875,0.671875
1630415933500,-0.5625,0.46875,0.671875
1630415933531,-0.5625,0.46875,0.671875
1630415933562,-0.5625,0.46875,0.671875
1630415933593,-0.5625,0.46875,0.671875
1630415933625,-0.5625,0.46875,0.65625
1630415933656,-0.5625,0.46875,0.671875
1630415933687,-0.5625,0.46875,0.671875
1630415933718,-0.5625,0.46875,0.671875
1630415933750,-0.5625,0.46875,0.671875
1630415933781,-0.5625,0.46875,0.671875
1630415933812,-0.5625,0.46875,0.671875
1630415933843,-0.5625,0.46875,0.671875
1630415933875,-0.5625,0.46875,0.671875
1630415933906,-0.5625,0.46875,0.671875
1630415933937,-0.5625,0.46875,0.671875
1630415933968,-0.5625,0.46875,0.671875
1630415934000,-0.5625,0.453125,0.671875
1630415934031,-0.5625,0.453125,0.671875
1630415934062,-0.5625,0.453125,0.671875
1630415934093,-0.5625,0.46875,0.65625
1630415934125,-0.578125,0.46875,0.671875
1630415934156,-0.5625,0.46875,0.671875
1630415934187,-0.5625,0.46875,0.671875
1630415934218,-0.578125,0.46875,0.671875
1630415934250,-0.5625,0.46875,0.671875
1630415934281,-0.578125,0.46875,0.65625
1630415934312,-0.578125,0.46875,0.65625
1630415934343,-0.5625,0.46875,0.671875
1630415934375,-0.5625,0.46875,0.671875
1630415934406,-0.5625,0.46875,0.671875
1630415934437,-0.578125,0.46875,0.671875
1630415934468,-0.578125,0.46875,0.671875
1630415934500,-0.578125,0.46875,0.65625
1630415934531,-0.5625,0.46875,0.65625
1630415934562,-0.578125,0.453125,0.65625
1630415934593,-0.578125,0.46875,0.65625
1630415934625,-0.578125,0.46875,0.671875
1630415934656,-0.578125,0.46875,0.671875
1630415934687,-0.578125,0.46875,0.671875
1630415934718,-0.578125,0.46875,0.671875
1630415934750,-0.5625,0.453125,0.671875
1630415934781,-0.5625,0.453125,0.671875
1630415934812,-0.578125,0.46875,0.671875
1630415934843,-0.578125,0.453125,0.65625
1630415934875,-0.578125,0.46875,0.65625
1630415934906,-0.5625,0.453125,0.65625
1630415934937,-0.578125,0.46875,0.671875
1630415934968,-0.578125,0.46875,0.671875
1630415935000,-0.578125,0.46875,0.671875
1630415935031,-0.5625,0.46875,0.671875
1630415935062,-0.5625,0.46875,0.671875
1630415935093,-0.5625,0.46875,0.671875
1630415935125,-0.5625,0.46875,0.671875
1630415935156,-0.578125,0.453125,0.671875
1630415935187,-0.578125,0.453125,0.671875
1630415935218,-0.578125,0.46875,0.671875
1630415935250,-0.578125,0.46875,0.671875
1630415935281,-0.578125,0.453125,0.671875
1630415935312,-0.5625,0.46875,0.671875
1630415935343,-0.5625,0.453125,0.671875
1630415935375,-0.578125,0.46875,0.671875
1630415935406,-0.578125,0.453125,0.671875
1630415935437,-0.578125,0.453125,0.671875
1630415935468,-0.5625,0.453125,0.671875
1630415935500,-0.578125,0.453125,0.671875
1630415935531,-0.578125,0.453125,0.671875
1630415935562,-0.578125,0.46875,0.671875
1630415935593,-0.578125,0.46875,0.65625
1630415935625,-0.578125,0.46875,0.671875
1630415935656,-0.5625,0.453125,0.671875
1630415935687,-0.5625,0.46875,0.671875
1630415935718,-0.5625,0.453125,0.671875
1630415935750,-0.5625,0.453125,0.671875
1630415935781,-0.578125,0.453125,0.671875
1630415935812,-0.578125,0.453125,0.671875
1630415935843,-0.5625,0.46875,0.671875
1630415935875,-0.5625,0.453125,0.671875
1630415935906,-0.5625,0.453125,0.671875
1630415935937,-0.578125,0.46875,0.671875
1630415935968,-0.5625,0.46875,0.671875
1630415936000,-0.5625,0.46875,0.671875
1630415936031,-0.5625,0.453125,0.671875
1630415936062,-0.5625,0.46875,0.671875
1630415936093,-0.578125,0.453125,0.671875
1630415936125,-0.578125,0.453125,0.671875
1630415936156,-0.5625,0.453125,0.671875
1630415936187,-0.578125,0.46875,0.671875
1630415936218,-0.5625,0.46875,0.671875
1630415936250,-0.5625,0.46875,0.65625
1630415936281,-0.578125,0.46875,0.671875
1630415936312,-0.578125,0.46875,0.65625
1630415936343,-0.5625,0.453125,0.671875
1630415936375,-0.5625,0.453125,0.671875
1630415936406,-0.578125,0.453125,0.671875
1630415936437,-0.5625,0.453125,0.671875
1630415936468,-0.5625,0.453125,0.671875
1630415936500,-0.5625,0.453125,0.671875
1630415936531,-0.5625,0.453125,0.671875
1630415936562,-0.5625,0.453125,0.671875
1630415936593,-0.578125,0.453125,0.671875
1630415936625,-0.5625,0.453125,0.671875
1630415936656,-0.5625,0.453125,0.671875
1630415936687,-0.578125,0.46875,0.671875
1630415936718,-0.5625,0.453125,0.671875
1630415936750,-0.5625,0.453125,0.671875
1630415936781,-0.578125,0.453125,0.671875
1630415936812,-0.578125,0.453125,0.671875
1630415936843,-0.5625,0.453125,0.671875
1630415936875,-0.5625,0.453125,0.671875
1630415936906,-0.5625,0.453125,0.671875
1630415936937,-0.5625,0.46875,0.671875
1630415936968,-0.5625,0.453125,0.65625
1630415937000,-0.578125,0.453125,0.671875
1630415937031,-0.5625,0.453125,0.671875
1630415937062,-0.5625,0.46875,0.671875
1630415937093,-0.5625,0.453125,0.671875
1630415937125,-0.5625,0.46875,0.671875
1630415937156,-0.5625,0.453125,0.671875
1630415937187,-0.578125,0.453125,0.671875
1630415937218,-0.5625,0.46875,0.671875
1630415937250,-0.5625,0.453125,0.671875
1630415937281,-0.5625,0.453125,0.671875
1630415937312,-0.578125,0.46875,0.671875
1630415937343,-0.5625,0.453125,0.671875
1630415937375,-0.578125,0.453125,0.671875
1630415937406,-0.578125,0.453125,0.671875
1630415937437,-0.5625,0.453125,0.671875
1630415937468,-0.578125,0.453125,0.671875
1630415937500,-0.5625,0.453125,0.671875
1630415937531,-0.578125,0.453125,0.671875
1630415937562,-0.5625,0.453125,0.671875
1630415937593,-0.578125,0.453125,0.671875
1630415937625,-0.578125,0.453125,0.671875
1630415937656,-0.5625,0.453125,0.671875
1630415937687,-0.578125,0.453125,0.671875
1630415937718,-0.578125,0.453125,0.671875
1630415937750,-0.578125,0.453125,0.671875
1630415937781,-0.5625,0.453125,0.671875
1630415937812,-0.5625,0.453125,0.671875
1630415937843,-0.578125,0.453125,0.671875
1630415937875,-0.578125,0.453125,0.671875
1630415937906,-0.578125,0.453125,0.671875
1630415937937,-0.578125,0.453125,0.671875
1630415937968,-0.578125,0.453125,0.671875
1630415938000,-0.5625,0.453125,0.671875
1630415938031,-0.578125,0.453125,0.65625
1630415938062,-0.578125,0.46875,0.65625
1630415938093,-0.578125,0.453125,0.671875
1630415938125,-0.578125,0.453125,0.671875
1630415938156,-0.578125,0.453125,0.671875
1630415938187,-0.578125,0.453125,0.671875
1630415938218,-0.578125,0.453125,0.671875
1630415938250,-0.578125,0.453125,0.671875
1630415938281,-0.578125,0.453125,0.671875
1630415938312,-0.578125,0.453125,0.671875
1630415938343,-0.578125,0.46875,0.671875
1630415938375,-0.578125,0.453125,0.671875
1630415938406,-0.578125,0.46875,0.671875
1630415938437,-0.578125,0.453125,0.671875
1630415938468,-0.578125,0.453125,0.671875
1630415938500,-0.578125,0.453125,0.671875
1630415938531,-0.578125,0.453125,0.671875
1630415938562,-0.578125,0.453125,0.671875
1630415938593,-0.5625,0.453125,0.671875
1630415938625,-0.5625,0.453125,0.671875
1630415938656,-0.578125,0.453125,0.671875
1630415938687,-0.578125,0.453125,0.671875
1630415938718,-0.578125,0.453125,0.671875
1630415938750,-0.578125,0.453125,0.671875
1630415938781,-0.578125,0.453125,0.671875
1630415938812,-0.5625,0.453125,0.671875
1630415938843,-0.578125,0.453125,0.671875
1630415938875,-0.5625,0.453125,0.671875
1630415938906,-0.5625,0.453125,0.671875
1630415938937,-0.578125,0.453125,0.671875
1630415938968,-0.578125,0.453125,0.671875
1630415939000,-0.5625,0.453125,0.671875
1630415939031,-0.5625,0.453125,0.671875
1630415939062,-0.5625,0.453125,0.671875
1630415939093,-0.5625,0.46875,0.671875
1630415939125,-0.578125,0.46875,0.671875
1630415939156,-0.5625,0.453125,0.671875
1630415939187,-0.5625,0.453125,0.671875
1630415939218,-0.578125,0.453125,0.671875
1630415939250,-0.5625,0.453125,0.671875
1630415939281,-0.5625,0.453125,0.671875
1630415939312,-0.5625,0.453125,0.671875
1630415939343,-0.5625,0.453125,0.671875
1630415939375,-0.5625,0.453125,0.671875
1630415939406,-0.578125,0.46875,0.671875
1630415939437,-0.5625,0.453125,0.671875
1630415939468,-0.5625,0.453125,0.671875
1630415939500,-0.5625,0.46875,0.671875
1630415939531,-0.5625,0.46875,0.671875
1630415939562,-0.5625,0.453125,0.671875
1630415939593,-0.5625,0.453125,0.671875
1630415939625,-0.5625,0.453125,0.671875
1630415939656,-0.578125,0.46875,0.65625
1630415939687,-0.578125,0.453125,0.671875
1630415939718,-0.5625,0.453125,0.671875
1630415939750,-0.5625,0.46875,0.671875
1630415939781,-0.578125,0.46875,0.671875
1630415939812,-0.5625,0.453125,0.671875
1630415939843,-0.5625,0.453125,0.671875
1630415939875,-0.578125,0.453125,0.671875
1630415939906,-0.578125,0.46875,0.65625
1630415939937,-0.578125,0.453125,0.671875
1630415939968,-0.5625,0.453125,0.671875
1630415940000,-0.578125,0.453125,0.671875
1630415940031,-0.578125,0.453125,0.671875
1630415940062,-0.5625,0.453125,0.671875
1630415940093,-0.578125,0.453125,0.671875
1630415940125,-0.578125,0.453125,0.671875
1630415940156,-0.578125,0.453125,0.671875
1630415940187,-0.5625,0.453125,0.671875
1630415940218,-0.5625,0.453125,0.671875
1630415940250,-0.578125,0.453125,0.671875
1630415940281,-0.5625,0.453125,0.671875
1630415940312,-0.578125,0.453125,0.65625
1630415940343,-0.5625,0.453125,0.671875
1630415940375,-0.5625,0.453125,0.671875
1630415940406,-0.578125,0.453125,0.671875
1630415940437,-0.578125,0.453125,0.671875
1630415940468,-0.578125,0.453125,0.671875
1630415940500,-0.5625,0.453125,0.671875
1630415940531,-0.578125,0.453125,0.671875
1630415940562,-0.578125,0.453125,0.65625
1630415940593,-0.578125,0.453125,0.671875
1630415940625,-0.578125,0.453125,0.671875
1630415940656,-0.578125,0.453125,0.671875
1630415940687,-0.578125,0.453125,0.671875
1630415940718,-0.578125,0.453125,0.671875
1630415940750,-0.578125,0.453125,0.65625
1630415940781,-0.578125,0.4375,0.65625
1630415940812,-0.578125,0.453125,0.65625
1630415940843,-0.59375,0.46875,0.671875
1630415940875,-0.578125,0.453125,0.671875
1630415940906,-0.578125,0.46875,0.671875
1630415940937,-0.578125,0.46875,0.671875
1630415940968,-0.5625,0.453125,0.671875
1630415941000,-0.5625,0.453125,0.671875
1630415941031,-0.578125,0.453125,0.65625
1630415941062,-0.5625,0.453125,0.671875
1630415941093,-0.5625,0.453125,0.671875
1630415941125,-0.578125,0.453125,0.671875
1630415941156,-0.578125,0.453125,0.671875
1630415941187,-0.5625,0.453125,0.671875
1630415941218,-0.5625,0.453125,0.671875
1630415941250,-0.5625,0.453125,0.671875
1630415941281,-0.578125,0.46875,0.671875
1630415941312,-0.578125,0.453125,0.671875
1630415941343,-0.5625,0.453125,0.671875
1630415941375,-0.5625,0.453125,0.671875
1630415941406,-0.578125,0.453125,0.671875
1630415941437,-0.5625,0.453125,0.671875
1630415941468,-0.5625,0.453125,0.671875
1630415941500,-0.5625,0.453125,0.671875
1630415941531,-0.5625,0.453125,0.671875
1630415941562,-0.5625,0.453125,0.671875
1630415941593,-0.5625,0.453125,0.671875
1630415941625,-0.5625,0.453125,0.671875
1630415941656,-0.5625,0.453125,0.671875
1630415941687,-0.578125,0.453125,0.671875
1630415941718,-0.5625,0.453125,0.671875
1630415941750,-0.5625,0.453125,0.671875
1630415941781,-0.578125,0.453125,0.671875
1630415941812,-0.5625,0.453125,0.671875
1630415941843,-0.5625,0.453125,0.671875
1630415941875,-0.5625,0.453125,0.671875
1630415941906,-0.5625,0.453125,0.671875
1630415941937,-0.5625,0.453125,0.671875
1630415941968,-0.5625,0.453125,0.671875
1630415942000,-0.578125,0.453125,0.671875
1630415942031,-0.5625,0.453125,0.671875
1630415942062,-0.5625,0.453125,0.671875
1630415942093,-0.578125,0.453125,0.671875
1630415942125,-0.578125,0.453125,0.671875
1630415942156,-0.578125,0.453125,0.671875
1630415942187,-0.5625,0.453125,0.671875
1630415942218,-0.578125,0.453125,0.671875
1630415942250,-0.578125,0.453125,0.671875
1630415942281,-0.5625,0.453125,0.671875
1630415942312,-0.5625,0.453125,0.671875
1630415942343,-0.578125,0.453125,0.671875
1630415942375,-0.5625,0.453125,0.671875
1630415942406,-0.578125,0.453125,0.671875
1630415942437,-0.578125,0.453125,0.671875
1630415942468,-0.578125,0.453125,0.671875
1630415942500,-0.5625,0.4375,0.671875
1630415942531,-0.5625,0.453125,0.671875
1630415942562,-0.578125,0.453125,0.671875
1630415942593,-0.5625,0.453125,0.671875
1630415942625,-0.5625,0.453125,0.671875
1630415942656,-0.578125,0.453125,0.671875
1630415942687,-0.578125,0.453125,0.671875
1630415942718,-0.578125,0.453125,0.671875
1630415942750,-0.578125,0.453125,0.671875
1630415942781,-0.578125,0.453125,0.671875
1630415942812,-0.578125,0.453125,0.671875
1630415942843,-0.578125,0.453125,0.671875
1630415942875,-0.578125,0.453125,0.671875
1630415942906,-0.578125,0.453125,0.671875
1630415942937,-0.578125,0.453125,0.671875
1630415942968,-0.578125,0.453125,0.671875
1630415943000,-0.578125,0.453125,0.671875
1630415943031,-0.578125,0.453125,0.671875
1630415943062,-0.578125,0.453125,0.671875
1630415943093,-0.578125,0.453125,0.671875
1630415943125,-0.578125,0.453125,0.671875
1630415943156,-0.578125,0.453125,0.671875
1630415943187,-0.578125,0.453125,0.671875
1630415943218,-0.578125,0.453125,0.671875
1630415943250,-0.578125,0.453125,0.671875
1630415943281,-0.578125,0.453125,0.671875
1630415943312,-0.578125,0.453125,0.671875
1630415943343,-0.578125,0.453125,0.671875
1630415943375,-0.578125,0.4375,0.671875
1630415943406,-0.578125,0.453125,0.671875
1630415943437,-0.578125,0.453125,0.671875
1630415943468,-0.578125,0.453125,0.671875
1630415943500,-0.578125,0.453125,0.65625
1630415943531,-0.578125,0.453125,0.671875
1630415943562,-0.578125,0.453125,0.671875
1630415943593,-0.578125,0.453125,0.671875
1630415943625,-0.578125,0.453125,0.671875
1630415943656,-0.578125,0.453125,0.671875
1630415943687,-0.578125,0.453125,0.671875
1630415943718,-0.578125,0.453125,0.671875
1630415943750,-0.578125,0.453125,0.671875
1630415943781,-0.59375,0.453125,0.671875
1630415943812,-0.578125,0.453125,0.671875
1630415943843,-0.5625,0.453125,0.671875
1630415943875,-0.59375,0.453125,0.671875
1630415943906,-0.578125,0.453125,0.671875
1630415943937,-0.578125,0.453125,0.671875
1630415943968,-0.578125,0.453125,0.671875
1630415944000,-0.578125,0.453125,0.671875
1630415944031,-0.578125,0.453125,0.671875
1630415944062,-0.578125,0.453125,0.671875
1630415944093,-0.578125,0.453125,0.671875
1630415944125,-0.578125,0.453125,0.671875
1630415944156,-0.578125,0.453125,0.671875
1630415944187,-0.578125,0.453125,0.671875
1630415944218,-0.578125,0.453125,0.671875
1630415944250,-0.578125,0.453125,0.671875
1630415944281,-0.578125,0.453125,0.671875
1630415944312,-0.578125,0.453125,0.671875
1630415944343,-0.578125,0.4375,0.671875
1630415944375,-0.578125,0.4375,0.671875
1630415944406,-0.578125,0.4375,0.671875
1630415944437,-0.578125,0.453125,0.671875
1630415944468,-0.578125,0.4375,0.671875
1630415944500,-0.578125,0.453125,0.671875
1630415944531,-0.578125,0.453125,0.671875
1630415944562,-0.578125,0.453125,0.671875
1630415944593,-0.578125,0.453125,0.671875
1630415944625,-0.578125,0.453125,0.671875
1630415944656,-0.578125,0.453125,0.671875
1630415944687,-0.578125,0.453125,0.671875
1630415944718,-0.578125,0.453125,0.671875
1630415944750,-0.5625,0.453125,0.671875
1630415944781,-0.578125,0.453125,0.671875
1630415944812,-0.578125,0.453125,0.671875
1630415944843,-0.578125,0.453125,0.671875
1630415944875,-0.5625,0.453125,0.671875
1630415944906,-0.578125,0.453125,0.671875
1630415944937,-0.578125,0.453125,0.671875
1630415944968,-0.5625,0.453125,0.671875
1630415945000,-0.578125,0.453125,0.671875
1630415945031,-0.578125,0.453125,0.671875
1630415945062,-0.5625,0.453125,0.671875
1630415945093,-0.578125,0.453125,0.671875
1630415945125,-0.578125,0.453125,0.671875
1630415945156,-0.578125,0.453125,0.671875
1630415945187,-0.578125,0.453125,0.671875
1630415945218,-0.578125,0.453125,0.671875
1630415945250,-0.578125,0.453125,0.671875
1630415945281,-0.578125,0.453125,0.671875
1630415945312,-0.578125,0.453125,0.671875
1630415945343,-0.578125,0.453125,0.671875
1630415945375,-0.578125,0.4375,0.671875
1630415945406,-0.578125,0.4375,0.671875
1630415945437,-0.578125,0.4375,0.671875
1630415945468,-0.578125,0.4375,0.671875
1630415945500,-0.578125,0.4375,0.671875
1630415945531,-0.578125,0.4375,0.671875
1630415945562,-0.578125,0.4375,0.671875
1630415945593,-0.578125,0.453125,0.671875
1630415945625,-0.578125,0.453125,0.671875
1630415945656,-0.578125,0.453125,0.671875
1630415945687,-0.578125,0.453125,0.671875
1630415945718,-0.578125,0.453125,0.671875
1630415945750,-0.578125,0.453125,0.671875
1630415945781,-0.578125,0.4375,0.671875
1630415945812,-0.578125,0.4375,0.671875
1630415945843,-0.578125,0.4375,0.671875
1630415945875,-0.578125,0.4375,0.671875
1630415945906,-0.578125,0.453125,0.671875
1630415945937,-0.578125,0.453125,0.671875
1630415945968,-0.578125,0.453125,0.671875
1630415946000,-0.578125,0.453125,0.671875
1630415946031,-0.578125,0.453125,0.671875
1630415946062,-0.578125,0.453125,0.671875
1630415946093,-0.578125,0.453125,0.671875
1630415946125,-0.578125,0.453125,0.671875
1630415946156,-0.578125,0.453125,0.671875
1630415946187,-0.578125,0.453125,0.65625
1630415946218,-0.578125,0.453125,0.671875
1630415946250,-0.578125,0.453125,0.671875
1630415946281,-0.578125,0.453125,0.671875
1630415946312,-0.578125,0.4375,0.671875
1630415946343,-0.578125,0.453125,0.671875
1630415946375,-0.578125,0.453125,0.671875
1630415946406,-0.578125,0.453125,0.671875
1630415946437,-0.578125,0.453125,0.65625
1630415946468,-0.578125,0.453125,0.671875
1630415946500,-0.578125,0.453125,0.671875
1630415946531,-0.578125,0.453125,0.671875
1630415946562,-0.578125,0.453125,0.671875
1630415946593,-0.578125,0.4375,0.671875
1630415946625,-0.578125,0.453125,0.671875
1630415946656,-0.578125,0.453125,0.671875
1630415946687,-0.578125,0.453125,0.671875
1630415946718,-0.578125,0.453125,0.671875
1630415946750,-0.578125,0.453125,0.671875
1630415946781,-0.578125,0.453125,0.671875
1630415946812,-0.578125,0.453125,0.671875
1630415946843,-0.578125,0.453125,0.671875
1630415946875,-0.578125,0.453125,0.671875
1630415946906,-0.578125,0.453125,0.671875
1630415946937,-0.578125,0.4375,0.671875
1630415946968,-0.578125,0.453125,0.671875
1630415947000,-0.578125,0.453125,0.671875
1630415947031,-0.5625,0.453125,0.671875
1630415947062,-0.578125,0.453125,0.671875
1630415947093,-0.578125,0.453125,0.671875
1630415947125,-0.578125,0.453125,0.671875
1630415947156,-0.578125,0.453125,0.671875
1630415947187,-0.578125,0.453125,0.65625
1630415947218,-0.578125,0.453125,0.671875
1630415947250,-0.578125,0.453125,0.671875
1630415947281,-0.578125,0.453125,0.671875
1630415947312,-0.578125,0.453125,0.671875
1630415947343,-0.578125,0.4375,0.671875
1630415947375,-0.578125,0.453125,0.671875
1630415947406,-0.578125,0.453125,0.671875
1630415947437,-0.578125,0.453125,0.671875
1630415947468,-0.578125,0.453125,0.671875
1630415947500,-0.578125,0.453125,0.671875
1630415947531,-0.578125,0.453125,0.671875
1630415947562,-0.5625,0.453125,0.671875
1630415947593,-0.578125,0.453125,0.671875
1630415947625,-0.578125,0.453125,0.671875
1630415947656,-0.578125,0.4375,0.671875
1630415947687,-0.578125,0.4375,0.671875
1630415947718,-0.578125,0.453125,0.671875
1630415947750,-0.578125,0.453125,0.671875
1630415947781,-0.578125,0.4375,0.671875
1630415947812,-0.578125,0.453125,0.671875
1630415947843,-0.578125,0.453125,0.671875
1630415947875,-0.578125,0.453125,0.671875
1630415947906,-0.578125,0.453125,0.671875
1630415947937,-0.578125,0.453125,0.671875
1630415947968,-0.578125,0.453125,0.671875
1630415948000,-0.578125,0.453125,0.671875
1630415948031,-0.578125,0.453125,0.671875
1630415948062,-0.578125,0.453125,0.671875
1630415948093,-0.578125,0.453125,0.671875
1630415948125,-0.578125,0.4375,0.671875
1630415948156,-0.578125,0.453125,0.671875
1630415948187,-0.578125,0.453125,0.671875
1630415948218,-0.578125,0.453125,0.671875
1630415948250,-0.578125,0.453125,0.671875
1630415948281,-0.578125,0.453125,0.671875
1630415948312,-0.578125,0.453125,0.671875
1630415948343,-0.578125,0.453125,0.671875
1630415948375,-0.578125,0.453125,0.671875
1630415948406,-0.578125,0.453125,0.671875
1630415948437,-0.578125,0.453125,0.65625
1630415948468,-0.578125,0.453125,0.671875
1630415948500,-0.578125,0.453125,0.671875
1630415948531,-0.578125,0.453125,0.671875
1630415948562,-0.5625,0.453125,0.671875
1630415948593,-0.578125,0.453125,0.671875
1630415948625,-0.578125,0.453125,0.671875
1630415948656,-0.578125,0.453125,0.65625
1630415948687,-0.578125,0.453125,0.671875
1630415948718,-0.578125,0.453125,0.671875
1630415948750,-0.5625,0.453125,0.671875
1630415948781,-0.578125,0.453125,0.671875
1630415948812,-0.578125,0.453125,0.671875
1630415948843,-0.578125,0.453125,0.671875
1630415948875,-0.578125,0.453125,0.65625
1630415948906,-0.578125,0.453125,0.65625
1630415948937,-0.578125,0.453125,0.65625
1630415948968,-0.578125,0.453125,0.671875
1630415949000,-0.578125,0.453125,0.671875
1630415949031,-0.578125,0.453125,0.671875
1630415949062,-0.578125,0.453125,0.671875
1630415949093,-0.578125,0.453125,0.65625
1630415949125,-0.578125,0.453125,0.671875
1630415949156,-0.578125,0.453125,0.671875
1630415949187,-0.578125,0.453125,0.671875
1630415949218,-0.578125,0.453125,0.671875
1630415949250,-0.578125,0.453125,0.671875
1630415949281,-0.578125,0.453125,0.671875
1630415949312,-0.578125,0.453125,0.671875
1630415949343,-0.578125,0.453125,0.65625
1630415949375,-0.578125,0.46875,0.65625
1630415949406,-0.578125,0.453125,0.65625
1630415949437,-0.578125,0.453125,0.671875
1630415949468,-0.578125,0.453125,0.671875
1630415949500,-0.578125,0.453125,0.671875
1630415949531,-0.578125,0.453125,0.671875
1630415949562,-0.578125,0.453125,0.671875
1630415949593,-0.578125,0.453125,0.671875
1630415949625,-0.578125,0.453125,0.671875
1630415949656,-0.578125,0.453125,0.671875
1630415949687,-0.5625,0.453125,0.671875
1630415949718,-0.578125,0.453125,0.671875
1630415949750,-0.578125,0.453125,0.671875
1630415949781,-0.5625,0.453125,0.671875
1630415949812,-0.578125,0.453125,0.671875
1630415949843,-0.578125,0.453125,0.671875
1630415949875,-0.5625,0.453125,0.671875
1630415949906,-0.578125,0.453125,0.671875
1630415949937,-0.578125,0.453125,0.671875
1630415949968,-0.5625,0.453125,0.671875
1630415950000,-0.578125,0.453125,0.671875
1630415950031,-0.578125,0.453125,0.671875
1630415950062,-0.578125,0.453125,0.671875
1630415950093,-0.578125,0.453125,0.671875
1630415950125,-0.578125,0.453125,0.671875
1630415950156,-0.578125,0.453125,0.671875
1630415950187,-0.578125,0.453125,0.671875
1630415950218,-0.578125,0.453125,0.671875
1630415950250,-0.5625,0.453125,0.671875
1630415950281,-0.578125,0.453125,0.671875
1630415950312,-0.578125,0.453125,0.671875
1630415950343,-0.578125,0.453125,0.671875
1630415950375,-0.578125,0.453125,0.671875
1630415950406,-0.5625,0.453125,0.671875
1630415950437,-0.5625,0.453125,0.671875
1630415950468,-0.578125,0.453125,0.671875
1630415950500,-0.578125,0.453125,0.671875
1630415950531,-0.5625,0.453125,0.671875
1630415950562,-0.578125,0.453125,0.671875
1630415950593,-0.578125,0.453125,0.671875
1630415950625,-0.578125,0.453125,0.671875
1630415950656,-0.5625,0.453125,0.671875
1630415950687,-0.5625,0.453125,0.671875
1630415950718,-0.578125,0.453125,0.671875
1630415950750,-0.578125,0.453125,0.671875
1630415950781,-0.578125,0.453125,0.671875
1630415950812,-0.5625,0.453125,0.671875
1630415950843,-0.578125,0.453125,0.671875
1630415950875,-0.578125,0.453125,0.671875
1630415950906,-0.5625,0.453125,0.671875
1630415950937,-0.578125,0.453125,0.671875
1630415950968,-0.5625,0.453125,0.671875
1630415951000,-0.578125,0.453125,0.671875
1630415951031,-0.578125,0.453125,0.671875
1630415951062,-0.5625,0.453125,0.671875
1630415951093,-0.5625,0.453125,0.671875
1630415951125,-0.578125,0.453125,0.671875
1630415951156,-0.578125,0.453125,0.671875
1630415951187,-0.578125,0.453125,0.671875
1630415951218,-0.578125,0.453125,0.671875
1630415951250,-0.578125,0.453125,0.671875
1630415951281,-0.578125,0.453125,0.671875
1630415951312,-0.578125,0.453125,0.671875
1630415951343,-0.578125,0.453125,0.671875
1630415951375,-0.578125,0.453125,0.671875
1630415951406,-0.578125,0.453125,0.671875
1630415951437,-0.578125,0.453125,0.671875
1630415951468,-0.578125,0.453125,0.671875
1630415951500,-0.578125,0.453125,0.671875
1630415951531,-0.578125,0.453125,0.671875
1630415951562,-0.5625,0.453125,0.671875
1630415951593,-0.5625,0.453125,0.671875
1630415951625,-0.578125,0.453125,0.671875
1630415951656,-0.578125,0.453125,0.65625
1630415951687,-0.578125,0.453125,0.65625
1630415951718,-0.578125,0.453125,0.65625
1630415951750,-0.578125,0.453125,0.671875
1630415951781,-0.578125,0.453125,0.671875
1630415951812,-0.578125,0.453125,0.671875
1630415951843,-0.5625,0.453125,0.671875
1630415951875,-0.5625,0.453125,0.671875
1630415951906,-0.578125,0.453125,0.671875
1630415951937,-0.578125,0.46875,0.671875
1630415951968,-0.5625,0.453125,0.671875
1630415952000,-0.578125,0.453125,0.671875
1630415952031,-0.578125,0.453125,0.671875
1630415952062,-0.578125,0.453125,0.671875
1630415952093,-0.5625,0.453125,0.671875
1630415952125,-0.578125,0.453125,0.671875
1630415952156,-0.578125,0.453125,0.65625
1630415952187,-0.578125,0.453125,0.671875
1630415952218,-0.578125,0.453125,0.671875
1630415952250,-0.578125,0.453125,0.671875
1630415952281,-0.578125,0.453125,0.671875
1630415952312,-0.578125,0.453125,0.671875
1630415952343,-0.5625,0.453125,0.671875
1630415952375,-0.5625,0.453125,0.671875
1630415952406,-0.578125,0.453125,0.671875
1630415952437,-0.578125,0.453125,0.671875
1630415952468,-0.5625,0.453125,0.671875
1630415952500,-0.5625,0.453125,0.671875
1630415952531,-0.5625,0.453125,0.671875
1630415952562,-0.578125,0.453125,0.671875
1630415952593,-0.578125,0.453125,0.671875
1630415952625,-0.5625,0.453125,0.671875
1630415952656,-0.578125,0.453125,0.671875
1630415952687,-0.578125,0.453125,0.671875
1630415952718,-0.5625,0.453125,0.671875
1630415952750,-0.5625,0.453125,0.671875
1630415952781,-0.578125,0.453125,0.671875
1630415952812,-0.5625,0.453125,0.671875
1630415952843,-0.578125,0.453125,0.671875
1630415952875,-0.578125,0.453125,0.671875
1630415952906,-0.5625,0.453125,0.671875
1630415952937,-0.578125,0.453125,0.671875
1630415952968,-0.5625,0.453125,0.671875
1630415953000,-0.5625,0.453125,0.671875
1630415953031,-0.578125,0.453125,0.671875
1630415953062,-0.5625,0.453125,0.671875
1630415953093,-0.5625,0.453125,0.671875
1630415953125,-0.5625,0.453125,0.671875
1630415953156,-0.578125,0.453125,0.671875
1630415953187,-0.578125,0.453125,0.671875
1630415953218,-0.578125,0.453125,0.671875
1630415953250,-0.578125,0.453125,0.671875
1630415953281,-0.578125,0.453125,0.671875
1630415953312,-0.5625,0.453125,0.671875
1630415953343,-0.5625,0.453125,0.671875
1630415953375,-0.5625,0.453125,0.671875
1630415953406,-0.5625,0.453125,0.671875
1630415953437,-0.578125,0.453125,0.671875
1630415953468,-0.578125,0.453125,0.671875
1630415953500,-0.5625,0.453125,0.671875
1630415953531,-0.5625,0.453125,0.671875
1630415953562,-0.578125,0.453125,0.671875
1630415953593,-0.578125,0.453125,0.671875
1630415953625,-0.578125,0.453125,0.671875
1630415953656,-0.5625,0.453125,0.671875
1630415953687,-0.578125,0.453125,0.671875
1630415953718,-0.578125,0.453125,0.671875
1630415953750,-0.578125,0.453125,0.671875
1630415953781,-0.5625,0.453125,0.671875
1630415953812,-0.578125,0.453125,0.671875
1630415953843,-0.578125,0.453125,0.671875
1630415953875,-0.578125,0.453125,0.671875
1630415953906,-0.578125,0.453125,0.671875
1630415953937,-0.578125,0.453125,0.671875
1630415953968,-0.578125,0.453125,0.671875
1630415954000,-0.578125,0.453125,0.671875
1630415954031,-0.578125,0.453125,0.671875
1630415954062,-0.578125,0.453125,0.671875
1630415954093,-0.578125,0.453125,0.671875
1630415954125,-0.578125,0.453125,0.671875
1630415954156,-0.578125,0.453125,0.671875
1630415954187,-0.578125,0.453125,0.671875
1630415954218,-0.578125,0.453125,0.671875
1630415954250,-0.578125,0.453125,0.671875
1630415954281,-0.578125,0.453125,0.671875
1630415954312,-0.578125,0.453125,0.671875
1630415954343,-0.578125,0.453125,0.671875
1630415954375,-0.578125,0.453125,0.671875
1630415954406,-0.578125,0.453125,0.671875
1630415954437,-0.578125,0.453125,0.671875
1630415954468,-0.578125,0.453125,0.671875
1630415954500,-0.578125,0.453125,0.671875
1630415954531,-0.578125,0.453125,0.671875
1630415954562,-0.578125,0.453125,0.671875
1630415954593,-0.578125,0.453125,0.671875
1630415954625,-0.578125,0.453125,0.671875
1630415954656,-0.578125,0.453125,0.671875
1630415954687,-0.578125,0.453125,0.671875
1630415954718,-0.578125,0.453125,0.671875
1630415954750,-0.578125,0.453125,0.671875
1630415954781,-0.5625,0.453125,0.671875
1630415954812,-0.578125,0.453125,0.671875
1630415954843,-0.578125,0.453125,0.671875
1630415954875,-0.578125,0.453125,0.671875
1630415954906,-0.5625,0.453125,0.671875
1630415954937,-0.578125,0.453125,0.671875
1630415954968,-0.578125,0.453125,0.671875
1630415955000,-0.5625,0.453125,0.671875
1630415955031,-0.578125,0.453125,0.671875
1630415955062,-0.578125,0.453125,0.671875
1630415955093,-0.5625,0.453125,0.671875
1630415955125,-0.578125,0.453125,0.671875
1630415955156,-0.5625,0.453125,0.671875
1630415955187,-0.5625,0.453125,0.671875
1630415955218,-0.5625,0.453125,0.671875
1630415955250,-0.578125,0.453125,0.671875
1630415955281,-0.578125,0.453125,0.671875
1630415955312,-0.578125,0.453125,0.671875
1630415955343,-0.578125,0.453125,0.671875
1630415955375,-0.5625,0.453125,0.671875
1630415955406,-0.5625,0.453125,0.671875
1630415955437,-0.578125,0.453125,0.671875
1630415955468,-0.578125,0.453125,0.671875
1630415955500,-0.578125,0.453125,0.671875
1630415955531,-0.578125,0.453125,0.671875
1630415955562,-0.578125,0.453125,0.671875
1630415955593,-0.578125,0.453125,0.671875
1630415955625,-0.5625,0.453125,0.671875
1630415955656,-0.578125,0.4375,0.671875
1630415955687,-0.578125,0.453125,0.671875
1630415955718,-0.5625,0.453125,0.671875
1630415955750,-0.5625,0.453125,0.671875
1630415955781,-0.578125,0.453125,0.671875
1630415955812,-0.578125,0.453125,0.671875
1630415955843,-0.578125,0.453125,0.671875
1630415955875,-0.578125,0.453125,0.671875
1630415955906,-0.578125,0.453125,0.671875
1630415955937,-0.578125,0.453125,0.671875
1630415955968,-0.578125,0.453125,0.671875
1630415956000,-0.578125,0.453125,0.671875
1630415956031,-0.578125,0.453125,0.671875
1630415956062,-0.578125,0.453125,0.671875
1630415956093,-0.578125,0.453125,0.671875
1630415956125,-0.578125,0.4375,0.671875
1630415956156,-0.578125,0.453125,0.671875
1630415956187,-0.578125,0.453125,0.671875
1630415956218,-0.578125,0.453125,0.671875
1630415956250,-0.578125,0.453125,0.671875
1630415956281,-0.578125,0.453125,0.671875
1630415956312,-0.578125,0.453125,0.671875
1630415956343,-0.578125,0.4375,0.671875
1630415956375,-0.578125,0.453125,0.671875
1630415956406,-0.578125,0.453125,0.671875
1630415956437,-0.578125,0.453125,0.671875
1630415956468,-0.578125,0.453125,0.671875
1630415956500,-0.578125,0.453125,0.671875
1630415956531,-0.578125,0.453125,0.671875
1630415956562,-0.578125,0.453125,0.671875
1630415956593,-0.578125,0.453125,0.671875
1630415956625,-0.578125,0.453125,0.671875
1630415956656,-0.578125,0.453125,0.671875
1630415956687,-0.578125,0.453125,0.671875
1630415956718,-0.578125,0.453125,0.671875
1630415956750,-0.578125,0.453125,0.671875
1630415956781,-0.578125,0.453125,0.671875
1630415956812,-0.578125,0.453125,0.671875
1630415956843,-0.578125,0.453125,0.671875
1630415956875,-0.578125,0.453125,0.671875
1630415956906,-0.578125,0.453125,0.671875
1630415956937,-0.578125,0.453125,0.671875
1630415956968,-0.578125,0.453125,0.671875
1630415957000,-0.578125,0.453125,0.65625
1630415957031,-0.578125,0.453125,0.671875
1630415957062,-0.578125,0.453125,0.671875
1630415957093,-0.578125,0.453125,0.671875
1630415957125,-0.578125,0.453125,0.671875
1630415957156,-0.578125,0.453125,0.671875
1630415957187,-0.578125,0.453125,0.671875
1630415957218,-0.578125,0.453125,0.671875
1630415957250,-0.578125,0.453125,0.671875
1630415957281,-0.578125,0.453125,0.671875
1630415957312,-0.578125,0.453125,0.671875
1630415957343,-0.578125,0.453125,0.671875
1630415957375,-0.578125,0.453125,0.671875
1630415957406,-0.578125,0.453125,0.671875
1630415957437,-0.578125,0.453125,0.671875
1630415957468,-0.578125,0.453125,0.65625
1630415957500,-0.578125,0.453125,0.671875
1630415957531,-0.578125,0.453125,0.671875
1630415957562,-0.578125,0.453125,0.671875
1630415957593,-0.578125,0.453125,0.671875
1630415957625,-0.578125,0.453125,0.671875
1630415957656,-0.578125,0.453125,0.671875
1630415957687,-0.5625,0.453125,0.671875
1630415957718,-0.578125,0.453125,0.671875
1630415957750,-0.578125,0.453125,0.671875
1630415957781,-0.578125,0.453125,0.671875
1630415957812,-0.578125,0.453125,0.671875
1630415957843,-0.578125,0.453125,0.671875
1630415957875,-0.578125,0.453125,0.671875
1630415957906,-0.5625,0.453125,0.671875
1630415957937,-0.578125,0.453125,0.671875
1630415957968,-0.578125,0.453125,0.671875
1630415958000,-0.578125,0.4375,0.671875
1630415958031,-0.578125,0.453125,0.671875
1630415958062,-0.578125,0.453125,0.671875
1630415958093,-0.578125,0.453125,0.671875
1630415958125,-0.578125,0.453125,0.671875
1630415958156,-0.578125,0.453125,0.671875
1630415958187,-0.578125,0.453125,0.671875
1630415958218,-0.578125,0.453125,0.671875
1630415958250,-0.578125,0.453125,0.671875
1630415958281,-0.578125,0.453125,0.671875
1630415958312,-0.578125,0.453125,0.671875
1630415958343,-0.578125,0.453125,0.671875
1630415958375,-0.578125,0.453125,0.671875
1630415958406,-0.578125,0.453125,0.671875
1630415958437,-0.578125,0.453125,0.671875
1630415958468,-0.578125,0.453125,0.671875
1630415958500,-0.578125,0.453125,0.671875
1630415958531,-0.578125,0.453125,0.671875
1630415958562,-0.578125,0.453125,0.671875
1630415958593,-0.578125,0.453125,0.671875
1630415958625,-0.578125,0.453125,0.671875
1630415958656,-0.578125,0.453125,0.671875
1630415958687,-0.59375,0.4375,0.671875
1630415958718,-0.578125,0.4375,0.65625
1630415958750,-0.578125,0.4375,0.671875
1630415958781,-0.578125,0.4375,0.671875
1630415958812,-0.578125,0.453125,0.671875
1630415958843,-0.578125,0.453125,0.671875
1630415958875,-0.578125,0.453125,0.671875
1630415958906,-0.578125,0.453125,0.671875
1630415958937,-0.59375,0.453125,0.671875
1630415958968,-0.578125,0.453125,0.671875
1630415959000,-0.578125,0.453125,0.65625
1630415959031,-0.578125,0.453125,0.671875
1630415959062,-0.578125,0.4375,0.671875
1630415959093,-0.578125,0.4375,0.65625
1630415959125,-0.578125,0.453125,0.671875
1630415959156,-0.578125,0.453125,0.671875
1630415959187,-0.578125,0.453125,0.671875
1630415959218,-0.578125,0.453125,0.671875
1630415959250,-0.578125,0.453125,0.65625
1630415959281,-0.578125,0.453125,0.65625
1630415959312,-0.578125,0.453125,0.671875
1630415959343,-0.578125,0.453125,0.65625
1630415959375,-0.578125,0.453125,0.65625
1630415959406,-0.578125,0.453125,0.671875
1630415959437,-0.578125,0.453125,0.671875
1630415959468,-0.59375,0.453125,0.65625
1630415959500,-0.578125,0.453125,0.671875
1630415959531,-0.578125,0.453125,0.65625
1630415959562,-0.59375,0.453125,0.65625
1630415959593,-0.578125,0.453125,0.671875
1630415959625,-0.578125,0.453125,0.671875
1630415959656,-0.578125,0.453125,0.671875
1630415959687,-0.578125,0.453125,0.671875
1630415959718,-0.578125,0.453125,0.671875
1630415959750,-0.578125,0.453125,0.671875
1630415959781,-0.578125,0.453125,0.671875
1630415959812,-0.578125,0.453125,0.671875
1630415959843,-0.578125,0.453125,0.671875
1630415959875,-0.578125,0.453125,0.671875
1630415959906,-0.578125,0.453125,0.671875
1630415959937,-0.578125,0.453125,0.671875
1630415959968,-0.59375,0.453125,0.671875
1630415960000,-0.578125,0.4375,0.671875
1630415960031,-0.578125,0.4375,0.671875
1630415960062,-0.578125,0.453125,0.671875
1630415960093,-0.578125,0.453125,0.671875
1630415960125,-0.578125,0.453125,0.65625
1630415960156,-0.578125,0.453125,0.671875
1630415960187,-0.578125,0.453125,0.671875
1630415960218,-0.578125,0.453125,0.671875
1630415960250,-0.578125,0.453125,0.671875
1630415960281,-0.578125,0.453125,0.671875
1630415960312,-0.578125,0.453125,0.671875
1630415960343,-0.578125,0.453125,0.671875
1630415960375,-0.578125,0.453125,0.671875
1630415960406,-0.578125,0.453125,0.671875
1630415960437,-0.578125,0.453125,0.671875
1630415960468,-0.578125,0.453125,0.65625
1630415960500,-0.578125,0.453125,0.671875
1630415960531,-0.578125,0.453125,0.671875
1630415960562,-0.578125,0.453125,0.671875
1630415960593,-0.578125,0.453125,0.671875
1630415960625,-0.578125,0.453125,0.671875
1630415960656,-0.578125,0.453125,0.671875
1630415960687,-0.578125,0.453125,0.671875
1630415960718,-0.578125,0.453125,0.671875
1630415960750,-0.578125,0.453125,0.671875
1630415960781,-0.578125,0.453125,0.671875
1630415960812,-0.578125,0.453125,0.671875
1630415960843,-0.5625,0.453125,0.671875
1630415960875,-0.578125,0.453125,0.671875
1630415960906,-0.578125,0.453125,0.671875
1630415960937,-0.578125,0.453125,0.671875
1630415960968,-0.578125,0.453125,0.671875
1630415961000,-0.578125,0.453125,0.671875
1630415961031,-0.578125,0.453125,0.671875
1630415961062,-0.5625,0.453125,0.671875
1630415961093,-0.578125,0.453125,0.671875
1630415961125,-0.578125,0.453125,0.671875
1630415961156,-0.578125,0.453125,0.671875
1630415961187,-0.578125,0.453125,0.671875
1630415961218,-0.578125,0.453125,0.671875
1630415961250,-0.578125,0.453125,0.671875
1630415961281,-0.578125,0.453125,0.671875
1630415961312,-0.578125,0.453125,0.671875
1630415961343,-0.578125,0.453125,0.671875
1630415961375,-0.578125,0.453125,0.671875
1630415961406,-0.578125,0.453125,0.671875
1630415961437,-0.578125,0.453125,0.671875
1630415961468,-0.578125,0.453125,0.671875
1630415961500,-0.578125,0.453125,0.671875
1630415961531,-0.578125,0.453125,0.671875
1630415961562,-0.578125,0.4375,0.671875
1630415961593,-0.578125,0.453125,0.65625
1630415961625,-0.578125,0.453125,0.671875
1630415961656,-0.578125,0.453125,0.671875
1630415961687,-0.578125,0.453125,0.65625
1630415961718,-0.578125,0.453125,0.671875
1630415961750,-0.578125,0.453125,0.671875
1630415961781,-0.578125,0.453125,0.671875
1630415961812,-0.578125,0.453125,0.671875
1630415961843,-0.578125,0.453125,0.65625
1630415961875,-0.578125,0.453125,0.671875
1630415961906,-0.578125,0.453125,0.671875
1630415961937,-0.578125,0.453125,0.65625
1630415961968,-0.578125,0.453125,0.671875
1630415962000,-0.578125,0.453125,0.671875
1630415962031,-0.578125,0.453125,0.65625
1630415962062,-0.578125,0.453125,0.65625
1630415962093,-0.578125,0.453125,0.65625
1630415962125,-0.578125,0.453125,0.65625
1630415962156,-0.578125,0.453125,0.671875
1630415962187,-0.578125,0.453125,0.65625
1630415962218,-0.578125,0.453125,0.65625
1630415962250,-0.578125,0.453125,0.671875
1630415962281,-0.578125,0.453125,0.671875
1630415962312,-0.578125,0.453125,0.65625
1630415962343,-0.578125,0.453125,0.65625
1630415962375,-0.578125,0.453125,0.671875
1630415962406,-0.578125,0.453125,0.671875
1630415962437,-0.578125,0.453125,0.65625
1630415962468,-0.578125,0.453125,0.65625
1630415962500,-0.578125,0.453125,0.65625
1630415962531,-0.578125,0.453125,0.671875
1630415962562,-0.59375,0.453125,0.671875
1630415962593,-0.578125,0.453125,0.671875
1630415962625,-0.578125,0.453125,0.671875
1630415962656,-0.578125,0.453125,0.671875
1630415962687,-0.578125,0.453125,0.671875
1630415962718,-0.578125,0.453125,0.65625
1630415962750,-0.578125,0.453125,0.671875
1630415962781,-0.578125,0.453125,0.671875
1630415962812,-0.578125,0.453125,0.671875
1630415962843,-0.578125,0.453125,0.671875
1630415962875,-0.578125,0.453125,0.671875
1630415962906,-0.578125,0.453125,0.671875
1630415962937,-0.578125,0.453125,0.671875
1630415962968,-0.578125,0.453125,0.671875
1630415963000,-0.578125,0.453125,0.671875
1630415963031,-0.578125,0.453125,0.671875
1630415963062,-0.578125,0.453125,0.671875
1630415963093,-0.578125,0.453125,0.671875
1630415963125,-0.578125,0.453125,0.671875
1630415963156,-0.5625,0.453125,0.671875
1630415963187,-0.578125,0.453125,0.671875
1630415963218,-0.578125,0.453125,0.671875
1630415963250,-0.578125,0.453125,0.671875
1630415963281,-0.578125,0.453125,0.671875
1630415963312,-0.578125,0.453125,0.671875
1630415963343,-0.578125,0.453125,0.671875
1630415963375,-0.578125,0.453125,0.671875
1630415963406,-0.578125,0.453125,0.671875
1630415963437,-0.578125,0.453125,0.671875
1630415963468,-0.578125,0.453125,0.671875
1630415963500,-0.578125,0.453125,0.671875
1630415963531,-0.578125,0.453125,0.671875
1630415963562,-0.578125,0.453125,0.671875
1630415963593,-0.578125,0.453125,0.671875
1630415963625,-0.578125,0.453125,0.671875
1630415963656,-0.5625,0.453125,0.671875
1630415963687,-0.578125,0.453125,0.671875
1630415963718,-0.578125,0.453125,0.671875
1630415963750,-0.578125,0.453125,0.671875
1630415963781,-0.578125,0.453125,0.671875
1630415963812,-0.578125,0.453125,0.671875
1630415963843,-0.5625,0.453125,0.671875
1630415963875,-0.5625,0.46875,0.671875
1630415963906,-0.5625,0.453125,0.671875
1630415963937,-0.5625,0.453125,0.671875
1630415963968,-0.578125,0.453125,0.671875
1630415964000,-0.5625,0.453125,0.671875
1630415964031,-0.578125,0.453125,0.671875
1630415964062,-0.5625,0.453125,0.671875
1630415964093,-0.578125,0.453125,0.671875
1630415964125,-0.5625,0.453125,0.671875
1630415964156,-0.5625,0.453125,0.671875
1630415964187,-0.578125,0.453125,0.671875
1630415964218,-0.578125,0.453125,0.671875
1630415964250,-0.578125,0.453125,0.671875
1630415964281,-0.5625,0.453125,0.671875
1630415964312,-0.5625,0.453125,0.671875
1630415964343,-0.578125,0.453125,0.671875
1630415964375,-0.578125,0.453125,0.671875
1630415964406,-0.5625,0.453125,0.671875
1630415964437,-0.5625,0.453125,0.671875
1630415964468,-0.578125,0.453125,0.671875
1630415964500,-0.5625,0.453125,0.671875
1630415964531,-0.578125,0.453125,0.671875
1630415964562,-0.578125,0.453125,0.671875
1630415964593,-0.578125,0.453125,0.671875
1630415964625,-0.578125,0.453125,0.671875
1630415964656,-0.578125,0.453125,0.671875
1630415964687,-0.5625,0.453125,0.671875
1630415964718,-0.578125,0.453125,0.671875
1630415964750,-0.578125,0.453125,0.671875
1630415964781,-0.578125,0.453125,0.671875
1630415964812,-0.578125,0.453125,0.671875
1630415964843,-0.5625,0.453125,0.671875
1630415964875,-0.578125,0.453125,0.671875
1630415964906,-0.578125,0.453125,0.671875
1630415964937,-0.5625,0.453125,0.671875
1630415964968,-0.5625,0.453125,0.671875
1630415965000,-0.578125,0.453125,0.671875
1630415965031,-0.578125,0.453125,0.671875
1630415965062,-0.5625,0.453125,0.671875
1630415965093,-0.5625,0.453125,0.671875
1630415965125,-0.578125,0.453125,0.671875
1630415965156,-0.578125,0.453125,0.671875
1630415965187,-0.578125,0.453125,0.671875
1630415965218,-0.578125,0.453125,0.671875
1630415965250,-0.578125,0.453125,0.671875
1630415965281,-0.578125,0.453125,0.671875
1630415965312,-0.578125,0.453125,0.671875
1630415965343,-0.5625,0.453125,0.671875
1630415965375,-0.5625,0.453125,0.671875
1630415965406,-0.578125,0.453125,0.671875
1630415965437,-0.5625,0.453125,0.671875
1630415965468,-0.5625,0.453125,0.671875
1630415965500,-0.578125,0.453125,0.671875
1630415965531,-0.578125,0.453125,0.671875
1630415965562,-0.578125,0.453125,0.671875
1630415965593,-0.5625,0.453125,0.671875
1630415965625,-0.5625,0.453125,0.671875
1630415965656,-0.578125,0.453125,0.671875
1630415965687,-0.578125,0.453125,0.671875
1630415965718,-0.5625,0.453125,0.671875
1630415965750,-0.578125,0.453125,0.671875
1630415965781,-0.578125,0.453125,0.671875
1630415965812,-0.5625,0.453125,0.671875
1630415965843,-0.5625,0.453125,0.671875
1630415965875,-0.5625,0.453125,0.671875
1630415965906,-0.578125,0.453125,0.671875
1630415965937,-0.578125,0.453125,0.671875
1630415965968,-0.5625,0.453125,0.671875
1630415966000,-0.5625,0.453125,0.671875
1630415966031,-0.5625,0.453125,0.671875
1630415966062,-0.578125,0.453125,0.671875
1630415966093,-0.5625,0.453125,0.671875
1630415966125,-0.5625,0.453125,0.671875
1630415966156,-0.578125,0.453125,0.671875
1630415966187,-0.578125,0.453125,0.671875
1630415966218,-0.5625,0.453125,0.671875
1630415966250,-0.5625,0.453125,0.671875
1630415966281,-0.578125,0.453125,0.671875
1630415966312,-0.578125,0.453125,0.671875
1630415966343,-0.5625,0.453125,0.671875
1630415966375,-0.578125,0.453125,0.671875
1630415966406,-0.578125,0.453125,0.671875
1630415966437,-0.5625,0.453125,0.671875
1630415966468,-0.5625,0.453125,0.671875
1630415966500,-0.5625,0.453125,0.671875
1630415966531,-0.5625,0.453125,0.671875
1630415966562,-0.578125,0.453125,0.671875
1630415966593,-0.5625,0.453125,0.671875
1630415966625,-0.5625,0.453125,0.671875
1630415966656,-0.5625,0.453125,0.671875
1630415966687,-0.578125,0.453125,0.671875
1630415966718,-0.5625,0.453125,0.671875
1630415966750,-0.5625,0.453125,0.671875
1630415966781,-0.578125,0.453125,0.671875
1630415966812,-0.578125,0.453125,0.671875
1630415966843,-0.578125,0.453125,0.671875
1630415966875,-0.578125,0.453125,0.671875
1630415966906,-0.578125,0.453125,0.671875
1630415966937,-0.5625,0.453125,0.671875
1630415966968,-0.5625,0.453125,0.671875
1630415967000,-0.5625,0.453125,0.671875
1630415967031,-0.5625,0.453125,0.671875
1630415967062,-0.5625,0.453125,0.671875
1630415967093,-0.578125,0.453125,0.671875
1630415967125,-0.578125,0.453125,0.671875
1630415967156,-0.578125,0.453125,0.671875
1630415967187,-0.5625,0.453125,0.671875
1630415967218,-0.578125,0.453125,0.671875
1630415967250,-0.5625,0.453125,0.671875
1630415967281,-0.578125,0.453125,0.671875
1630415967312,-0.578125,0.453125,0.671875
1630415967343,-0.578125,0.453125,0.671875
1630415967375,-0.5625,0.453125,0.671875
1630415967406,-0.578125,0.453125,0.671875
1630415967437,-0.5625,0.453125,0.65625
1630415967468,-0.578125,0.453125,0.671875
1630415967500,-0.578125,0.453125,0.671875
1630415967531,-0.578125,0.453125,0.671875
1630415967562,-0.578125,0.453125,0.671875
1630415967593,-0.5625,0.453125,0.671875
1630415967625,-0.578125,0.453125,0.671875
1630415967656,-0.578125,0.453125,0.671875
1630415967687,-0.578125,0.453125,0.671875
1630415967718,-0.5625,0.453125,0.671875
1630415967750,-0.578125,0.453125,0.671875
1630415967781,-0.578125,0.453125,0.671875
1630415967812,-0.5625,0.46875,0.671875
1630415967843,-0.5625,0.453125,0.671875
1630415967875,-0.578125,0.453125,0.65625
1630415967906,-0.578125,0.453125,0.671875
1630415967937,-0.578125,0.453125,0.671875
1630415967968,-0.5625,0.453125,0.671875
1630415968000,-0.5625,0.453125,0.671875
1630415968031,-0.5625,0.46875,0.671875
1630415968062,-0.578125,0.46875,0.671875
1630415968093,-0.5625,0.453125,0.671875
1630415968125,-0.5625,0.453125,0.671875
1630415968156,-0.5625,0.453125,0.671875
1630415968187,-0.5625,0.453125,0.671875
1630415968218,-0.5625,0.453125,0.671875
1630415968250,-0.5625,0.453125,0.671875
1630415968281,-0.578125,0.46875,0.671875
1630415968312,-0.5625,0.46875,0.671875
1630415968343,-0.5625,0.46875,0.671875
1630415968375,-0.5625,0.46875,0.671875
1630415968406,-0.5625,0.46875,0.671875
1630415968437,-0.5625,0.46875,0.671875
1630415968468,-0.5625,0.46875,0.671875
1630415968500,-0.5625,0.46875,0.671875
1630415968531,-0.578125,0.46875,0.671875
1630415968562,-0.5625,0.453125,0.671875
1630415968593,-0.5625,0.453125,0.671875
1630415968625,-0.5625,0.46875,0.671875
1630415968656,-0.5625,0.46875,0.671875
1630415968687,-0.5625,0.453125,0.671875
1630415968718,-0.5625,0.453125,0.671875
1630415968750,-0.578125,0.453125,0.671875
1630415968781,-0.5625,0.46875,0.671875
1630415968812,-0.5625,0.46875,0.671875
1630415968843,-0.5625,0.453125,0.671875
1630415968875,-0.5625,0.453125,0.671875
1630415968906,-0.5625,0.453125,0.671875
1630415968937,-0.5625,0.46875,0.671875
1630415968968,-0.5625,0.453125,0.671875
1630415969000,-0.5625,0.453125,0.671875
1630415969031,-0.5625,0.453125,0.671875
1630415969062,-0.5625,0.453125,0.671875
1630415969093,-0.5625,0.453125,0.671875
1630415969125,-0.5625,0.453125,0.671875
1630415969156,-0.578125,0.453125,0.671875
1630415969187,-0.5625,0.453125,0.671875
1630415969218,-0.5625,0.453125,0.671875
1630415969250,-0.5625,0.46875,0.671875
1630415969281,-0.5625,0.453125,0.671875
1630415969312,-0.578125,0.453125,0.671875
1630415969343,-0.5625,0.453125,0.671875
1630415969375,-0.5625,0.453125,0.671875
1630415969406,-0.5625,0.453125,0.671875
1630415969437,-0.5625,0.46875,0.671875
1630415969468,-0.5625,0.453125,0.671875
1630415969500,-0.5625,0.453125,0.671875
1630415969531,-0.5625,0.453125,0.671875
1630415969562,-0.5625,0.453125,0.671875
1630415969593,-0.5625,0.453125,0.671875
1630415969625,-0.5625,0.453125,0.671875
1630415969656,-0.5625,0.453125,0.671875
1630415969687,-0.5625,0.453125,0.671875
1630415969718,-0.5625,0.453125,0.671875
1630415969750,-0.5625,0.46875,0.671875
1630415969781,-0.5625,0.453125,0.671875
1630415969812,-0.5625,0.453125,0.671875
1630415969843,-0.5625,0.453125,0.671875
1630415969875,-0.5625,0.453125,0.671875
1630415969906,-0.578125,0.453125,0.671875
1630415969937,-0.5625,0.453125,0.671875
1630415969968,-0.5625,0.453125,0.671875
1630415970000,-0.578125,0.453125,0.671875
1630415970031,-0.5625,0.453125,0.671875
1630415970062,-0.5625,0.453125,0.671875
1630415970093,-0.578125,0.453125,0.671875
1630415970125,-0.578125,0.453125,0.671875
1630415970156,-0.5625,0.453125,0.671875
1630415970187,-0.5625,0.453125,0.671875
1630415970218,-0.578125,0.453125,0.671875
1630415970250,-0.578125,0.46875,0.671875
1630415970281,-0.5625,0.453125,0.671875
1630415970312,-0.5625,0.46875,0.671875
1630415970343,-0.578125,0.453125,0.671875
1630415970375,-0.578125,0.453125,0.671875
1630415970406,-0.5625,0.453125,0.671875
1630415970437,-0.5625,0.453125,0.671875
1630415970468,-0.578125,0.453125,0.671875
1630415970500,-0.578125,0.453125,0.671875
1630415970531,-0.5625,0.453125,0.671875
1630415970562,-0.578125,0.453125,0.671875
1630415970593,-0.5625,0.453125,0.671875
1630415970625,-0.5625,0.453125,0.671875
1630415970656,-0.578125,0.46875,0.671875
1630415970687,-0.578125,0.453125,0.671875
1630415970718,-0.5625,0.453125,0.671875
1630415970750,-0.578125,0.453125,0.671875
1630415970781,-0.578125,0.453125,0.671875
1630415970812,-0.578125,0.453125,0.671875
1630415970843,-0.578125,0.453125,0.671875
1630415970875,-0.578125,0.453125,0.671875
1630415970906,-0.5625,0.453125,0.671875
1630415970937,-0.5625,0.453125,0.671875
1630415970968,-0.5625,0.453125,0.671875
1630415971000,-0.578125,0.453125,0.671875
1630415971031,-0.5625,0.453125,0.671875
1630415971062,-0.578125,0.453125,0.671875
1630415971093,-0.5625,0.453125,0.671875
1630415971125,-0.5625,0.453125,0.671875
1630415971156,-0.578125,0.453125,0.671875
1630415971187,-0.578125,0.453125,0.671875
1630415971218,-0.5625,0.453125,0.671875
1630415971250,-0.5625,0.453125,0.671875
1630415971281,-0.5625,0.453125,0.671875
1630415971312,-0.5625,0.453125,0.671875
1630415971343,-0.5625,0.453125,0.671875
1630415971375,-0.5625,0.453125,0.671875
1630415971406,-0.578125,0.453125,0.671875
1630415971437,-0.5625,0.453125,0.671875
1630415971468,-0.5625,0.453125,0.671875
1630415971500,-0.578125,0.453125,0.671875
1630415971531,-0.578125,0.453125,0.671875
1630415971562,-0.5625,0.453125,0.671875
1630415971593,-0.5625,0.453125,0.671875
1630415971625,-0.578125,0.453125,0.671875
1630415971656,-0.578125,0.453125,0.671875
1630415971687,-0.5625,0.453125,0.671875
1630415971718,-0.5625,0.453125,0.671875
1630415971750,-0.5625,0.453125,0.671875
1630415971781,-0.578125,0.453125,0.671875
1630415971812,-0.578125,0.453125,0.671875
1630415971843,-0.578125,0.453125,0.671875
1630415971875,-0.578125,0.453125,0.671875
1630415971906,-0.578125,0.453125,0.671875
1630415971937,-0.578125,0.453125,0.671875
1630415971968,-0.5625,0.453125,0.671875
1630415972000,-0.578125,0.453125,0.671875
1630415972031,-0.578125,0.453125,0.671875
1630415972062,-0.5625,0.453125,0.671875
1630415972093,-0.5625,0.453125,0.671875
1630415972125,-0.5625,0.453125,0.671875
1630415972156,-0.5625,0.453125,0.671875
1630415972187,-0.578125,0.453125,0.671875
1630415972218,-0.578125,0.453125,0.671875
1630415972250,-0.578125,0.453125,0.671875
1630415972281,-0.578125,0.453125,0.671875
1630415972312,-0.578125,0.453125,0.671875
1630415972343,-0.578125,0.453125,0.671875
1630415972375,-0.578125,0.453125,0.671875
1630415972406,-0.578125,0.453125,0.671875
1630415972437,-0.578125,0.453125,0.671875
1630415972468,-0.578125,0.453125,0.671875
1630415972500,-0.578125,0.453125,0.671875
1630415972531,-0.578125,0.453125,0.671875
1630415972562,-0.578125,0.453125,0.671875
1630415972593,-0.578125,0.453125,0.671875
1630415972625,-0.578125,0.453125,0.671875
1630415972656,-0.578125,0.453125,0.671875
1630415972687,-0.578125,0.453125,0.671875
1630415972718,-0.578125,0.453125,0.671875
1630415972750,-0.578125,0.453125,0.671875
1630415972781,-0.578125,0.453125,0.671875
1630415972812,-0.578125,0.453125,0.671875
1630415972843,-0.578125,0.453125,0.671875
1630415972875,-0.578125,0.453125,0.671875
1630415972906,-0.578125,0.453125,0.671875
1630415972937,-0.578125,0.453125,0.671875
1630415972968,-0.578125,0.453125,0.671875
1630415973000,-0.578125,0.453125,0.671875
1630415973031,-0.578125,0.453125,0.671875
1630415973062,-0.578125,0.453125,0.671875
1630415973093,-0.578125,0.453125,0.671875
1630415973125,-0.578125,0.453125,0.671875
1630415973156,-0.578125,0.453125,0.671875
1630415973187,-0.5625,0.453125,0.671875
1630415973218,-0.5625,0.453125,0.671875
1630415973250,-0.578125,0.453125,0.671875
1630415973281,-0.578125,0.453125,0.65625
1630415973312,-0.578125,0.453125,0.671875
1630415973343,-0.578125,0.453125,0.671875
1630415973375,-0.578125,0.453125,0.671875
1630415973406,-0.578125,0.453125,0.671875
1630415973437,-0.578125,0.453125,0.671875
1630415973468,-0.578125,0.453125,0.671875
1630415973500,-0.578125,0.4375,0.671875
1630415973531,-0.578125,0.453125,0.671875
1630415973562,-0.578125,0.453125,0.671875
1630415973593,-0.578125,0.453125,0.671875
1630415973625,-0.578125,0.453125,0.65625
1630415973656,-0.578125,0.453125,0.671875
1630415973687,-0.578125,0.453125,0.671875
1630415973718,-0.578125,0.453125,0.671875
1630415973750,-0.578125,0.453125,0.671875
1630415973781,-0.578125,0.453125,0.671875
1630415973812,-0.578125,0.453125,0.671875
1630415973843,-0.578125,0.453125,0.671875
1630415973875,-0.578125,0.453125,0.671875
1630415973906,-0.578125,0.453125,0.671875
1630415973937,-0.578125,0.4375,0.671875
1630415973968,-0.578125,0.453125,0.671875
1630415974000,-0.578125,0.453125,0.671875
1630415974031,-0.578125,0.453125,0.65625
1630415974062,-0.578125,0.453125,0.65625
1630415974093,-0.578125,0.453125,0.671875
1630415974125,-0.578125,0.453125,0.671875
1630415974156,-0.578125,0.453125,0.671875
1630415974187,-0.578125,0.453125,0.671875
1630415974218,-0.578125,0.453125,0.671875
1630415974250,-0.578125,0.453125,0.671875
1630415974281,-0.578125,0.453125,0.671875
1630415974312,-0.578125,0.453125,0.671875
1630415974343,-0.578125,0.453125,0.671875
1630415974375,-0.578125,0.453125,0.671875
1630415974406,-0.578125,0.453125,0.671875
1630415974437,-0.578125,0.453125,0.671875
1630415974468,-0.578125,0.453125,0.671875
1630415974500,-0.578125,0.4375,0.671875
1630415974531,-0.578125,0.453125,0.671875
1630415974562,-0.578125,0.453125,0.671875
1630415974593,-0.578125,0.453125,0.671875
1630415974625,-0.578125,0.453125,0.671875
1630415974656,-0.578125,0.453125,0.671875
1630415974687,-0.578125,0.4375,0.671875
1630415974718,-0.578125,0.453125,0.671875
1630415974750,-0.578125,0.453125,0.671875
1630415974781,-0.578125,0.453125,0.65625
1630415974812,-0.578125,0.453125,0.671875
1630415974843,-0.578125,0.453125,0.671875
1630415974875,-0.578125,0.453125,0.671875
1630415974906,-0.578125,0.453125,0.671875
1630415974937,-0.578125,0.4375,0.671875
1630415974968,-0.578125,0.453125,0.65625
1630415975000,-0.578125,0.453125,0.671875
1630415975031,-0.578125,0.453125,0.671875
1630415975062,-0.578125,0.453125,0.671875
1630415975093,-0.578125,0.453125,0.65625
1630415975125,-0.578125,0.453125,0.671875
1630415975156,-0.578125,0.453125,0.671875
1630415975187,-0.578125,0.453125,0.671875
1630415975218,-0.578125,0.453125,0.671875
1630415975250,-0.578125,0.453125,0.671875
1630415975281,-0.578125,0.453125,0.65625
1630415975312,-0.578125,0.453125,0.671875
1630415975343,-0.578125,0.453125,0.65625
1630415975375,-0.59375,0.453125,0.671875
1630415975406,-0.578125,0.453125,0.65625
1630415975437,-0.578125,0.453125,0.65625
1630415975468,-0.578125,0.453125,0.671875
1630415975500,-0.578125,0.453125,0.65625
1630415975531,-0.578125,0.453125,0.65625
1630415975562,-0.578125,0.453125,0.671875
1630415975593,-0.578125,0.453125,0.671875
1630415975625,-0.578125,0.453125,0.671875
1630415975656,-0.578125,0.453125,0.671875
1630415975687,-0.578125,0.453125,0.671875
1630415975718,-0.578125,0.453125,0.65625
1630415975750,-0.578125,0.453125,0.671875
1630415975781,-0.578125,0.453125,0.65625
1630415975812,-0.578125,0.453125,0.671875
1630415975843,-0.578125,0.453125,0.671875
1630415975875,-0.578125,0.453125,0.671875
1630415975906,-0.578125,0.453125,0.671875
1630415975937,-0.578125,0.453125,0.671875
1630415975968,-0.578125,0.453125,0.671875
1630415976000,-0.578125,0.453125,0.65625
1630415976031,-0.578125,0.453125,0.671875
1630415976062,-0.578125,0.453125,0.671875
1630415976093,-0.578125,0.453125,0.671875
1630415976125,-0.578125,0.453125,0.671875
1630415976156,-0.578125,0.453125,0.671875
1630415976187,-0.578125,0.453125,0.671875
1630415976218,-0.578125,0.453125,0.671875
1630415976250,-0.578125,0.453125,0.671875
1630415976281,-0.578125,0.453125,0.65625
1630415976312,-0.578125,0.453125,0.671875
1630415976343,-0.578125,0.453125,0.671875
1630415976375,-0.578125,0.453125,0.671875
1630415976406,-0.578125,0.453125,0.671875
1630415976437,-0.578125,0.453125,0.671875
1630415976468,-0.578125,0.453125,0.671875
1630415976500,-0.578125,0.453125,0.671875
1630415976531,-0.578125,0.453125,0.671875
1630415976562,-0.578125,0.453125,0.671875
1630415976593,-0.578125,0.453125,0.671875
1630415976625,-0.578125,0.453125,0.671875
1630415976656,-0.578125,0.453125,0.671875
1630415976687,-0.578125,0.453125,0.671875
1630415976718,-0.578125,0.453125,0.671875
1630415976750,-0.578125,0.453125,0.671875
1630415976781,-0.578125,0.453125,0.671875
1630415976812,-0.578125,0.453125,0.671875
1630415976843,-0.578125,0.453125,0.671875
1630415976875,-0.578125,0.453125,0.671875
1630415976906,-0.578125,0.453125,0.671875
1630415976937,-0.578125,0.453125,0.671875
1630415976968,-0.578125,0.453125,0.671875
1630415977000,-0.578125,0.453125,0.671875
1630415977031,-0.578125,0.453125,0.671875
1630415977062,-0.578125,0.453125,0.671875
1630415977093,-0.578125,0.453125,0.671875
1630415977125,-0.578125,0.453125,0.671875
1630415977156,-0.578125,0.453125,0.671875
1630415977187,-0.578125,0.453125,0.671875
1630415977218,-0.578125,0.453125,0.671875
1630415977250,-0.578125,0.453125,0.671875
1630415977281,-0.578125,0.453125,0.671875
1630415977312,-0.578125,0.453125,0.671875
1630415977343,-0.578125,0.453125,0.671875
1630415977375,-0.578125,0.453125,0.671875
1630415977406,-0.578125,0.453125,0.671875
1630415977437,-0.578125,0.453125,0.671875
1630415977468,-0.578125,0.453125,0.671875
1630415977500,-0.578125,0.453125,0.671875
1630415977531,-0.578125,0.453125,0.671875
1630415977562,-0.578125,0.453125,0.671875
1630415977593,-0.578125,0.453125,0.671875
1630415977625,-0.578125,0.453125,0.671875
1630415977656,-0.578125,0.453125,0.671875
1630415977687,-0.578125,0.453125,0.671875
1630415977718,-0.578125,0.453125,0.671875
1630415977750,-0.578125,0.453125,0.65625
1630415977781,-0.578125,0.453125,0.65625
1630415977812,-0.578125,0.453125,0.671875
1630415977843,-0.578125,0.453125,0.671875
1630415977875,-0.578125,0.453125,0.671875
1630415977906,-0.578125,0.453125,0.671875
1630415977937,-0.578125,0.453125,0.671875
1630415977968,-0.578125,0.453125,0.671875
1630415978000,-0.578125,0.453125,0.671875
1630415978031,-0.578125,0.453125,0.671875
1630415978062,-0.578125,0.453125,0.671875
1630415978093,-0.578125,0.453125,0.671875
1630415978125,-0.578125,0.453125,0.671875
1630415978156,-0.578125,0.453125,0.65625
1630415978187,-0.578125,0.453125,0.671875
1630415978218,-0.578125,0.453125,0.671875
1630415978250,-0.578125,0.453125,0.671875
1630415978281,-0.578125,0.453125,0.671875
1630415978312,-0.578125,0.453125,0.671875
1630415978343,-0.578125,0.453125,0.671875
1630415978375,-0.578125,0.453125,0.671875
1630415978406,-0.578125,0.453125,0.671875
1630415978437,-0.578125,0.453125,0.671875
1630415978468,-0.578125,0.453125,0.671875
1630415978500,-0.578125,0.453125,0.65625
1630415978531,-0.578125,0.453125,0.671875
1630415978562,-0.578125,0.453125,0.671875
1630415978593,-0.578125,0.453125,0.671875
1630415978625,-0.578125,0.453125,0.671875
1630415978656,-0.578125,0.453125,0.671875
1630415978687,-0.578125,0.453125,0.671875
1630415978718,-0.578125,0.453125,0.671875
1630415978750,-0.578125,0.453125,0.671875
1630415978781,-0.578125,0.453125,0.671875
1630415978812,-0.578125,0.453125,0.671875
1630415978843,-0.578125,0.453125,0.671875
1630415978875,-0.578125,0.453125,0.671875
1630415978906,-0.578125,0.453125,0.671875
1630415978937,-0.578125,0.453125,0.671875
1630415978968,-0.578125,0.453125,0.671875
1630415979000,-0.578125,0.453125,0.671875
1630415979031,-0.578125,0.453125,0.671875
1630415979062,-0.578125,0.453125,0.671875
1630415979093,-0.578125,0.453125,0.671875
1630415979125,-0.578125,0.453125,0.671875
1630415979156,-0.5625,0.453125,0.671875
1630415979187,-0.578125,0.453125,0.671875
1630415979218,-0.578125,0.453125,0.671875
1630415979250,-0.578125,0.453125,0.671875
1630415979281,-0.578125,0.453125,0.671875
1630415979312,-0.578125,0.453125,0.671875
1630415979343,-0.578125,0.453125,0.671875
1630415979375,-0.578125,0.453125,0.671875
1630415979406,-0.578125,0.453125,0.671875
1630415979437,-0.578125,0.453125,0.671875
1630415979468,-0.578125,0.453125,0.671875
1630415979500,-0.578125,0.453125,0.671875
1630415979531,-0.578125,0.453125,0.671875
1630415979562,-0.5625,0.453125,0.671875
1630415979593,-0.578125,0.453125,0.671875
1630415979625,-0.578125,0.453125,0.671875
1630415979656,-0.578125,0.453125,0.671875
1630415979687,-0.578125,0.453125,0.671875
1630415979718,-0.578125,0.453125,0.671875
1630415979750,-0.578125,0.453125,0.671875
1630415979781,-0.578125,0.453125,0.671875
1630415979812,-0.578125,0.453125,0.671875
1630415979843,-0.578125,0.453125,0.671875
1630415979875,-0.578125,0.453125,0.671875
1630415979906,-0.578125,0.453125,0.65625
1630415979937,-0.578125,0.453125,0.671875
1630415979968,-0.578125,0.453125,0.671875
1630415980000,-0.578125,0.453125,0.671875
1630415980031,-0.578125,0.453125,0.671875
1630415980062,-0.578125,0.453125,0.671875
1630415980093,-0.578125,0.453125,0.671875
1630415980125,-0.578125,0.453125,0.671875
1630415980156,-0.578125,0.453125,0.671875
1630415980187,-0.578125,0.453125,0.671875
1630415980218,-0.578125,0.453125,0.671875
1630415980250,-0.578125,0.453125,0.671875
1630415980281,-0.578125,0.453125,0.671875
1630415980312,-0.578125,0.453125,0.671875
1630415980343,-0.578125,0.453125,0.671875
1630415980375,-0.578125,0.453125,0.671875
1630415980406,-0.578125,0.453125,0.671875
1630415980437,-0.578125,0.453125,0.671875
1630415980468,-0.578125,0.453125,0.65625
1630415980500,-0.578125,0.453125,0.671875
1630415980531,-0.578125,0.453125,0.671875
1630415980562,-0.578125,0.453125,0.671875
1630415980593,-0.578125,0.453125,0.671875
1630415980625,-0.578125,0.453125,0.671875
1630415980656,-0.578125,0.453125,0.671875
1630415980687,-0.578125,0.453125,0.65625
1630415980718,-0.578125,0.453125,0.671875
1630415980750,-0.578125,0.453125,0.671875
1630415980781,-0.578125,0.453125,0.65625
1630415980812,-0.578125,0.453125,0.671875
1630415980843,-0.578125,0.453125,0.671875
1630415980875,-0.578125,0.453125,0.671875
1630415980906,-0.578125,0.453125,0.671875
1630415980937,-0.578125,0.453125,0.671875
1630415980968,-0.578125,0.453125,0.671875
1630415981000,-0.578125,0.453125,0.671875
1630415981031,-0.578125,0.453125,0.671875
1630415981062,-0.578125,0.453125,0.671875
1630415981093,-0.5625,0.453125,0.671875
1630415981125,-0.578125,0.453125,0.671875
1630415981156,-0.578125,0.453125,0.671875
1630415981187,-0.578125,0.453125,0.671875
1630415981218,-0.578125,0.453125,0.671875
1630415981250,-0.5625,0.453125,0.671875
1630415981281,-0.578125,0.453125,0.671875
1630415981312,-0.578125,0.453125,0.671875
1630415981343,-0.578125,0.453125,0.671875
1630415981375,-0.5625,0.453125,0.671875
1630415981406,-0.578125,0.46875,0.671875
1630415981437,-0.5625,0.453125,0.671875
1630415981468,-0.5625,0.453125,0.671875
1630415981500,-0.578125,0.453125,0.671875
1630415981531,-0.578125,0.453125,0.671875
1630415981562,-0.5625,0.453125,0.671875
1630415981593,-0.5625,0.453125,0.671875
1630415981625,-0.5625,0.453125,0.671875
1630415981656,-0.5625,0.453125,0.671875
1630415981687,-0.578125,0.453125,0.671875
1630415981718,-0.5625,0.453125,0.671875
1630415981750,-0.5625,0.453125,0.671875
1630415981781,-0.578125,0.453125,0.671875
1630415981812,-0.578125,0.453125,0.671875
1630415981843,-0.5625,0.453125,0.671875
1630415981875,-0.578125,0.453125,0.671875
1630415981906,-0.578125,0.453125,0.671875
1630415981937,-0.578125,0.453125,0.671875
1630415981968,-0.5625,0.453125,0.671875
1630415982000,-0.578125,0.453125,0.671875
1630415982031,-0.578125,0.453125,0.671875
1630415982062,-0.5625,0.453125,0.671875
1630415982093,-0.5625,0.453125,0.671875
1630415982125,-0.578125,0.453125,0.671875
1630415982156,-0.5625,0.453125,0.671875
1630415982187,-0.578125,0.453125,0.65625
1630415982218,-0.5625,0.453125,0.671875
1630415982250,-0.5625,0.453125,0.671875
1630415982281,-0.578125,0.453125,0.671875
1630415982312,-0.578125,0.453125,0.671875
1630415982343,-0.5625,0.453125,0.671875
1630415982375,-0.5625,0.453125,0.671875
1630415982406,-0.578125,0.453125,0.671875
1630415982437,-0.578125,0.453125,0.671875
1630415982468,-0.5625,0.453125,0.671875
1630415982500,-0.5625,0.453125,0.671875
1630415982531,-0.578125,0.453125,0.671875
1630415982562,-0.578125,0.453125,0.671875
1630415982593,-0.5625,0.453125,0.671875
1630415982625,-0.5625,0.453125,0.671875
1630415982656,-0.578125,0.453125,0.671875
1630415982687,-0.578125,0.453125,0.671875
1630415982718,-0.5625,0.453125,0.671875
1630415982750,-0.578125,0.453125,0.671875
1630415982781,-0.578125,0.453125,0.671875
1630415982812,-0.5625,0.453125,0.671875
1630415982843,-0.578125,0.453125,0.671875
1630415982875,-0.578125,0.453125,0.671875
1630415982906,-0.578125,0.453125,0.671875
1630415982937,-0.578125,0.453125,0.671875
1630415982968,-0.578125,0.453125,0.671875
1630415983000,-0.578125,0.453125,0.671875
1630415983031,-0.578125,0.453125,0.671875
1630415983062,-0.578125,0.453125,0.671875
1630415983093,-0.578125,0.453125,0.65625
1630415983125,-0.578125,0.453125,0.671875
1630415983156,-0.578125,0.453125,0.671875
1630415983187,-0.578125,0.453125,0.671875
1630415983218,-0.578125,0.453125,0.671875
1630415983250,-0.578125,0.453125,0.671875
1630415983281,-0.578125,0.453125,0.671875
1630415983312,-0.578125,0.453125,0.671875
1630415983343,-0.578125,0.453125,0.671875
1630415983375,-0.5625,0.453125,0.671875
1630415983406,-0.578125,0.453125,0.671875
1630415983437,-0.578125,0.453125,0.671875
1630415983468,-0.578125,0.453125,0.671875
1630415983500,-0.578125,0.453125,0.671875
1630415983531,-0.578125,0.453125,0.671875
1630415983562,-0.578125,0.453125,0.671875
1630415983593,-0.578125,0.453125,0.671875
1630415983625,-0.578125,0.453125,0.671875
1630415983656,-0.578125,0.453125,0.671875
1630415983687,-0.578125,0.453125,0.671875
1630415983718,-0.578125,0.453125,0.671875
1630415983750,-0.578125,0.4375,0.671875
1630415983781,-0.578125,0.4375,0.671875
1630415983812,-0.578125,0.4375,0.671875
1630415983843,-0.578125,0.4375,0.671875
1630415983875,-0.5625,0.4375,0.671875
1630415983906,-0.5625,0.4375,0.671875
1630415983937,-0.59375,0.453125,0.671875
1630415983968,-0.578125,0.4375,0.671875
1630415984000,-0.578125,0.4375,0.671875
1630415984031,-0.578125,0.4375,0.671875
1630415984062,-0.578125,0.453125,0.6875
1630415984093,-0.5625,0.453125,0.671875
1630415984125,-0.578125,0.453125,0.671875
1630415984156,-0.578125,0.453125,0.6875
1630415984187,-0.59375,0.453125,0.671875
1630415984218,-0.609375,0.4375,0.6875
1630415984250,-0.609375,0.4375,0.6875
1630415984281,-0.578125,0.4375,0.703125
1630415984312,-0.546875,0.4375,0.703125
1630415984343,-0.53125,0.4375,0.6875
1630415984375,-0.5625,0.4375,0.65625
1630415984406,-0.546875,0.453125,0.65625
1630415984437,-0.546875,0.46875,0.6875
1630415984468,-0.546875,0.484375,0.6875
1630415984500,-0.546875,0.484375,0.6875
1630415984531,-0.5,0.484375,0.703125
1630415984562,-0.484375,0.5,0.703125
1630415984593,-0.4375,0.484375,0.71875
1630415984625,-0.421875,0.46875,0.75
1630415984656,-0.5,0.46875,0.765625
1630415984687,-0.515625,0.4375,0.75
1630415984718,-0.515625,0.40625,0.75
1630415984750,-0.609375,0.359375,0.703125
1630415984781,-0.609375,0.359375,0.71875
1630415984812,-0.53125,0.328125,0.703125
1630415984843,-0.515625,0.34375,0.734375
1630415984875,-0.59375,0.390625,0.734375
1630415984906,-0.546875,0.375,0.734375
1630415984937,-0.515625,0.359375,0.671875
1630415984968,-0.453125,0.328125,0.84375
1630415985000,-0.4375,0.3125,0.765625
1630415985031,-0.4375,0.328125,0.796875
1630415985062,-0.5,0.34375,0.75
1630415985093,-0.578125,0.375,0.703125
1630415985125,-0.5625,0.390625,0.734375
1630415985156,-0.703125,0.421875,0.625
1630415985187,-0.765625,0.40625,0.546875
1630415985218,-0.65625,0.4375,0.5625
1630415985250,-0.671875,0.46875,0.5
1630415985281,-0.78125,0.46875,0.453125
1630415985312,-0.84375,0.5,0.484375
1630415985343,-0.703125,0.5,0.5625
1630415985375,-0.703125,0.453125,0.578125
1630415985406,-0.453125,0.5,0.84375
1630415985437,-0.546875,0.453125,0.71875
1630415985468,-0.484375,0.453125,0.796875
1630415985500,-0.59375,0.4375,0.703125
1630415985531,-0.765625,0.40625,0.53125
1630415985562,-0.796875,0.390625,0.46875
1630415985593,-0.78125,0.359375,0.46875
1630415985625,-0.78125,0.359375,0.515625
1630415985656,-0.75,0.359375,0.546875
1630415985687,-0.734375,0.375,0.546875
1630415985718,-0.734375,0.390625,0.546875
1630415985750,-0.71875,0.40625,0.546875
1630415985781,-0.734375,0.40625,0.546875
1630415985812,-0.703125,0.421875,0.578125
1630415985843,-0.6875,0.421875,0.59375
1630415985875,-0.703125,0.40625,0.578125
1630415985906,-0.703125,0.390625,0.578125
1630415985937,-0.71875,0.390625,0.5625
1630415985968,-0.703125,0.375,0.546875
1630415986000,-0.734375,0.375,0.546875
1630415986031,-0.734375,0.375,0.546875
1630415986062,-0.75,0.375,0.546875
1630415986093,-0.734375,0.375,0.5625
1630415986125,-0.71875,0.375,0.5625
1630415986156,-0.71875,0.375,0.5625
1630415986187,-0.734375,0.375,0.5625
1630415986218,-0.734375,0.375,0.5625
1630415986250,-0.734375,0.375,0.546875
1630415986281,-0.734375,0.375,0.5625
1630415986312,-0.734375,0.375,0.546875
1630415986343,-0.734375,0.375,0.546875
1630415986375,-0.71875,0.390625,0.546875
1630415986406,-0.71875,0.390625,0.5625
1630415986437,-0.734375,0.390625,0.546875
1630415986468,-0.734375,0.390625,0.546875
1630415986500,-0.734375,0.390625,0.5625
1630415986531,-0.71875,0.390625,0.5625
1630415986562,-0.734375,0.390625,0.546875
1630415986593,-0.734375,0.390625,0.5625
1630415986625,-0.71875,0.390625,0.5625
1630415986656,-0.71875,0.390625,0.5625
1630415986687,-0.734375,0.375,0.5625
1630415986718,-0.734375,0.375,0.546875
1630415986750,-0.734375,0.375,0.546875
1630415986781,-0.734375,0.375,0.546875
1630415986812,-0.734375,0.375,0.546875
1630415986843,-0.734375,0.375,0.546875
1630415986875,-0.71875,0.375,0.5625
1630415986906,-0.734375,0.375,0.546875
1630415986937,-0.734375,0.375,0.546875
1630415986968,-0.734375,0.375,0.546875
1630415987000,-0.734375,0.375,0.5625
1630415987031,-0.734375,0.375,0.5625
1630415987062,-0.734375,0.390625,0.5625
1630415987093,-0.71875,0.390625,0.5625
1630415987125,-0.734375,0.390625,0.5625
1630415987156,-0.734375,0.375,0.5625
1630415987187,-0.734375,0.375,0.546875
1630415987218,-0.734375,0.375,0.546875
1630415987250,-0.734375,0.375,0.5625
1630415987281,-0.734375,0.375,0.546875
1630415987312,-0.734375,0.390625,0.546875
1630415987343,-0.71875,0.390625,0.5625
1630415987375,-0.734375,0.390625,0.546875
1630415987406,-0.734375,0.375,0.5625
1630415987437,-0.734375,0.375,0.5625
1630415987468,-0.734375,0.375,0.546875
1630415987500,-0.734375,0.375,0.546875
1630415987531,-0.734375,0.375,0.546875
1630415987562,-0.734375,0.375,0.546875
1630415987593,-0.734375,0.375,0.546875
1630415987625,-0.734375,0.375,0.546875
1630415987656,-0.734375,0.375,0.546875
1630415987687,-0.734375,0.375,0.546875
1630415987718,-0.734375,0.375,0.546875
1630415987750,-0.734375,0.375,0.546875
1630415987781,-0.734375,0.375,0.546875
1630415987812,-0.734375,0.375,0.546875
1630415987843,-0.734375,0.375,0.546875
1630415987875,-0.734375,0.375,0.546875
1630415987906,-0.75,0.375,0.546875
1630415987937,-0.734375,0.375,0.546875
1630415987968,-0.734375,0.375,0.546875
1630415988000,-0.734375,0.375,0.546875
1630415988031,-0.734375,0.375,0.546875
1630415988062,-0.734375,0.375,0.546875
1630415988093,-0.734375,0.375,0.546875
1630415988125,-0.734375,0.375,0.546875
1630415988156,-0.734375,0.375,0.546875
1630415988187,-0.75,0.375,0.546875
1630415988218,-0.75,0.375,0.546875
1630415988250,-0.734375,0.375,0.546875
1630415988281,-0.734375,0.375,0.546875
1630415988312,-0.734375,0.375,0.546875
1630415988343,-0.75,0.375,0.546875
1630415988375,-0.734375,0.375,0.546875
1630415988406,-0.75,0.375,0.546875
1630415988437,-0.75,0.375,0.546875
1630415988468,-0.734375,0.375,0.546875
1630415988500,-0.734375,0.375,0.546875
1630415988531,-0.734375,0.375,0.546875
1630415988562,-0.734375,0.375,0.546875
1630415988593,-0.75,0.375,0.546875
1630415988625,-0.75,0.375,0.546875
1630415988656,-0.734375,0.375,0.546875
1630415988687,-0.734375,0.375,0.546875
1630415988718,-0.734375,0.375,0.546875
1630415988750,-0.75,0.375,0.546875
1630415988781,-0.734375,0.375,0.546875
1630415988812,-0.734375,0.375,0.546875
1630415988843,-0.734375,0.375,0.546875
1630415988875,-0.734375,0.375,0.546875
1630415988906,-0.734375,0.375,0.546875
1630415988937,-0.734375,0.375,0.546875
1630415988968,-0.734375,0.375,0.5625
1630415989000,-0.734375,0.375,0.546875
1630415989031,-0.734375,0.375,0.546875
1630415989062,-0.734375,0.375,0.546875
1630415989093,-0.734375,0.375,0.546875
1630415989125,-0.734375,0.375,0.546875
1630415989156,-0.734375,0.375,0.546875
1630415989187,-0.734375,0.375,0.546875
1630415989218,-0.734375,0.375,0.546875
1630415989250,-0.734375,0.375,0.546875
1630415989281,-0.734375,0.375,0.546875
1630415989312,-0.734375,0.375,0.546875
1630415989343,-0.734375,0.375,0.546875
1630415989375,-0.734375,0.375,0.546875
1630415989406,-0.734375,0.375,0.546875
1630415989437,-0.734375,0.390625,0.546875
1630415989468,-0.734375,0.375,0.546875
1630415989500,-0.734375,0.375,0.546875
1630415989531,-0.734375,0.375,0.546875
1630415989562,-0.734375,0.375,0.546875
1630415989593,-0.734375,0.375,0.546875
1630415989625,-0.734375,0.375,0.546875
1630415989656,-0.734375,0.375,0.546875
1630415989687,-0.734375,0.375,0.546875
1630415989718,-0.734375,0.375,0.546875
1630415989750,-0.734375,0.375,0.546875
1630415989781,-0.734375,0.375,0.546875
1630415989812,-0.734375,0.375,0.546875
1630415989843,-0.734375,0.375,0.546875
1630415989875,-0.734375,0.375,0.546875
1630415989906,-0.734375,0.375,0.5625
1630415989937,-0.734375,0.375,0.546875
1630415989968,-0.734375,0.375,0.546875
1630415990000,-0.734375,0.375,0.546875
1630415990031,-0.734375,0.375,0.5625
1630415990062,-0.734375,0.375,0.546875
1630415990093,-0.734375,0.375,0.546875
1630415990125,-0.734375,0.375,0.546875
1630415990156,-0.734375,0.375,0.546875
1630415990187,-0.734375,0.390625,0.546875
1630415990218,-0.734375,0.390625,0.546875
1630415990250,-0.71875,0.375,0.546875
1630415990281,-0.734375,0.375,0.546875
1630415990312,-0.734375,0.390625,0.546875
1630415990343,-0.734375,0.375,0.546875
1630415990375,-0.734375,0.375,0.546875
1630415990406,-0.734375,0.375,0.546875
1630415990437,-0.734375,0.375,0.5625
1630415990468,-0.734375,0.375,0.546875
1630415990500,-0.734375,0.390625,0.546875
1630415990531,-0.734375,0.390625,0.546875
1630415990562,-0.734375,0.375,0.546875
1630415990593,-0.734375,0.375,0.546875
1630415990625,-0.734375,0.390625,0.546875
1630415990656,-0.734375,0.390625,0.5625
1630415990687,-0.734375,0.390625,0.546875
1630415990718,-0.734375,0.375,0.546875
1630415990750,-0.734375,0.390625,0.546875
1630415990781,-0.734375,0.390625,0.546875
1630415990812,-0.734375,0.375,0.546875
1630415990843,-0.734375,0.375,0.546875
1630415990875,-0.734375,0.375,0.546875
1630415990906,-0.734375,0.390625,0.546875
1630415990937,-0.734375,0.390625,0.546875
1630415990968,-0.734375,0.390625,0.546875
1630415991000,-0.734375,0.390625,0.546875
1630415991031,-0.734375,0.390625,0.546875
1630415991062,-0.734375,0.375,0.546875
1630415991093,-0.734375,0.375,0.546875
1630415991125,-0.734375,0.375,0.546875
1630415991156,-0.734375,0.375,0.546875
1630415991187,-0.734375,0.390625,0.546875
1630415991218,-0.734375,0.390625,0.546875
1630415991250,-0.734375,0.390625,0.5625
1630415991281,-0.734375,0.375,0.546875
1630415991312,-0.734375,0.375,0.546875
1630415991343,-0.734375,0.375,0.546875
1630415991375,-0.734375,0.375,0.546875
1630415991406,-0.734375,0.375,0.5625
1630415991437,-0.734375,0.375,0.546875
1630415991468,-0.734375,0.375,0.546875
1630415991500,-0.734375,0.390625,0.5625
1630415991531,-0.734375,0.390625,0.546875
1630415991562,-0.734375,0.375,0.546875
1630415991593,-0.734375,0.375,0.546875
1630415991625,-0.734375,0.375,0.546875
1630415991656,-0.734375,0.390625,0.546875
1630415991687,-0.734375,0.390625,0.546875
1630415991718,-0.734375,0.375,0.5625
1630415991750,-0.734375,0.390625,0.546875
1630415991781,-0.734375,0.375,0.5625
1630415991812,-0.734375,0.390625,0.546875
1630415991843,-0.734375,0.375,0.546875
1630415991875,-0.734375,0.375,0.546875
1630415991906,-0.734375,0.375,0.546875
1630415991937,-0.734375,0.390625,0.546875
1630415991968,-0.734375,0.375,0.546875
1630415992000,-0.734375,0.375,0.546875
1630415992031,-0.734375,0.390625,0.546875
1630415992062,-0.734375,0.375,0.546875
1630415992093,-0.734375,0.375,0.546875
1630415992125,-0.734375,0.375,0.546875
1630415992156,-0.734375,0.390625,0.546875
1630415992187,-0.734375,0.375,0.546875
1630415992218,-0.734375,0.375,0.5625
1630415992250,-0.734375,0.375,0.546875
1630415992281,-0.734375,0.375,0.546875
1630415992312,-0.734375,0.375,0.546875
1630415992343,-0.734375,0.375,0.546875
1630415992375,-0.734375,0.375,0.546875
1630415992406,-0.734375,0.390625,0.546875
1630415992437,-0.734375,0.390625,0.546875
1630415992468,-0.734375,0.390625,0.546875
1630415992500,-0.734375,0.390625,0.546875
1630415992531,-0.734375,0.375,0.546875
1630415992562,-0.734375,0.375,0.546875
1630415992593,-0.734375,0.375,0.546875
1630415992625,-0.734375,0.375,0.546875
1630415992656,-0.734375,0.375,0.546875
1630415992687,-0.734375,0.390625,0.546875
1630415992718,-0.734375,0.375,0.5625
1630415992750,-0.734375,0.375,0.546875
1630415992781,-0.734375,0.390625,0.546875
1630415992812,-0.734375,0.375,0.546875
1630415992843,-0.734375,0.390625,0.546875
1630415992875,-0.734375,0.375,0.546875
1630415992906,-0.734375,0.375,0.546875
1630415992937,-0.734375,0.375,0.546875
1630415992968,-0.734375,0.375,0.5625
1630415993000,-0.734375,0.390625,0.546875
1630415993031,-0.734375,0.375,0.546875
1630415993062,-0.734375,0.375,0.546875
1630415993093,-0.734375,0.375,0.546875
1630415993125,-0.734375,0.390625,0.546875
1630415993156,-0.734375,0.390625,0.546875
1630415993187,-0.734375,0.390625,0.546875
1630415993218,-0.734375,0.390625,0.546875
1630415993250,-0.734375,0.390625,0.546875
1630415993281,-0.734375,0.390625,0.546875
1630415993312,-0.734375,0.375,0.546875
1630415993343,-0.734375,0.375,0.546875
1630415993375,-0.734375,0.375,0.546875
1630415993406,-0.734375,0.375,0.546875
1630415993437,-0.734375,0.375,0.546875
1630415993468,-0.734375,0.375,0.546875
1630415993500,-0.734375,0.390625,0.546875
1630415993531,-0.734375,0.390625,0.546875
1630415993562,-0.734375,0.375,0.546875
1630415993593,-0.734375,0.375,0.546875
1630415993625,-0.734375,0.390625,0.546875
1630415993656,-0.734375,0.390625,0.546875
1630415993687,-0.734375,0.375,0.546875
1630415993718,-0.734375,0.390625,0.546875
1630415993750,-0.734375,0.390625,0.546875
1630415993781,-0.75,0.375,0.546875
1630415993812,-0.734375,0.375,0.546875
1630415993843,-0.734375,0.375,0.546875
1630415993875,-0.734375,0.390625,0.546875
1630415993906,-0.734375,0.390625,0.546875
1630415993937,-0.734375,0.390625,0.546875
1630415993968,-0.734375,0.390625,0.546875
1630415994000,-0.734375,0.375,0.546875
1630415994031,-0.734375,0.390625,0.546875
1630415994062,-0.734375,0.375,0.546875
1630415994093,-0.734375,0.375,0.546875
1630415994125,-0.734375,0.375,0.546875
1630415994156,-0.734375,0.375,0.546875
1630415994187,-0.734375,0.375,0.546875
1630415994218,-0.734375,0.390625,0.546875
1630415994250,-0.734375,0.375,0.546875
1630415994281,-0.734375,0.390625,0.546875
1630415994312,-0.734375,0.390625,0.546875
1630415994343,-0.734375,0.375,0.546875
1630415994375,-0.734375,0.390625,0.5625
1630415994406,-0.734375,0.390625,0.546875
1630415994437,-0.734375,0.375,0.546875
1630415994468,-0.734375,0.390625,0.546875
1630415994500,-0.734375,0.390625,0.546875
1630415994531,-0.734375,0.390625,0.546875
1630415994562,-0.734375,0.375,0.546875
1630415994593,-0.734375,0.390625,0.546875
1630415994625,-0.734375,0.390625,0.5625
1630415994656,-0.734375,0.390625,0.546875
1630415994687,-0.734375,0.390625,0.546875
1630415994718,-0.734375,0.390625,0.546875
1630415994750,-0.734375,0.390625,0.5625
1630415994781,-0.734375,0.390625,0.546875
1630415994812,-0.734375,0.375,0.546875
1630415994843,-0.734375,0.375,0.546875
1630415994875,-0.734375,0.390625,0.5625
1630415994906,-0.734375,0.375,0.546875
1630415994937,-0.734375,0.390625,0.5625
1630415994968,-0.734375,0.390625,0.546875
1630415995000,-0.734375,0.375,0.546875
1630415995031,-0.734375,0.375,0.546875
1630415995062,-0.734375,0.375,0.546875
1630415995093,-0.734375,0.375,0.546875
1630415995125,-0.734375,0.390625,0.546875
1630415995156,-0.734375,0.375,0.546875
1630415995187,-0.734375,0.375,0.546875
1630415995218,-0.734375,0.375,0.546875
1630415995250,-0.734375,0.390625,0.546875
1630415995281,-0.734375,0.375,0.546875
1630415995312,-0.734375,0.375,0.546875
1630415995343,-0.734375,0.375,0.546875
1630415995375,-0.734375,0.375,0.546875
1630415995406,-0.734375,0.390625,0.546875
1630415995437,-0.734375,0.390625,0.546875
1630415995468,-0.734375,0.375,0.546875
1630415995500,-0.734375,0.390625,0.546875
1630415995531,-0.734375,0.375,0.546875
1630415995562,-0.734375,0.375,0.546875
1630415995593,-0.734375,0.375,0.5625
1630415995625,-0.734375,0.375,0.546875
1630415995656,-0.734375,0.375,0.546875
1630415995687,-0.734375,0.390625,0.546875
1630415995718,-0.734375,0.390625,0.546875
1630415995750,-0.734375,0.390625,0.546875
1630415995781,-0.734375,0.390625,0.546875
1630415995812,-0.734375,0.390625,0.5625
1630415995843,-0.734375,0.375,0.546875
1630415995875,-0.734375,0.390625,0.546875
1630415995906,-0.734375,0.390625,0.546875
1630415995937,-0.734375,0.375,0.546875
1630415995968,-0.734375,0.375,0.546875
1630415996000,-0.734375,0.390625,0.546875
1630415996031,-0.734375,0.390625,0.546875
1630415996062,-0.734375,0.375,0.546875
1630415996093,-0.734375,0.375,0.546875
1630415996125,-0.734375,0.375,0.546875
1630415996156,-0.734375,0.375,0.546875
1630415996187,-0.734375,0.375,0.546875
1630415996218,-0.734375,0.375,0.546875
1630415996250,-0.734375,0.375,0.546875
1630415996281,-0.734375,0.375,0.546875
1630415996312,-0.734375,0.375,0.546875
1630415996343,-0.734375,0.375,0.546875
1630415996375,-0.734375,0.375,0.546875
1630415996406,-0.734375,0.375,0.546875
1630415996437,-0.734375,0.375,0.546875
1630415996468,-0.734375,0.375,0.546875
1630415996500,-0.734375,0.390625,0.546875
1630415996531,-0.734375,0.390625,0.546875
1630415996562,-0.734375,0.390625,0.546875
1630415996593,-0.734375,0.390625,0.546875
1630415996625,-0.734375,0.390625,0.546875
1630415996656,-0.734375,0.390625,0.546875
1630415996687,-0.734375,0.390625,0.546875
1630415996718,-0.734375,0.375,0.546875
1630415996750,-0.734375,0.375,0.546875
1630415996781,-0.734375,0.375,0.546875
1630415996812,-0.734375,0.375,0.546875
1630415996843,-0.734375,0.375,0.546875
1630415996875,-0.734375,0.375,0.546875
1630415996906,-0.734375,0.375,0.546875
1630415996937,-0.734375,0.375,0.546875
1630415996968,-0.734375,0.375,0.546875
1630415997000,-0.734375,0.375,0.546875
1630415997031,-0.734375,0.375,0.546875
1630415997062,-0.734375,0.375,0.546875
1630415997093,-0.734375,0.375,0.546875
1630415997125,-0.734375,0.375,0.546875
1630415997156,-0.734375,0.375,0.546875
1630415997187,-0.734375,0.375,0.546875
1630415997218,-0.734375,0.375,0.546875
1630415997250,-0.734375,0.375,0.546875
1630415997281,-0.734375,0.375,0.546875
1630415997312,-0.734375,0.375,0.546875
1630415997343,-0.734375,0.375,0.546875
1630415997375,-0.734375,0.375,0.546875
1630415997406,-0.734375,0.390625,0.546875
1630415997437,-0.734375,0.375,0.5625
1630415997468,-0.734375,0.375,0.546875
1630415997500,-0.734375,0.375,0.546875
1630415997531,-0.734375,0.375,0.546875
1630415997562,-0.734375,0.375,0.546875
1630415997593,-0.734375,0.375,0.546875
1630415997625,-0.734375,0.375,0.546875
1630415997656,-0.734375,0.375,0.546875
1630415997687,-0.734375,0.375,0.546875
1630415997718,-0.734375,0.375,0.546875
1630415997750,-0.734375,0.390625,0.546875
1630415997781,-0.734375,0.375,0.546875
1630415997812,-0.734375,0.375,0.5625
1630415997843,-0.734375,0.375,0.546875
1630415997875,-0.734375,0.375,0.546875
1630415997906,-0.734375,0.375,0.546875
1630415997937,-0.734375,0.375,0.546875
1630415997968,-0.734375,0.375,0.546875
1630415998000,-0.734375,0.375,0.546875
1630415998031,-0.734375,0.375,0.546875
1630415998062,-0.734375,0.375,0.546875
1630415998093,-0.734375,0.390625,0.546875
1630415998125,-0.734375,0.375,0.546875
1630415998156,-0.734375,0.375,0.546875
1630415998187,-0.734375,0.375,0.546875
1630415998218,-0.734375,0.375,0.546875
1630415998250,-0.734375,0.375,0.546875
1630415998281,-0.734375,0.375,0.546875
1630415998312,-0.734375,0.375,0.546875
1630415998343,-0.734375,0.375,0.546875
1630415998375,-0.734375,0.375,0.546875
1630415998406,-0.734375,0.375,0.546875
1630415998437,-0.734375,0.375,0.546875
1630415998468,-0.734375,0.375,0.546875
1630415998500,-0.734375,0.375,0.546875
1630415998531,-0.734375,0.375,0.546875
1630415998562,-0.734375,0.375,0.546875
1630415998593,-0.734375,0.375,0.546875
1630415998625,-0.734375,0.375,0.546875
1630415998656,-0.734375,0.375,0.546875
1630415998687,-0.734375,0.375,0.546875
1630415998718,-0.734375,0.375,0.546875
1630415998750,-0.734375,0.375,0.546875
1630415998781,-0.734375,0.375,0.546875
1630415998812,-0.734375,0.375,0.546875
1630415998843,-0.734375,0.375,0.546875
1630415998875,-0.734375,0.375,0.546875
1630415998906,-0.734375,0.375,0.546875
1630415998937,-0.734375,0.375,0.546875
1630415998968,-0.734375,0.390625,0.546875
1630415999000,-0.734375,0.375,0.546875
1630415999031,-0.75,0.375,0.546875
1630415999062,-0.734375,0.375,0.546875
1630415999093,-0.734375,0.390625,0.546875
1630415999125,-0.734375,0.390625,0.546875
1630415999156,-0.734375,0.375,0.546875
1630415999187,-0.734375,0.375,0.546875
1630415999218,-0.734375,0.390625,0.546875
1630415999250,-0.734375,0.390625,0.546875
1630415999281,-0.734375,0.390625,0.546875
1630415999312,-0.734375,0.375,0.546875
1630415999343,-0.734375,0.375,0.5625
1630415999375,-0.734375,0.375,0.546875
1630415999406,-0.734375,0.375,0.546875
1630415999437,-0.734375,0.375,0.546875
1630415999468,-0.734375,0.375,0.546875
1630415999500,-0.734375,0.375,0.546875
1630415999531,-0.734375,0.375,0.546875
1630415999562,-0.734375,0.390625,0.546875
1630415999593,-0.734375,0.390625,0.546875
1630415999625,-0.734375,0.390625,0.546875
1630415999656,-0.734375,0.375,0.546875
1630415999687,-0.734375,0.375,0.546875
1630415999718,-0.734375,0.375,0.5625
1630415999750,-0.734375,0.375,0.5625
1630415999781,-0.734375,0.375,0.546875
1630415999812,-0.734375,0.375,0.546875
1630415999843,-0.734375,0.375,0.546875
1630415999875,-0.734375,0.375,0.546875
1630415999906,-0.734375,0.375,0.546875
1630415999937,-0.734375,0.375,0.546875
1630415999968,-0.734375,0.375,0.546875
1630416000000,-0.734375,0.390625,0.546875
1630416000031,-0.734375,0.390625,0.546875
1630416000062,-0.734375,0.390625,0.546875
1630416000093,-0.734375,0.375,0.546875
1630416000125,-0.734375,0.375,0.546875
1630416000156,-0.75,0.375,0.546875
1630416000187,-0.734375,0.375,0.546875
1630416000218,-0.734375,0.375,0.546875
1630416000250,-0.734375,0.375,0.546875
1630416000281,-0.734375,0.375,0.546875
1630416000312,-0.734375,0.375,0.546875
1630416000343,-0.734375,0.375,0.546875
1630416000375,-0.734375,0.375,0.546875
1630416000406,-0.734375,0.375,0.546875
1630416000437,-0.734375,0.375,0.546875
1630416000468,-0.734375,0.375,0.546875
1630416000500,-0.734375,0.375,0.546875
1630416000531,-0.734375,0.375,0.546875
1630416000562,-0.734375,0.375,0.546875
1630416000593,-0.734375,0.375,0.546875
1630416000625,-0.734375,0.375,0.546875
1630416000656,-0.734375,0.375,0.546875
1630416000687,-0.734375,0.375,0.546875
1630416000718,-0.734375,0.375,0.546875
1630416000750,-0.734375,0.390625,0.546875
1630416000781,-0.734375,0.390625,0.546875
1630416000812,-0.734375,0.375,0.546875
1630416000843,-0.734375,0.375,0.546875
1630416000875,-0.734375,0.375,0.546875
1630416000906,-0.734375,0.375,0.546875
1630416000937,-0.734375,0.375,0.5625
1630416000968,-0.734375,0.375,0.546875
1630416001000,-0.734375,0.375,0.5625
1630416001031,-0.734375,0.375,0.546875
1630416001062,-0.734375,0.375,0.546875
1630416001093,-0.734375,0.375,0.546875
1630416001125,-0.734375,0.375,0.546875
1630416001156,-0.734375,0.375,0.546875
1630416001187,-0.734375,0.375,0.546875
1630416001218,-0.734375,0.375,0.546875
1630416001250,-0.734375,0.375,0.546875
1630416001281,-0.734375,0.375,0.546875
1630416001312,-0.734375,0.375,0.546875
1630416001343,-0.734375,0.375,0.546875
1630416001375,-0.734375,0.375,0.546875
1630416001406,-0.734375,0.390625,0.546875
1630416001437,-0.75,0.375,0.546875
1630416001468,-0.734375,0.375,0.546875
1630416001500,-0.734375,0.375,0.546875
1630416001531,-0.734375,0.375,0.546875
1630416001562,-0.734375,0.375,0.546875
1630416001593,-0.734375,0.375,0.546875
1630416001625,-0.734375,0.375,0.546875
1630416001656,-0.75,0.375,0.546875
1630416001687,-0.734375,0.375,0.546875
1630416001718,-0.75,0.375,0.546875
1630416001750,-0.75,0.375,0.546875
1630416001781,-0.734375,0.375,0.546875
1630416001812,-0.734375,0.375,0.546875
1630416001843,-0.734375,0.375,0.546875
1630416001875,-0.734375,0.375,0.546875
1630416001906,-0.734375,0.375,0.546875
1630416001937,-0.75,0.375,0.546875
1630416001968,-0.734375,0.375,0.546875
1630416002000,-0.734375,0.375,0.546875
1630416002031,-0.734375,0.375,0.546875
1630416002062,-0.734375,0.375,0.546875
1630416002093,-0.734375,0.375,0.546875
1630416002125,-0.734375,0.375,0.546875
1630416002156,-0.734375,0.375,0.546875
1630416002187,-0.734375,0.375,0.546875
1630416002218,-0.734375,0.375,0.546875
1630416002250,-0.734375,0.375,0.546875
1630416002281,-0.734375,0.375,0.546875
1630416002312,-0.734375,0.375,0.546875
1630416002343,-0.734375,0.375,0.546875
1630416002375,-0.734375,0.375,0.546875
1630416002406,-0.734375,0.375,0.546875
1630416002437,-0.734375,0.375,0.546875
1630416002468,-0.734375,0.375,0.546875
1630416002500,-0.75,0.375,0.546875
1630416002531,-0.734375,0.375,0.546875
1630416002562,-0.734375,0.375,0.546875
1630416002593,-0.734375,0.375,0.546875
1630416002625,-0.734375,0.375,0.546875
1630416002656,-0.734375,0.375,0.546875
1630416002687,-0.734375,0.375,0.546875
1630416002718,-0.734375,0.375,0.546875
1630416002750,-0.734375,0.375,0.546875
1630416002781,-0.734375,0.375,0.546875
1630416002812,-0.734375,0.375,0.546875
1630416002843,-0.734375,0.375,0.546875
1630416002875,-0.734375,0.375,0.546875
1630416002906,-0.734375,0.375,0.546875
1630416002937,-0.734375,0.375,0.546875
1630416002968,-0.734375,0.375,0.546875
1630416003000,-0.734375,0.375,0.546875
1630416003031,-0.734375,0.375,0.546875
1630416003062,-0.734375,0.390625,0.546875
1630416003093,-0.734375,0.375,0.546875
1630416003125,-0.734375,0.375,0.546875
1630416003156,-0.734375,0.375,0.546875
1630416003187,-0.734375,0.375,0.546875
1630416003218,-0.734375,0.375,0.546875
1630416003250,-0.75,0.375,0.546875
1630416003281,-0.734375,0.375,0.546875
1630416003312,-0.734375,0.375,0.546875
1630416003343,-0.734375,0.375,0.546875
1630416003375,-0.734375,0.375,0.546875
1630416003406,-0.734375,0.375,0.546875
1630416003437,-0.734375,0.375,0.546875
1630416003468,-0.734375,0.375,0.546875
1630416003500,-0.734375,0.375,0.546875
1630416003531,-0.734375,0.375,0.546875
1630416003562,-0.734375,0.375,0.546875
1630416003593,-0.734375,0.375,0.546875
1630416003625,-0.734375,0.375,0.546875
1630416003656,-0.734375,0.375,0.546875
1630416003687,-0.734375,0.375,0.5625
1630416003718,-0.734375,0.375,0.546875
1630416003750,-0.734375,0.375,0.546875
1630416003781,-0.734375,0.375,0.546875
1630416003812,-0.734375,0.375,0.546875
1630416003843,-0.734375,0.375,0.546875
1630416003875,-0.734375,0.375,0.546875
1630416003906,-0.734375,0.375,0.546875
1630416003937,-0.734375,0.375,0.546875
1630416003968,-0.75,0.375,0.546875
1630416004000,-0.734375,0.375,0.546875
1630416004031,-0.734375,0.375,0.546875
1630416004062,-0.734375,0.375,0.546875
1630416004093,-0.75,0.375,0.546875
1630416004125,-0.734375,0.375,0.546875
1630416004156,-0.734375,0.375,0.546875
1630416004187,-0.734375,0.375,0.546875
1630416004218,-0.734375,0.375,0.546875
1630416004250,-0.734375,0.375,0.546875
1630416004281,-0.734375,0.375,0.546875
1630416004312,-0.734375,0.375,0.546875
1630416004343,-0.734375,0.375,0.546875
1630416004375,-0.734375,0.375,0.546875
1630416004406,-0.734375,0.375,0.546875
1630416004437,-0.75,0.375,0.546875
1630416004468,-0.75,0.375,0.546875
1630416004500,-0.734375,0.375,0.546875
1630416004531,-0.734375,0.375,0.546875
1630416004562,-0.734375,0.390625,0.546875
1630416004593,-0.734375,0.390625,0.546875
1630416004625,-0.734375,0.375,0.546875
1630416004656,-0.734375,0.375,0.546875
1630416004687,-0.734375,0.375,0.546875
1630416004718,-0.734375,0.375,0.546875
1630416004750,-0.734375,0.375,0.546875
