timestamp,ax,ay,az
1630573698906,-0.90625,0.421875,-0.09375
1630573698937,-0.90625,0.421875,-0.09375
1630573698968,-0.90625,0.40625,-0.09375
1630573699000,-0.90625,0.40625,-0.09375
1630573699031,-0.90625,0.40625,-0.09375
1630573699062,-0.90625,0.421875,-0.09375
1630573699093,-0.90625,0.40625,-0.09375
1630573699125,-0.90625,0.421875,-0.09375
1630573699156,-0.90625,0.40625,-0.09375
1630573699187,-0.90625,0.40625,-0.09375
1630573699218,-0.90625,0.40625,-0.09375
1630573699250,-0.90625,0.40625,-0.09375
1630573699281,-0.90625,0.40625,-0.09375
1630573699312,-0.90625,0.40625,-0.09375
1630573699343,-0.90625,0.40625,-0.09375
1630573699375,-0.90625,0.40625,-0.09375
1630573699406,-0.90625,0.40625,-0.09375
1630573699437,-0.90625,0.40625,-0.09375
1630573699468,-0.90625,0.40625,-0.09375
1630573699500,-0.90625,0.40625,-0.09375
1630573699531,-0.90625,0.40625,-0.09375
1630573699562,-0.90625,0.421875,-0.09375
1630573699593,-0.90625,0.40625,-0.09375
1630573699625,-0.90625,0.40625,-0.09375
1630573699656,-0.90625,0.40625,-0.09375
1630573699687,-0.90625,0.40625,-0.09375
1630573699718,-0.90625,0.40625,-0.09375
1630573699750,-0.90625,0.40625,-0.09375
1630573699781,-0.90625,0.40625,-0.09375
1630573699812,-0.90625,0.40625,-0.09375
1630573699843,-0.90625,0.40625,-0.09375
1630573699875,-0.90625,0.40625,-0.078125
1630573699906,-0.90625,0.40625,-0.09375
1630573699937,-0.90625,0.40625,-0.09375
1630573699968,-0.90625,0.40625,-0.09375
1630573700000,-0.90625,0.40625,-0.09375
1630573700031,-0.90625,0.40625,-0.09375
1630573700062,-0.90625,0.40625,-0.09375
1630573700093,-0.90625,0.40625,-0.09375
1630573700125,-0.90625,0.40625,-0.09375
1630573700156,-0.90625,0.40625,-0.09375
1630573700187,-0.90625,0.40625,-0.09375
1630573700218,-0.90625,0.421875,-0.09375
1630573700250,-0.90625,0.40625,-0.09375
1630573700281,-0.90625,0.40625,-0.09375
1630573700312,-0.90625,0.421875,-0.09375
1630573700343,-0.90625,0.40625,-0.09375
1630573700375,-0.90625,0.40625,-0.09375
1630573700406,-0.90625,0.40625,-0.078125
1630573700437,-0.90625,0.40625,-0.09375
1630573700468,-0.90625,0.40625,-0.078125
1630573700500,-0.90625,0.421875,-0.09375
1630573700531,-0.90625,0.421875,-0.078125
1630573700562,-0.90625,0.421875,-0.09375
1630573700593,-0.90625,0.421875,-0.09375
1630573700625,-0.90625,0.40625,-0.09375
1630573700656,-0.90625,0.421875,-0.09375
1630573700687,-0.90625,0.421875,-0.09375
1630573700718,-0.90625,0.421875,-0.09375
1630573700750,-0.90625,0.421875,-0.09375
1630573700781,-0.90625,0.421875,-0.09375
1630573700812,-0.90625,0.421875,-0.09375
1630573700843,-0.90625,0.421875,-0.09375
1630573700875,-0.90625,0.421875,-0.09375
1630573700906,-0.90625,0.421875,-0.09375
1630573700937,-0.90625,0.421875,-0.09375
1630573700968,-0.90625,0.421875,-0.09375
1630573701000,-0.90625,0.421875,-0.09375
1630573701031,-0.90625,0.421875,-0.09375
1630573701062,-0.90625,0.421875,-0.09375
1630573701093,-0.90625,0.421875,-0.09375
1630573701125,-0.90625,0.421875,-0.09375
1630573701156,-0.90625,0.421875,-0.09375
1630573701187,-0.90625,0.421875,-0.09375
1630573701218,-0.90625,0.40625,-0.09375
1630573701250,-0.90625,0.40625,-0.09375
1630573701281,-0.90625,0.421875,-0.09375
1630573701312,-0.90625,0.421875,-0.09375
1630573701343,-0.90625,0.421875,-0.09375
1630573701375,-0.90625,0.421875,-0.09375
1630573701406,-0.90625,0.40625,-0.09375
1630573701437,-0.90625,0.421875,-0.09375
1630573701468,-0.90625,0.421875,-0.09375
1630573701500,-0.90625,0.421875,-0.09375
1630573701531,-0.90625,0.421875,-0.09375
1630573701562,-0.90625,0.421875,-0.09375
1630573701593,-0.90625,0.421875,-0.09375
1630573701625,-0.90625,0.421875,-0.09375
1630573701656,-0.90625,0.40625,-0.09375
1630573701687,-0.90625,0.421875,-0.09375
1630573701718,-0.90625,0.421875,-0.09375
1630573701750,-0.90625,0.421875,-0.09375
1630573701781,-0.90625,0.40625,-0.09375
1630573701812,-0.90625,0.421875,-0.09375
1630573701843,-0.90625,0.421875,-0.09375
1630573701875,-0.90625,0.421875,-0.09375
1630573701906,-0.90625,0.40625,-0.09375
1630573701937,-0.90625,0.40625,-0.09375
1630573701968,-0.90625,0.40625,-0.09375
1630573702000,-0.90625,0.421875,-0.09375
1630573702031,-0.90625,0.40625,-0.09375
1630573702062,-0.90625,0.40625,-0.09375
1630573702093,-0.90625,0.40625,-0.09375
1630573702125,-0.90625,0.40625,-0.09375
1630573702156,-0.90625,0.40625,-0.09375
1630573702187,-0.90625,0.40625,-0.09375
1630573702218,-0.90625,0.40625,-0.09375
1630573702250,-0.90625,0.40625,-0.09375
1630573702281,-0.90625,0.40625,-0.09375
1630573702312,-0.90625,0.40625,-0.09375
1630573702343,-0.90625,0.40625,-0.09375
1630573702375,-0.90625,0.40625,-0.09375
1630573702406,-0.90625,0.40625,-0.09375
1630573702437,-0.90625,0.40625,-0.09375
1630573702468,-0.90625,0.40625,-0.09375
1630573702500,-0.90625,0.40625,-0.09375
1630573702531,-0.90625,0.40625,-0.09375
1630573702562,-0.90625,0.40625,-0.09375
1630573702593,-0.90625,0.40625,-0.09375
1630573702625,-0.90625,0.40625,-0.09375
1630573702656,-0.90625,0.40625,-0.09375
1630573702687,-0.90625,0.40625,-0.09375
1630573702718,-0.90625,0.421875,-0.078125
1630573702750,-0.90625,0.40625,-0.09375
1630573702781,-0.90625,0.40625,-0.09375
1630573702812,-0.90625,0.421875,-0.09375
1630573702843,-0.90625,0.40625,-0.09375
1630573702875,-0.90625,0.40625,-0.09375
1630573702906,-0.90625,0.40625,-0.09375
1630573702937,-0.90625,0.40625,-0.09375
1630573702968,-0.90625,0.40625,-0.09375
1630573703000,-0.90625,0.40625,-0.09375
1630573703031,-0.90625,0.40625,-0.09375
1630573703062,-0.90625,0.40625,-0.09375
1630573703093,-0.90625,0.40625,-0.09375
1630573703125,-0.90625,0.40625,-0.078125
1630573703156,-0.90625,0.40625,-0.09375
1630573703187,-0.90625,0.40625,-0.09375
1630573703218,-0.90625,0.40625,-0.078125
1630573703250,-0.90625,0.40625,-0.078125
1630573703281,-0.90625,0.40625,-0.09375
1630573703312,-0.90625,0.40625,-0.09375
1630573703343,-0.90625,0.40625,-0.09375
1630573703375,-0.90625,0.40625,-0.09375
1630573703406,-0.90625,0.421875,-0.09375
1630573703437,-0.90625,0.40625,-0.09375
1630573703468,-0.90625,0.40625,-0.09375
1630573703500,-0.90625,0.40625,-0.09375
1630573703531,-0.90625,0.40625,-0.09375
1630573703562,-0.90625,0.40625,-0.09375
1630573703593,-0.90625,0.40625,-0.078125
1630573703625,-0.90625,0.40625,-0.078125
1630573703656,-0.90625,0.40625,-0.09375
1630573703687,-0.90625,0.40625,-0.09375
1630573703718,-0.90625,0.40625,-0.09375
1630573703750,-0.90625,0.40625,-0.09375
1630573703781,-0.90625,0.40625,-0.078125
1630573703812,-0.90625,0.40625,-0.078125
1630573703843,-0.90625,0.40625,-0.078125
1630573703875,-0.90625,0.40625,-0.078125
1630573703906,-0.90625,0.40625,-0.09375
1630573703937,-0.90625,0.40625,-0.078125
1630573703968,-0.90625,0.40625,-0.09375
1630573704000,-0.90625,0.40625,-0.09375
1630573704031,-0.90625,0.40625,-0.109375
1630573704062,-0.90625,0.40625,-0.109375
1630573704093,-0.90625,0.40625,-0.109375
1630573704125,-0.90625,0.40625,-0.109375
1630573704156,-0.90625,0.40625,-0.09375
1630573704187,-0.90625,0.40625,-0.09375
1630573704218,-0.90625,0.40625,-0.09375
1630573704250,-0.90625,0.40625,-0.09375
1630573704281,-0.90625,0.40625,-0.09375
1630573704312,-0.90625,0.40625,-0.09375
1630573704343,-0.90625,0.40625,-0.09375
1630573704375,-0.90625,0.40625,-0.09375
1630573704406,-0.90625,0.40625,-0.09375
1630573704437,-0.90625,0.40625,-0.09375
1630573704468,-0.90625,0.40625,-0.09375
1630573704500,-0.90625,0.40625,-0.09375
1630573704531,-0.90625,0.421875,-0.09375
1630573704562,-0.90625,0.421875,-0.09375
1630573704593,-0.90625,0.40625,-0.09375
1630573704625,-0.90625,0.40625,-0.09375
1630573704656,-0.90625,0.40625,-0.09375
1630573704687,-0.90625,0.40625,-0.09375
1630573704718,-0.90625,0.40625,-0.09375
1630573704750,-0.90625,0.421875,-0.09375
1630573704781,-0.90625,0.40625,-0.09375
1630573704812,-0.90625,0.40625,-0.09375
1630573704843,-0.90625,0.421875,-0.09375
1630573704875,-0.90625,0.40625,-0.09375
1630573704906,-0.90625,0.40625,-0.09375
1630573704937,-0.90625,0.40625,-0.09375
1630573704968,-0.90625,0.421875,-0.109375
1630573705000,-0.90625,0.40625,-0.109375
1630573705031,-0.90625,0.40625,-0.09375
1630573705062,-0.90625,0.40625,-0.09375
1630573705093,-0.90625,0.421875,-0.09375
1630573705125,-0.90625,0.421875,-0.09375
1630573705156,-0.90625,0.421875,-0.09375
1630573705187,-0.90625,0.40625,-0.09375
1630573705218,-0.90625,0.421875,-0.09375
1630573705250,-0.90625,0.40625,-0.09375
1630573705281,-0.90625,0.421875,-0.09375
1630573705312,-0.90625,0.40625,-0.09375
1630573705343,-0.90625,0.40625,-0.09375
1630573705375,-0.90625,0.40625,-0.109375
1630573705406,-0.90625,0.40625,-0.109375
1630573705437,-0.90625,0.40625,-0.09375
1630573705468,-0.90625,0.40625,-0.09375
1630573705500,-0.90625,0.421875,-0.09375
1630573705531,-0.90625,0.40625,-0.09375
1630573705562,-0.90625,0.421875,-0.109375
1630573705593,-0.90625,0.40625,-0.09375
1630573705625,-0.90625,0.40625,-0.09375
1630573705656,-0.90625,0.421875,-0.09375
1630573705687,-0.90625,0.421875,-0.09375
1630573705718,-0.90625,0.40625,-0.09375
1630573705750,-0.90625,0.40625,-0.09375
1630573705781,-0.90625,0.40625,-0.09375
1630573705812,-0.90625,0.40625,-0.09375
1630573705843,-0.90625,0.40625,-0.09375
1630573705875,-0.90625,0.40625,-0.09375
1630573705906,-0.90625,0.40625,-0.09375
1630573705937,-0.90625,0.40625,-0.09375
1630573705968,-0.90625,0.40625,-0.09375
1630573706000,-0.90625,0.40625,-0.09375
1630573706031,-0.90625,0.40625,-0.09375
1630573706062,-0.90625,0.40625,-0.09375
1630573706093,-0.90625,0.40625,-0.09375
1630573706125,-0.90625,0.40625,-0.09375
1630573706156,-0.90625,0.40625,-0.09375
1630573706187,-0.90625,0.40625,-0.09375
1630573706218,-0.90625,0.40625,-0.09375
1630573706250,-0.90625,0.40625,-0.09375
1630573706281,-0.90625,0.40625,-0.09375
1630573706312,-0.90625,0.40625,-0.09375
1630573706343,-0.90625,0.40625,-0.09375
1630573706375,-0.90625,0.40625,-0.09375
1630573706406,-0.90625,0.40625,-0.09375
1630573706437,-0.90625,0.40625,-0.09375
1630573706468,-0.90625,0.40625,-0.09375
1630573706500,-0.90625,0.40625,-0.09375
1630573706531,-0.90625,0.40625,-0.09375
1630573706562,-0.90625,0.40625,-0.09375
1630573706593,-0.90625,0.40625,-0.09375
1630573706625,-0.90625,0.40625,-0.09375
1630573706656,-0.90625,0.40625,-0.09375
1630573706687,-0.90625,0.40625,-0.09375
1630573706718,-0.90625,0.40625,-0.09375
1630573706750,-0.90625,0.40625,-0.09375
1630573706781,-0.90625,0.40625,-0.09375
1630573706812,-0.90625,0.40625,-0.09375
1630573706843,-0.90625,0.40625,-0.09375
1630573706875,-0.90625,0.40625,-0.09375
1630573706906,-0.90625,0.40625,-0.09375
1630573706937,-0.90625,0.40625,-0.09375
1630573706968,-0.90625,0.40625,-0.09375
1630573707000,-0.90625,0.40625,-0.09375
1630573707031,-0.90625,0.40625,-0.09375
1630573707062,-0.90625,0.40625,-0.09375
1630573707093,-0.90625,0.40625,-0.09375
1630573707125,-0.90625,0.40625,-0.09375
1630573707156,-0.90625,0.40625,-0.09375
1630573707187,-0.90625,0.40625,-0.09375
1630573707218,-0.90625,0.40625,-0.09375
1630573707250,-0.90625,0.40625,-0.09375
1630573707281,-0.90625,0.40625,-0.09375
1630573707312,-0.90625,0.40625,-0.09375
1630573707343,-0.90625,0.40625,-0.09375
1630573707375,-0.90625,0.40625,-0.09375
1630573707406,-0.90625,0.40625,-0.09375
1630573707437,-0.90625,0.40625,-0.09375
1630573707468,-0.90625,0.40625,-0.09375
1630573707500,-0.90625,0.40625,-0.09375
1630573707531,-0.90625,0.40625,-0.09375
1630573707562,-0.90625,0.40625,-0.09375
1630573707593,-0.90625,0.40625,-0.09375
1630573707625,-0.90625,0.40625,-0.09375
1630573707656,-0.90625,0.40625,-0.09375
1630573707687,-0.90625,0.40625,-0.09375
1630573707718,-0.90625,0.40625,-0.09375
1630573707750,-0.90625,0.40625,-0.09375
1630573707781,-0.90625,0.40625,-0.09375
1630573707812,-0.90625,0.40625,-0.09375
1630573707843,-0.90625,0.40625,-0.09375
1630573707875,-0.90625,0.40625,-0.09375
1630573707906,-0.90625,0.40625,-0.09375
1630573707937,-0.90625,0.40625,-0.09375
1630573707968,-0.90625,0.40625,-0.078125
1630573708000,-0.90625,0.40625,-0.09375
1630573708031,-0.90625,0.40625,-0.09375
1630573708062,-0.90625,0.40625,-0.09375
1630573708093,-0.90625,0.40625,-0.09375
1630573708125,-0.90625,0.40625,-0.09375
1630573708156,-0.90625,0.40625,-0.09375
1630573708187,-0.90625,0.40625,-0.09375
1630573708218,-0.90625,0.40625,-0.09375
1630573708250,-0.90625,0.40625,-0.09375
1630573708281,-0.90625,0.40625,-0.09375
1630573708312,-0.90625,0.40625,-0.09375
1630573708343,-0.90625,0.40625,-0.09375
1630573708375,-0.90625,0.40625,-0.09375
1630573708406,-0.90625,0.40625,-0.09375
1630573708437,-0.90625,0.40625,-0.09375
1630573708468,-0.90625,0.40625,-0.09375
1630573708500,-0.90625,0.40625,-0.09375
1630573708531,-0.90625,0.40625,-0.09375
1630573708562,-0.90625,0.40625,-0.09375
1630573708593,-0.90625,0.40625,-0.09375
1630573708625,-0.90625,0.40625,-0.09375
1630573708656,-0.90625,0.40625,-0.09375
1630573708687,-0.90625,0.40625,-0.09375
1630573708718,-0.90625,0.40625,-0.09375
1630573708750,-0.90625,0.40625,-0.09375
1630573708781,-0.90625,0.40625,-0.109375
1630573708812,-0.90625,0.421875,-0.09375
1630573708843,-0.90625,0.40625,-0.09375
1630573708875,-0.90625,0.40625,-0.09375
1630573708906,-0.90625,0.40625,-0.109375
1630573708937,-0.90625,0.40625,-0.09375
1630573708968,-0.90625,0.40625,-0.09375
1630573709000,-0.90625,0.40625,-0.09375
1630573709031,-0.90625,0.421875,-0.109375
1630573709062,-0.90625,0.40625,-0.09375
1630573709093,-0.90625,0.40625,-0.09375
1630573709125,-0.90625,0.421875,-0.109375
1630573709156,-0.90625,0.40625,-0.09375
1630573709187,-0.90625,0.40625,-0.09375
1630573709218,-0.90625,0.40625,-0.09375
1630573709250,-0.90625,0.40625,-0.09375
1630573709281,-0.90625,0.40625,-0.109375
1630573709312,-0.90625,0.40625,-0.09375
1630573709343,-0.90625,0.40625,-0.09375
1630573709375,-0.90625,0.421875,-0.109375
1630573709406,-0.90625,0.40625,-0.09375
1630573709437,-0.90625,0.40625,-0.09375
1630573709468,-0.90625,0.40625,-0.09375
1630573709500,-0.90625,0.421875,-0.09375
1630573709531,-0.90625,0.40625,-0.09375
1630573709562,-0.90625,0.40625,-0.109375
1630573709593,-0.90625,0.40625,-0.109375
1630573709625,-0.90625,0.40625,-0.09375
1630573709656,-0.90625,0.40625,-0.09375
1630573709687,-0.90625,0.40625,-0.09375
1630573709718,-0.90625,0.40625,-0.09375
1630573709750,-0.90625,0.40625,-0.09375
1630573709781,-0.90625,0.40625,-0.09375
1630573709812,-0.90625,0.40625,-0.09375
1630573709843,-0.90625,0.40625,-0.09375
1630573709875,-0.90625,0.40625,-0.09375
1630573709906,-0.90625,0.40625,-0.09375
1630573709937,-0.90625,0.40625,-0.09375
1630573709968,-0.90625,0.40625,-0.09375
1630573710000,-0.90625,0.40625,-0.09375
1630573710031,-0.90625,0.40625,-0.09375
1630573710062,-0.90625,0.40625,-0.09375
1630573710093,-0.90625,0.40625,-0.09375
1630573710125,-0.90625,0.40625,-0.09375
1630573710156,-0.90625,0.40625,-0.09375
1630573710187,-0.90625,0.40625,-0.09375
1630573710218,-0.90625,0.40625,-0.09375
1630573710250,-0.90625,0.40625,-0.09375
1630573710281,-0.90625,0.40625,-0.09375
1630573710312,-0.90625,0.40625,-0.09375
1630573710343,-0.90625,0.40625,-0.09375
1630573710375,-0.90625,0.40625,-0.09375
1630573710406,-0.90625,0.40625,-0.09375
1630573710437,-0.90625,0.40625,-0.09375
1630573710468,-0.90625,0.40625,-0.09375
1630573710500,-0.90625,0.40625,-0.09375
1630573710531,-0.90625,0.40625,-0.09375
1630573710562,-0.90625,0.40625,-0.09375
1630573710593,-0.90625,0.40625,-0.09375
1630573710625,-0.90625,0.40625,-0.09375
1630573710656,-0.90625,0.40625,-0.09375
1630573710687,-0.90625,0.40625,-0.09375
1630573710718,-0.90625,0.40625,-0.09375
1630573710750,-0.90625,0.40625,-0.09375
1630573710781,-0.90625,0.40625,-0.09375
1630573710812,-0.90625,0.40625,-0.09375
1630573710843,-0.90625,0.40625,-0.09375
1630573710875,-0.90625,0.40625,-0.09375
1630573710906,-0.90625,0.40625,-0.09375
1630573710937,-0.90625,0.40625,-0.09375
1630573710968,-0.90625,0.40625,-0.09375
1630573711000,-0.90625,0.40625,-0.09375
1630573711031,-0.90625,0.40625,-0.09375
1630573711062,-0.90625,0.40625,-0.09375
1630573711093,-0.90625,0.40625,-0.09375
1630573711125,-0.90625,0.40625,-0.09375
1630573711156,-0.90625,0.40625,-0.09375
1630573711187,-0.90625,0.40625,-0.09375
1630573711218,-0.90625,0.40625,-0.09375
1630573711250,-0.90625,0.40625,-0.09375
1630573711281,-0.90625,0.40625,-0.09375
1630573711312,-0.90625,0.40625,-0.09375
1630573711343,-0.90625,0.40625,-0.09375
1630573711375,-0.90625,0.40625,-0.09375
1630573711406,-0.90625,0.40625,-0.09375
1630573711437,-0.90625,0.40625,-0.09375
1630573711468,-0.90625,0.40625,-0.09375
1630573711500,-0.90625,0.40625,-0.09375
1630573711531,-0.90625,0.40625,-0.09375
1630573711562,-0.90625,0.40625,-0.09375
1630573711593,-0.90625,0.40625,-0.09375
1630573711625,-0.90625,0.40625,-0.09375
1630573711656,-0.90625,0.40625,-0.09375
1630573711687,-0.90625,0.40625,-0.09375
1630573711718,-0.90625,0.40625,-0.09375
1630573711750,-0.90625,0.40625,-0.09375
1630573711781,-0.90625,0.40625,-0.09375
1630573711812,-0.90625,0.40625,-0.09375
1630573711843,-0.90625,0.40625,-0.09375
1630573711875,-0.90625,0.40625,-0.09375
1630573711906,-0.90625,0.40625,-0.09375
1630573711937,-0.90625,0.40625,-0.09375
1630573711968,-0.90625,0.40625,-0.09375
1630573712000,-0.90625,0.40625,-0.09375
1630573712031,-0.90625,0.40625,-0.09375
1630573712062,-0.90625,0.40625,-0.09375
1630573712093,-0.90625,0.40625,-0.09375
1630573712125,-0.90625,0.40625,-0.09375
1630573712156,-0.90625,0.40625,-0.09375
1630573712187,-0.90625,0.40625,-0.09375
1630573712218,-0.90625,0.40625,-0.09375
1630573712250,-0.90625,0.40625,-0.09375
1630573712281,-0.90625,0.40625,-0.09375
1630573712312,-0.90625,0.40625,-0.09375
1630573712343,-0.90625,0.40625,-0.09375
1630573712375,-0.90625,0.40625,-0.09375
1630573712406,-0.90625,0.40625,-0.09375
1630573712437,-0.90625,0.40625,-0.09375
1630573712468,-0.90625,0.40625,-0.09375
1630573712500,-0.90625,0.40625,-0.09375
1630573712531,-0.90625,0.40625,-0.09375
1630573712562,-0.90625,0.40625,-0.09375
1630573712593,-0.90625,0.40625,-0.09375
1630573712625,-0.90625,0.40625,-0.09375
1630573712656,-0.90625,0.40625,-0.09375
1630573712687,-0.90625,0.40625,-0.09375
1630573712718,-0.90625,0.40625,-0.09375
1630573712750,-0.90625,0.40625,-0.09375
1630573712781,-0.90625,0.40625,-0.09375
1630573712812,-0.90625,0.40625,-0.09375
1630573712843,-0.90625,0.40625,-0.09375
1630573712875,-0.90625,0.40625,-0.09375
1630573712906,-0.90625,0.40625,-0.09375
1630573712937,-0.90625,0.40625,-0.09375
1630573712968,-0.90625,0.40625,-0.109375
1630573713000,-0.90625,0.40625,-0.109375
1630573713031,-0.90625,0.40625,-0.09375
1630573713062,-0.90625,0.40625,-0.09375
1630573713093,-0.90625,0.40625,-0.109375
1630573713125,-0.90625,0.40625,-0.09375
1630573713156,-0.90625,0.40625,-0.09375
1630573713187,-0.90625,0.40625,-0.109375
1630573713218,-0.90625,0.40625,-0.109375
1630573713250,-0.90625,0.40625,-0.09375
1630573713281,-0.90625,0.40625,-0.109375
1630573713312,-0.90625,0.40625,-0.09375
1630573713343,-0.90625,0.40625,-0.09375
1630573713375,-0.90625,0.40625,-0.109375
1630573713406,-0.90625,0.40625,-0.09375
1630573713437,-0.90625,0.40625,-0.09375
1630573713468,-0.90625,0.40625,-0.09375
1630573713500,-0.90625,0.40625,-0.109375
1630573713531,-0.90625,0.40625,-0.109375
1630573713562,-0.90625,0.40625,-0.109375
1630573713593,-0.90625,0.40625,-0.109375
1630573713625,-0.90625,0.40625,-0.109375
1630573713656,-0.90625,0.40625,-0.09375
1630573713687,-0.90625,0.40625,-0.109375
1630573713718,-0.90625,0.40625,-0.109375
1630573713750,-0.90625,0.40625,-0.09375
1630573713781,-0.90625,0.40625,-0.09375
1630573713812,-0.90625,0.40625,-0.109375
1630573713843,-0.90625,0.40625,-0.09375
1630573713875,-0.90625,0.40625,-0.109375
1630573713906,-0.90625,0.40625,-0.09375
1630573713937,-0.90625,0.40625,-0.09375
1630573713968,-0.90625,0.40625,-0.09375
1630573714000,-0.90625,0.40625,-0.09375
1630573714031,-0.90625,0.40625,-0.09375
1630573714062,-0.90625,0.40625,-0.09375
1630573714093,-0.90625,0.40625,-0.09375
1630573714125,-0.90625,0.40625,-0.109375
1630573714156,-0.90625,0.40625,-0.09375
1630573714187,-0.90625,0.40625,-0.09375
1630573714218,-0.90625,0.40625,-0.09375
1630573714250,-0.90625,0.40625,-0.09375
1630573714281,-0.90625,0.40625,-0.09375
1630573714312,-0.90625,0.40625,-0.09375
1630573714343,-0.90625,0.40625,-0.09375
1630573714375,-0.90625,0.40625,-0.109375
1630573714406,-0.90625,0.40625,-0.09375
1630573714437,-0.90625,0.40625,-0.09375
1630573714468,-0.90625,0.40625,-0.109375
1630573714500,-0.90625,0.40625,-0.09375
1630573714531,-0.90625,0.40625,-0.09375
1630573714562,-0.90625,0.40625,-0.09375
1630573714593,-0.90625,0.40625,-0.09375
1630573714625,-0.90625,0.40625,-0.09375
1630573714656,-0.90625,0.40625,-0.09375
1630573714687,-0.90625,0.40625,-0.09375
1630573714718,-0.90625,0.40625,-0.09375
1630573714750,-0.90625,0.40625,-0.09375
1630573714781,-0.90625,0.40625,-0.09375
1630573714812,-0.90625,0.40625,-0.109375
1630573714843,-0.921875,0.40625,-0.078125
1630573714875,-0.921875,0.40625,-0.09375
1630573714906,-0.90625,0.40625,-0.09375
1630573714937,-0.90625,0.390625,-0.046875
1630573714968,-0.90625,0.40625,-0.078125
1630573715000,-0.90625,0.40625,-0.09375
1630573715031,-0.90625,0.40625,-0.078125
1630573715062,-0.90625,0.40625,-0.078125
1630573715093,-0.921875,0.421875,-0.09375
1630573715125,-0.90625,0.40625,-0.078125
1630573715156,-0.90625,0.40625,-0.078125
1630573715187,-0.921875,0.40625,-0.09375
1630573715218,-0.90625,0.40625,-0.078125
1630573715250,-0.90625,0.40625,-0.078125
1630573715281,-0.90625,0.40625,-0.078125
1630573715312,-0.90625,0.40625,-0.09375
1630573715343,-0.90625,0.40625,-0.078125
1630573715375,-0.90625,0.40625,-0.078125
1630573715406,-0.90625,0.40625,-0.09375
1630573715437,-0.90625,0.40625,-0.09375
1630573715468,-0.90625,0.40625,-0.09375
1630573715500,-0.90625,0.40625,-0.09375
1630573715531,-0.90625,0.40625,-0.09375
1630573715562,-0.90625,0.40625,-0.078125
1630573715593,-0.90625,0.40625,-0.078125
1630573715625,-0.90625,0.40625,-0.09375
1630573715656,-0.90625,0.40625,-0.078125
1630573715687,-0.90625,0.421875,-0.09375
1630573715718,-0.90625,0.40625,-0.078125
1630573715750,-0.90625,0.421875,-0.078125
1630573715781,-0.90625,0.40625,-0.078125
1630573715812,-0.90625,0.40625,-0.078125
1630573715843,-0.90625,0.40625,-0.078125
1630573715875,-0.90625,0.40625,-0.078125
1630573715906,-0.90625,0.421875,-0.078125
1630573715937,-0.90625,0.40625,-0.09375
1630573715968,-0.90625,0.40625,-0.078125
1630573716000,-0.90625,0.40625,-0.078125
1630573716031,-0.90625,0.40625,-0.078125
1630573716062,-0.90625,0.40625,-0.078125
1630573716093,-0.90625,0.40625,-0.078125
1630573716125,-0.90625,0.40625,-0.078125
1630573716156,-0.90625,0.40625,-0.078125
1630573716187,-0.90625,0.40625,-0.078125
1630573716218,-0.90625,0.40625,-0.078125
1630573716250,-0.90625,0.40625,-0.078125
1630573716281,-0.90625,0.40625,-0.078125
1630573716312,-0.90625,0.40625,-0.078125
1630573716343,-0.90625,0.421875,-0.078125
1630573716375,-0.921875,0.40625,-0.078125
1630573716406,-0.90625,0.421875,-0.078125
1630573716437,-0.90625,0.40625,-0.078125
1630573716468,-0.90625,0.40625,-0.078125
1630573716500,-0.90625,0.40625,-0.078125
1630573716531,-0.90625,0.40625,-0.09375
1630573716562,-0.90625,0.421875,-0.078125
1630573716593,-0.90625,0.421875,-0.078125
1630573716625,-0.90625,0.40625,-0.078125
1630573716656,-0.90625,0.421875,-0.078125
1630573716687,-0.90625,0.40625,-0.078125
1630573716718,-0.90625,0.421875,-0.078125
1630573716750,-0.90625,0.421875,-0.078125
1630573716781,-0.90625,0.421875,-0.078125
1630573716812,-0.90625,0.421875,-0.078125
1630573716843,-0.90625,0.421875,-0.078125
1630573716875,-0.90625,0.40625,-0.09375
1630573716906,-0.90625,0.421875,-0.078125
1630573716937,-0.90625,0.421875,-0.078125
1630573716968,-0.90625,0.421875,-0.078125
1630573717000,-0.90625,0.421875,-0.078125
1630573717031,-0.90625,0.421875,-0.078125
1630573717062,-0.90625,0.40625,-0.09375
1630573717093,-0.90625,0.421875,-0.078125
1630573717125,-0.90625,0.40625,-0.078125
1630573717156,-0.90625,0.40625,-0.078125
1630573717187,-0.90625,0.40625,-0.078125
1630573717218,-0.90625,0.421875,-0.09375
1630573717250,-0.90625,0.421875,-0.078125
1630573717281,-0.90625,0.40625,-0.078125
1630573717312,-0.90625,0.40625,-0.078125
1630573717343,-0.90625,0.421875,-0.09375
1630573717375,-0.90625,0.421875,-0.078125
1630573717406,-0.90625,0.421875,-0.09375
1630573717437,-0.90625,0.421875,-0.078125
1630573717468,-0.90625,0.40625,-0.09375
1630573717500,-0.90625,0.421875,-0.078125
1630573717531,-0.90625,0.40625,-0.078125
1630573717562,-0.90625,0.40625,-0.09375
1630573717593,-0.90625,0.40625,-0.09375
1630573717625,-0.90625,0.40625,-0.078125
1630573717656,-0.90625,0.421875,-0.09375
1630573717687,-0.90625,0.40625,-0.09375
1630573717718,-0.90625,0.421875,-0.09375
1630573717750,-0.90625,0.421875,-0.09375
1630573717781,-0.90625,0.40625,-0.078125
1630573717812,-0.90625,0.40625,-0.09375
1630573717843,-0.90625,0.40625,-0.09375
1630573717875,-0.90625,0.40625,-0.09375
1630573717906,-0.90625,0.40625,-0.09375
1630573717937,-0.90625,0.40625,-0.09375
1630573717968,-0.90625,0.40625,-0.09375
1630573718000,-0.90625,0.40625,-0.09375
1630573718031,-0.90625,0.40625,-0.09375
1630573718062,-0.90625,0.40625,-0.09375
1630573718093,-0.90625,0.40625,-0.09375
1630573718125,-0.90625,0.40625,-0.09375
1630573718156,-0.90625,0.40625,-0.09375
1630573718187,-0.90625,0.40625,-0.09375
1630573718218,-0.90625,0.40625,-0.09375
1630573718250,-0.90625,0.40625,-0.09375
1630573718281,-0.90625,0.40625,-0.09375
1630573718312,-0.90625,0.40625,-0.09375
1630573718343,-0.90625,0.40625,-0.09375
1630573718375,-0.90625,0.40625,-0.09375
1630573718406,-0.90625,0.40625,-0.09375
1630573718437,-0.90625,0.40625,-0.09375
1630573718468,-0.90625,0.40625,-0.09375
1630573718500,-0.90625,0.40625,-0.09375
1630573718531,-0.90625,0.40625,-0.09375
1630573718562,-0.90625,0.40625,-0.09375
1630573718593,-0.90625,0.40625,-0.09375
1630573718625,-0.90625,0.40625,-0.09375
1630573718656,-0.90625,0.40625,-0.09375
1630573718687,-0.90625,0.40625,-0.09375
1630573718718,-0.90625,0.40625,-0.09375
1630573718750,-0.90625,0.40625,-0.09375
1630573718781,-0.90625,0.40625,-0.09375
1630573718812,-0.90625,0.40625,-0.09375
1630573718843,-0.90625,0.40625,-0.09375
1630573718875,-0.921875,0.40625,-0.109375
1630573718906,-0.90625,0.40625,-0.09375
1630573718937,-0.921875,0.40625,-0.109375
1630573718968,-0.90625,0.40625,-0.09375
1630573719000,-0.90625,0.40625,-0.09375
1630573719031,-0.90625,0.40625,-0.09375
1630573719062,-0.90625,0.40625,-0.09375
1630573719093,-0.90625,0.40625,-0.09375
1630573719125,-0.90625,0.40625,-0.109375
1630573719156,-0.921875,0.390625,-0.09375
1630573719187,-0.90625,0.390625,-0.09375
1630573719218,-0.90625,0.40625,-0.09375
1630573719250,-0.890625,0.421875,-0.09375
1630573719281,-0.90625,0.421875,-0.046875
1630573719312,-0.921875,0.40625,-0.125
1630573719343,-0.890625,0.40625,-0.109375
1630573719375,-0.921875,0.40625,-0.09375
1630573719406,-0.90625,0.40625,-0.09375
1630573719437,-0.90625,0.40625,-0.09375
1630573719468,-0.90625,0.40625,-0.109375
1630573719500,-0.90625,0.40625,-0.09375
1630573719531,-0.90625,0.40625,-0.109375
1630573719562,-0.90625,0.40625,-0.09375
1630573719593,-0.90625,0.40625,-0.109375
1630573719625,-0.90625,0.40625,-0.109375
1630573719656,-0.90625,0.40625,-0.109375
1630573719687,-0.90625,0.40625,-0.09375
1630573719718,-0.90625,0.40625,-0.109375
1630573719750,-0.90625,0.40625,-0.109375
1630573719781,-0.90625,0.40625,-0.109375
1630573719812,-0.90625,0.40625,-0.109375
1630573719843,-0.90625,0.40625,-0.109375
1630573719875,-0.90625,0.40625,-0.109375
1630573719906,-0.90625,0.40625,-0.125
1630573719937,-0.921875,0.40625,-0.109375
1630573719968,-0.90625,0.40625,-0.078125
1630573720000,-0.90625,0.40625,-0.09375
1630573720031,-0.90625,0.40625,-0.09375
1630573720062,-0.90625,0.40625,-0.078125
1630573720093,-0.921875,0.40625,-0.09375
1630573720125,-0.90625,0.40625,-0.09375
1630573720156,-0.90625,0.40625,-0.09375
1630573720187,-0.90625,0.40625,-0.0625
1630573720218,-0.90625,0.40625,-0.078125
1630573720250,-0.90625,0.40625,-0.109375
1630573720281,-0.90625,0.40625,-0.078125
1630573720312,-0.921875,0.40625,-0.109375
1630573720343,-0.90625,0.40625,-0.078125
1630573720375,-0.90625,0.40625,-0.09375
1630573720406,-0.90625,0.421875,-0.078125
1630573720437,-0.90625,0.40625,-0.09375
1630573720468,-0.90625,0.40625,-0.09375
1630573720500,-0.90625,0.40625,-0.09375
1630573720531,-0.90625,0.40625,-0.09375
1630573720562,-0.90625,0.421875,-0.09375
1630573720593,-0.90625,0.421875,-0.109375
1630573720625,-0.90625,0.40625,-0.109375
1630573720656,-0.90625,0.40625,-0.109375
1630573720687,-0.90625,0.421875,-0.109375
1630573720718,-0.90625,0.421875,-0.09375
1630573720750,-0.90625,0.421875,-0.109375
1630573720781,-0.90625,0.421875,-0.109375
1630573720812,-0.90625,0.40625,-0.109375
1630573720843,-0.90625,0.421875,-0.09375
1630573720875,-0.90625,0.421875,-0.125
1630573720906,-0.90625,0.40625,-0.109375
1630573720937,-0.90625,0.40625,-0.109375
1630573720968,-0.90625,0.40625,-0.09375
1630573721000,-0.90625,0.40625,-0.125
1630573721031,-0.90625,0.40625,-0.125
1630573721062,-0.90625,0.40625,-0.09375
1630573721093,-0.90625,0.40625,-0.109375
1630573721125,-0.90625,0.40625,-0.109375
1630573721156,-0.90625,0.40625,-0.109375
1630573721187,-0.90625,0.40625,-0.09375
1630573721218,-0.90625,0.40625,-0.109375
1630573721250,-0.90625,0.40625,-0.109375
1630573721281,-0.90625,0.40625,-0.09375
1630573721312,-0.90625,0.40625,-0.109375
1630573721343,-0.90625,0.40625,-0.109375
1630573721375,-0.90625,0.40625,-0.109375
1630573721406,-0.90625,0.40625,-0.109375
1630573721437,-0.90625,0.40625,-0.109375
1630573721468,-0.90625,0.40625,-0.109375
1630573721500,-0.90625,0.40625,-0.109375
1630573721531,-0.90625,0.40625,-0.109375
1630573721562,-0.90625,0.40625,-0.109375
1630573721593,-0.90625,0.40625,-0.109375
1630573721625,-0.90625,0.40625,-0.109375
1630573721656,-0.90625,0.40625,-0.109375
1630573721687,-0.90625,0.40625,-0.109375
1630573721718,-0.90625,0.40625,-0.109375
1630573721750,-0.90625,0.40625,-0.09375
1630573721781,-0.90625,0.40625,-0.109375
1630573721812,-0.90625,0.40625,-0.109375
1630573721843,-0.90625,0.40625,-0.109375
1630573721875,-0.90625,0.40625,-0.109375
1630573721906,-0.90625,0.40625,-0.109375
1630573721937,-0.90625,0.40625,-0.109375
1630573721968,-0.90625,0.40625,-0.109375
1630573722000,-0.90625,0.40625,-0.109375
1630573722031,-0.90625,0.40625,-0.109375
1630573722062,-0.90625,0.40625,-0.109375
1630573722093,-0.90625,0.40625,-0.09375
1630573722125,-0.90625,0.40625,-0.09375
1630573722156,-0.90625,0.40625,-0.09375
1630573722187,-0.90625,0.40625,-0.109375
1630573722218,-0.90625,0.40625,-0.09375
1630573722250,-0.90625,0.40625,-0.09375
1630573722281,-0.90625,0.40625,-0.109375
1630573722312,-0.90625,0.40625,-0.09375
1630573722343,-0.90625,0.40625,-0.09375
1630573722375,-0.90625,0.40625,-0.109375
1630573722406,-0.90625,0.40625,-0.09375
1630573722437,-0.90625,0.40625,-0.09375
1630573722468,-0.90625,0.40625,-0.09375
1630573722500,-0.90625,0.40625,-0.109375
1630573722531,-0.90625,0.40625,-0.09375
1630573722562,-0.921875,0.40625,-0.09375
1630573722593,-0.90625,0.40625,-0.09375
1630573722625,-0.90625,0.40625,-0.09375
1630573722656,-0.90625,0.40625,-0.09375
1630573722687,-0.90625,0.40625,-0.09375
1630573722718,-0.90625,0.40625,-0.09375
1630573722750,-0.90625,0.40625,-0.09375
1630573722781,-0.90625,0.40625,-0.09375
1630573722812,-0.90625,0.40625,-0.109375
1630573722843,-0.90625,0.40625,-0.109375
1630573722875,-0.90625,0.40625,-0.109375
1630573722906,-0.90625,0.40625,-0.09375
1630573722937,-0.90625,0.40625,-0.109375
1630573722968,-0.90625,0.40625,-0.109375
1630573723000,-0.90625,0.40625,-0.09375
1630573723031,-0.921875,0.40625,-0.109375
1630573723062,-0.90625,0.40625,-0.09375
1630573723093,-0.90625,0.40625,-0.09375
1630573723125,-0.90625,0.40625,-0.09375
1630573723156,-0.90625,0.40625,-0.109375
1630573723187,-0.90625,0.40625,-0.09375
1630573723218,-0.90625,0.40625,-0.09375
1630573723250,-0.90625,0.40625,-0.109375
1630573723281,-0.90625,0.40625,-0.09375
1630573723312,-0.90625,0.40625,-0.09375
1630573723343,-0.90625,0.40625,-0.09375
1630573723375,-0.90625,0.40625,-0.09375
1630573723406,-0.90625,0.40625,-0.09375
1630573723437,-0.90625,0.40625,-0.09375
1630573723468,-0.90625,0.40625,-0.109375
1630573723500,-0.90625,0.40625,-0.09375
1630573723531,-0.90625,0.40625,-0.09375
1630573723562,-0.90625,0.40625,-0.09375
1630573723593,-0.90625,0.40625,-0.09375
1630573723625,-0.90625,0.40625,-0.078125
1630573723656,-0.90625,0.40625,-0.09375
1630573723687,-0.90625,0.40625,-0.09375
1630573723718,-0.90625,0.40625,-0.09375
1630573723750,-0.90625,0.40625,-0.09375
1630573723781,-0.921875,0.40625,-0.09375
1630573723812,-0.90625,0.40625,-0.09375
1630573723843,-0.90625,0.40625,-0.09375
1630573723875,-0.90625,0.40625,-0.09375
1630573723906,-0.90625,0.40625,-0.09375
1630573723937,-0.90625,0.40625,-0.09375
1630573723968,-0.90625,0.40625,-0.109375
1630573724000,-0.90625,0.40625,-0.09375
1630573724031,-0.90625,0.40625,-0.09375
1630573724062,-0.90625,0.40625,-0.09375
1630573724093,-0.90625,0.40625,-0.09375
1630573724125,-0.90625,0.40625,-0.09375
1630573724156,-0.90625,0.40625,-0.09375
1630573724187,-0.90625,0.40625,-0.09375
1630573724218,-0.90625,0.40625,-0.09375
1630573724250,-0.90625,0.40625,-0.09375
1630573724281,-0.90625,0.40625,-0.09375
1630573724312,-0.90625,0.40625,-0.09375
1630573724343,-0.90625,0.40625,-0.09375
1630573724375,-0.90625,0.40625,-0.09375
1630573724406,-0.90625,0.40625,-0.09375
1630573724437,-0.90625,0.40625,-0.09375
1630573724468,-0.90625,0.40625,-0.09375
1630573724500,-0.90625,0.40625,-0.09375
1630573724531,-0.90625,0.40625,-0.09375
1630573724562,-0.90625,0.40625,-0.09375
1630573724593,-0.90625,0.40625,-0.09375
1630573724625,-0.90625,0.40625,-0.09375
1630573724656,-0.90625,0.40625,-0.109375
1630573724687,-0.90625,0.40625,-0.109375
1630573724718,-0.90625,0.40625,-0.09375
1630573724750,-0.90625,0.40625,-0.109375
1630573724781,-0.90625,0.40625,-0.109375
1630573724812,-0.90625,0.40625,-0.109375
1630573724843,-0.90625,0.40625,-0.09375
1630573724875,-0.90625,0.40625,-0.09375
1630573724906,-0.90625,0.40625,-0.109375
1630573724937,-0.90625,0.40625,-0.109375
1630573724968,-0.90625,0.40625,-0.09375
1630573725000,-0.90625,0.40625,-0.109375
1630573725031,-0.90625,0.40625,-0.109375
1630573725062,-0.90625,0.40625,-0.09375
1630573725093,-0.90625,0.40625,-0.109375
1630573725125,-0.90625,0.40625,-0.09375
1630573725156,-0.90625,0.40625,-0.109375
1630573725187,-0.921875,0.40625,-0.109375
1630573725218,-0.90625,0.40625,-0.09375
1630573725250,-0.90625,0.40625,-0.09375
1630573725281,-0.90625,0.40625,-0.109375
1630573725312,-0.90625,0.40625,-0.09375
1630573725343,-0.90625,0.40625,-0.09375
1630573725375,-0.90625,0.40625,-0.09375
1630573725406,-0.90625,0.40625,-0.09375
1630573725437,-0.90625,0.40625,-0.09375
1630573725468,-0.90625,0.40625,-0.09375
1630573725500,-0.90625,0.40625,-0.09375
1630573725531,-0.90625,0.40625,-0.09375
1630573725562,-0.90625,0.40625,-0.109375
1630573725593,-0.90625,0.40625,-0.109375
1630573725625,-0.90625,0.40625,-0.109375
1630573725656,-0.90625,0.40625,-0.109375
1630573725687,-0.90625,0.40625,-0.109375
1630573725718,-0.90625,0.40625,-0.109375
1630573725750,-0.90625,0.40625,-0.109375
1630573725781,-0.90625,0.40625,-0.109375
1630573725812,-0.90625,0.40625,-0.109375
1630573725843,-0.90625,0.40625,-0.109375
1630573725875,-0.90625,0.40625,-0.109375
1630573725906,-0.90625,0.40625,-0.09375
1630573725937,-0.90625,0.40625,-0.09375
1630573725968,-0.90625,0.40625,-0.109375
1630573726000,-0.90625,0.40625,-0.109375
1630573726031,-0.90625,0.40625,-0.09375
1630573726062,-0.90625,0.40625,-0.109375
1630573726093,-0.90625,0.40625,-0.09375
1630573726125,-0.90625,0.40625,-0.09375
1630573726156,-0.90625,0.40625,-0.09375
1630573726187,-0.90625,0.40625,-0.09375
1630573726218,-0.90625,0.40625,-0.09375
1630573726250,-0.90625,0.40625,-0.09375
1630573726281,-0.90625,0.40625,-0.09375
1630573726312,-0.90625,0.40625,-0.09375
1630573726343,-0.90625,0.40625,-0.09375
1630573726375,-0.90625,0.40625,-0.09375
1630573726406,-0.90625,0.40625,-0.109375
1630573726437,-0.90625,0.40625,-0.09375
1630573726468,-0.90625,0.40625,-0.09375
1630573726500,-0.90625,0.40625,-0.109375
1630573726531,-0.90625,0.40625,-0.109375
1630573726562,-0.90625,0.40625,-0.09375
1630573726593,-0.90625,0.40625,-0.09375
1630573726625,-0.90625,0.40625,-0.109375
1630573726656,-0.90625,0.40625,-0.09375
1630573726687,-0.90625,0.40625,-0.09375
1630573726718,-0.90625,0.40625,-0.109375
1630573726750,-0.90625,0.40625,-0.109375
1630573726781,-0.90625,0.40625,-0.09375
1630573726812,-0.90625,0.40625,-0.109375
1630573726843,-0.90625,0.40625,-0.09375
1630573726875,-0.90625,0.40625,-0.09375
1630573726906,-0.90625,0.40625,-0.09375
1630573726937,-0.90625,0.40625,-0.09375
1630573726968,-0.90625,0.40625,-0.09375
1630573727000,-0.90625,0.40625,-0.09375
1630573727031,-0.90625,0.40625,-0.09375
1630573727062,-0.90625,0.40625,-0.09375
1630573727093,-0.90625,0.40625,-0.09375
1630573727125,-0.90625,0.40625,-0.09375
1630573727156,-0.90625,0.40625,-0.09375
1630573727187,-0.90625,0.40625,-0.09375
1630573727218,-0.90625,0.40625,-0.09375
1630573727250,-0.90625,0.40625,-0.09375
1630573727281,-0.90625,0.40625,-0.09375
1630573727312,-0.90625,0.40625,-0.09375
1630573727343,-0.90625,0.40625,-0.109375
1630573727375,-0.90625,0.40625,-0.09375
1630573727406,-0.90625,0.40625,-0.09375
1630573727437,-0.90625,0.40625,-0.109375
1630573727468,-0.90625,0.40625,-0.09375
1630573727500,-0.90625,0.40625,-0.09375
1630573727531,-0.90625,0.40625,-0.09375
1630573727562,-0.90625,0.40625,-0.09375
1630573727593,-0.90625,0.40625,-0.09375
1630573727625,-0.90625,0.40625,-0.09375
1630573727656,-0.90625,0.40625,-0.09375
1630573727687,-0.90625,0.40625,-0.09375
1630573727718,-0.90625,0.40625,-0.09375
1630573727750,-0.90625,0.40625,-0.09375
1630573727781,-0.90625,0.40625,-0.09375
1630573727812,-0.90625,0.40625,-0.09375
1630573727843,-0.90625,0.40625,-0.09375
1630573727875,-0.90625,0.40625,-0.09375
1630573727906,-0.90625,0.40625,-0.09375
1630573727937,-0.90625,0.40625,-0.09375
1630573727968,-0.90625,0.40625,-0.09375
1630573728000,-0.90625,0.40625,-0.09375
1630573728031,-0.90625,0.40625,-0.09375
1630573728062,-0.90625,0.40625,-0.09375
1630573728093,-0.90625,0.40625,-0.09375
1630573728125,-0.90625,0.40625,-0.09375
1630573728156,-0.90625,0.40625,-0.09375
1630573728187,-0.90625,0.40625,-0.09375
1630573728218,-0.90625,0.40625,-0.09375
1630573728250,-0.90625,0.40625,-0.09375
1630573728281,-0.90625,0.40625,-0.09375
1630573728312,-0.90625,0.40625,-0.09375
1630573728343,-0.90625,0.40625,-0.09375
1630573728375,-0.90625,0.40625,-0.09375
1630573728406,-0.890625,0.40625,-0.09375
1630573728437,-0.921875,0.421875,-0.09375
1630573728468,-0.90625,0.40625,-0.109375
1630573728500,-0.90625,0.40625,-0.09375
1630573728531,-0.921875,0.40625,-0.109375
1630573728562,-0.90625,0.40625,-0.09375
1630573728593,-0.90625,0.40625,-0.09375
1630573728625,-0.90625,0.40625,-0.09375
1630573728656,-0.90625,0.40625,-0.09375
1630573728687,-0.90625,0.40625,-0.09375
1630573728718,-0.90625,0.40625,-0.09375
1630573728750,-0.90625,0.40625,-0.109375
1630573728781,-0.90625,0.40625,-0.09375
1630573728812,-0.90625,0.40625,-0.09375
1630573728843,-0.90625,0.40625,-0.109375
1630573728875,-0.90625,0.40625,-0.09375
1630573728906,-0.90625,0.40625,-0.09375
1630573728937,-0.90625,0.40625,-0.09375
1630573728968,-0.90625,0.40625,-0.09375
1630573729000,-0.90625,0.40625,-0.09375
1630573729031,-0.90625,0.40625,-0.09375
1630573729062,-0.90625,0.40625,-0.09375
1630573729093,-0.90625,0.40625,-0.09375
1630573729125,-0.90625,0.40625,-0.09375
1630573729156,-0.90625,0.40625,-0.09375
1630573729187,-0.90625,0.40625,-0.09375
1630573729218,-0.90625,0.40625,-0.09375
1630573729250,-0.90625,0.40625,-0.09375
1630573729281,-0.90625,0.40625,-0.09375
1630573729312,-0.90625,0.40625,-0.09375
1630573729343,-0.90625,0.40625,-0.09375
1630573729375,-0.90625,0.40625,-0.09375
1630573729406,-0.90625,0.40625,-0.09375
1630573729437,-0.90625,0.40625,-0.09375
1630573729468,-0.90625,0.40625,-0.09375
1630573729500,-0.90625,0.40625,-0.09375
1630573729531,-0.90625,0.40625,-0.09375
1630573729562,-0.90625,0.40625,-0.109375
1630573729593,-0.90625,0.40625,-0.09375
1630573729625,-0.90625,0.40625,-0.09375
1630573729656,-0.90625,0.40625,-0.109375
1630573729687,-0.90625,0.40625,-0.09375
1630573729718,-0.90625,0.40625,-0.109375
1630573729750,-0.90625,0.40625,-0.09375
1630573729781,-0.90625,0.40625,-0.09375
1630573729812,-0.90625,0.40625,-0.09375
1630573729843,-0.90625,0.40625,-0.109375
1630573729875,-0.90625,0.40625,-0.109375
1630573729906,-0.90625,0.40625,-0.109375
1630573729937,-0.921875,0.40625,-0.09375
1630573729968,-0.90625,0.40625,-0.09375
1630573730000,-0.90625,0.40625,-0.09375
1630573730031,-0.90625,0.40625,-0.109375
1630573730062,-0.90625,0.40625,-0.09375
1630573730093,-0.90625,0.40625,-0.09375
1630573730125,-0.90625,0.40625,-0.09375
1630573730156,-0.90625,0.40625,-0.09375
1630573730187,-0.90625,0.40625,-0.09375
1630573730218,-0.90625,0.40625,-0.09375
1630573730250,-0.90625,0.40625,-0.09375
1630573730281,-0.90625,0.40625,-0.09375
1630573730312,-0.90625,0.40625,-0.09375
1630573730343,-0.90625,0.40625,-0.09375
1630573730375,-0.90625,0.40625,-0.09375
1630573730406,-0.90625,0.40625,-0.078125
1630573730437,-0.90625,0.40625,-0.078125
1630573730468,-0.90625,0.40625,-0.078125
1630573730500,-0.90625,0.40625,-0.078125
1630573730531,-0.90625,0.40625,-0.09375
1630573730562,-0.90625,0.40625,-0.09375
1630573730593,-0.90625,0.40625,-0.078125
1630573730625,-0.90625,0.40625,-0.09375
1630573730656,-0.921875,0.40625,-0.09375
1630573730687,-0.90625,0.40625,-0.09375
1630573730718,-0.90625,0.40625,-0.09375
1630573730750,-0.90625,0.40625,-0.09375
1630573730781,-0.90625,0.40625,-0.09375
1630573730812,-0.90625,0.40625,-0.09375
1630573730843,-0.90625,0.40625,-0.09375
1630573730875,-0.90625,0.40625,-0.09375
1630573730906,-0.90625,0.40625,-0.09375
1630573730937,-0.90625,0.40625,-0.09375
1630573730968,-0.90625,0.40625,-0.09375
1630573731000,-0.90625,0.40625,-0.09375
1630573731031,-0.90625,0.40625,-0.09375
1630573731062,-0.90625,0.40625,-0.109375
1630573731093,-0.90625,0.40625,-0.078125
1630573731125,-0.90625,0.40625,-0.09375
1630573731156,-0.90625,0.40625,-0.09375
1630573731187,-0.90625,0.40625,-0.09375
1630573731218,-0.90625,0.40625,-0.09375
1630573731250,-0.90625,0.40625,-0.09375
1630573731281,-0.90625,0.40625,-0.09375
1630573731312,-0.90625,0.40625,-0.09375
1630573731343,-0.90625,0.40625,-0.09375
1630573731375,-0.90625,0.40625,-0.09375
1630573731406,-0.90625,0.40625,-0.09375
1630573731437,-0.90625,0.40625,-0.09375
1630573731468,-0.90625,0.40625,-0.09375
1630573731500,-0.90625,0.40625,-0.09375
1630573731531,-0.90625,0.40625,-0.09375
1630573731562,-0.90625,0.40625,-0.09375
1630573731593,-0.90625,0.40625,-0.09375
1630573731625,-0.90625,0.40625,-0.09375
1630573731656,-0.90625,0.40625,-0.09375
1630573731687,-0.90625,0.40625,-0.09375
1630573731718,-0.90625,0.40625,-0.09375
1630573731750,-0.90625,0.40625,-0.09375
1630573731781,-0.90625,0.40625,-0.09375
1630573731812,-0.90625,0.40625,-0.09375
1630573731843,-0.90625,0.40625,-0.09375
1630573731875,-0.90625,0.40625,-0.09375
1630573731906,-0.90625,0.40625,-0.09375
1630573731937,-0.90625,0.40625,-0.09375
1630573731968,-0.921875,0.40625,-0.09375
1630573732000,-0.90625,0.40625,-0.09375
1630573732031,-0.90625,0.40625,-0.09375
1630573732062,-0.90625,0.40625,-0.078125
1630573732093,-0.90625,0.40625,-0.09375
1630573732125,-0.90625,0.40625,-0.09375
1630573732156,-0.90625,0.40625,-0.09375
1630573732187,-0.90625,0.40625,-0.09375
1630573732218,-0.90625,0.40625,-0.09375
1630573732250,-0.90625,0.40625,-0.09375
1630573732281,-0.90625,0.40625,-0.09375
1630573732312,-0.90625,0.40625,-0.09375
1630573732343,-0.90625,0.40625,-0.09375
1630573732375,-0.921875,0.40625,-0.09375
1630573732406,-0.90625,0.40625,-0.09375
1630573732437,-0.90625,0.40625,-0.09375
1630573732468,-0.90625,0.40625,-0.09375
1630573732500,-0.90625,0.40625,-0.09375
1630573732531,-0.90625,0.40625,-0.09375
1630573732562,-0.90625,0.40625,-0.09375
1630573732593,-0.90625,0.40625,-0.09375
1630573732625,-0.90625,0.40625,-0.09375
1630573732656,-0.90625,0.40625,-0.09375
1630573732687,-0.90625,0.40625,-0.09375
1630573732718,-0.90625,0.40625,-0.09375
1630573732750,-0.90625,0.40625,-0.09375
1630573732781,-0.90625,0.40625,-0.109375
1630573732812,-0.90625,0.40625,-0.109375
1630573732843,-0.90625,0.40625,-0.09375
1630573732875,-0.90625,0.40625,-0.09375
1630573732906,-0.90625,0.40625,-0.09375
1630573732937,-0.90625,0.40625,-0.109375
1630573732968,-0.90625,0.40625,-0.109375
1630573733000,-0.90625,0.40625,-0.109375
1630573733031,-0.90625,0.40625,-0.09375
1630573733062,-0.90625,0.40625,-0.09375
1630573733093,-0.90625,0.40625,-0.109375
1630573733125,-0.90625,0.40625,-0.09375
1630573733156,-0.90625,0.40625,-0.109375
1630573733187,-0.90625,0.40625,-0.09375
1630573733218,-0.90625,0.40625,-0.09375
1630573733250,-0.90625,0.40625,-0.09375
1630573733281,-0.90625,0.40625,-0.09375
1630573733312,-0.90625,0.40625,-0.09375
1630573733343,-0.90625,0.40625,-0.09375
1630573733375,-0.90625,0.40625,-0.09375
1630573733406,-0.90625,0.40625,-0.09375
1630573733437,-0.90625,0.40625,-0.09375
1630573733468,-0.90625,0.40625,-0.09375
1630573733500,-0.90625,0.40625,-0.109375
1630573733531,-0.90625,0.40625,-0.09375
1630573733562,-0.90625,0.40625,-0.09375
1630573733593,-0.90625,0.40625,-0.09375
1630573733625,-0.90625,0.40625,-0.09375
1630573733656,-0.90625,0.40625,-0.09375
1630573733687,-0.90625,0.40625,-0.09375
1630573733718,-0.90625,0.40625,-0.09375
1630573733750,-0.90625,0.40625,-0.09375
1630573733781,-0.90625,0.40625,-0.09375
1630573733812,-0.90625,0.40625,-0.09375
1630573733843,-0.90625,0.40625,-0.09375
1630573733875,-0.90625,0.40625,-0.09375
1630573733906,-0.90625,0.40625,-0.09375
1630573733937,-0.90625,0.40625,-0.09375
1630573733968,-0.90625,0.40625,-0.09375
1630573734000,-0.90625,0.421875,-0.09375
1630573734031,-0.90625,0.40625,-0.09375
1630573734062,-0.90625,0.40625,-0.09375
1630573734093,-0.90625,0.40625,-0.09375
1630573734125,-0.90625,0.40625,-0.09375
1630573734156,-0.90625,0.40625,-0.09375
1630573734187,-0.90625,0.40625,-0.09375
1630573734218,-0.90625,0.40625,-0.09375
1630573734250,-0.90625,0.40625,-0.09375
1630573734281,-0.90625,0.40625,-0.09375
1630573734312,-0.90625,0.40625,-0.09375
1630573734343,-0.90625,0.40625,-0.09375
1630573734375,-0.90625,0.40625,-0.09375
1630573734406,-0.90625,0.40625,-0.09375
1630573734437,-0.90625,0.40625,-0.09375
1630573734468,-0.90625,0.40625,-0.09375
1630573734500,-0.90625,0.40625,-0.09375
1630573734531,-0.90625,0.40625,-0.09375
1630573734562,-0.90625,0.40625,-0.09375
1630573734593,-0.90625,0.40625,-0.09375
1630573734625,-0.90625,0.40625,-0.09375
1630573734656,-0.90625,0.40625,-0.09375
1630573734687,-0.90625,0.40625,-0.09375
1630573734718,-0.90625,0.40625,-0.09375
1630573734750,-0.90625,0.40625,-0.09375
1630573734781,-0.90625,0.40625,-0.09375
1630573734812,-0.90625,0.40625,-0.09375
1630573734843,-0.90625,0.40625,-0.09375
1630573734875,-0.90625,0.40625,-0.09375
1630573734906,-0.90625,0.40625,-0.09375
1630573734937,-0.90625,0.40625,-0.09375
1630573734968,-0.90625,0.40625,-0.09375
1630573735000,-0.90625,0.40625,-0.09375
1630573735031,-0.90625,0.40625,-0.09375
1630573735062,-0.90625,0.40625,-0.09375
1630573735093,-0.90625,0.40625,-0.09375
1630573735125,-0.90625,0.40625,-0.09375
1630573735156,-0.90625,0.40625,-0.09375
1630573735187,-0.90625,0.40625,-0.09375
1630573735218,-0.90625,0.40625,-0.09375
1630573735250,-0.90625,0.40625,-0.09375
1630573735281,-0.90625,0.40625,-0.09375
1630573735312,-0.90625,0.40625,-0.09375
1630573735343,-0.90625,0.40625,-0.078125
1630573735375,-0.90625,0.40625,-0.078125
1630573735406,-0.90625,0.40625,-0.09375
1630573735437,-0.90625,0.40625,-0.09375
1630573735468,-0.90625,0.40625,-0.09375
1630573735500,-0.90625,0.40625,-0.09375
1630573735531,-0.90625,0.40625,-0.09375
1630573735562,-0.90625,0.40625,-0.09375
1630573735593,-0.90625,0.40625,-0.09375
1630573735625,-0.90625,0.40625,-0.09375
1630573735656,-0.90625,0.40625,-0.09375
1630573735687,-0.90625,0.40625,-0.09375
1630573735718,-0.90625,0.40625,-0.09375
1630573735750,-0.90625,0.40625,-0.09375
1630573735781,-0.90625,0.40625,-0.09375
1630573735812,-0.90625,0.40625,-0.09375
1630573735843,-0.90625,0.40625,-0.09375
1630573735875,-0.90625,0.40625,-0.09375
1630573735906,-0.90625,0.40625,-0.09375
1630573735937,-0.90625,0.40625,-0.09375
1630573735968,-0.90625,0.40625,-0.09375
1630573736000,-0.90625,0.40625,-0.09375
1630573736031,-0.90625,0.40625,-0.09375
1630573736062,-0.90625,0.40625,-0.09375
1630573736093,-0.90625,0.40625,-0.09375
1630573736125,-0.90625,0.40625,-0.09375
1630573736156,-0.90625,0.40625,-0.09375
1630573736187,-0.90625,0.40625,-0.09375
1630573736218,-0.90625,0.40625,-0.09375
1630573736250,-0.90625,0.40625,-0.09375
1630573736281,-0.90625,0.40625,-0.09375
1630573736312,-0.90625,0.40625,-0.09375
1630573736343,-0.90625,0.40625,-0.09375
1630573736375,-0.90625,0.40625,-0.09375
1630573736406,-0.90625,0.40625,-0.09375
1630573736437,-0.90625,0.40625,-0.09375
1630573736468,-0.90625,0.40625,-0.09375
1630573736500,-0.90625,0.40625,-0.09375
1630573736531,-0.90625,0.40625,-0.09375
1630573736562,-0.90625,0.40625,-0.09375
1630573736593,-0.90625,0.40625,-0.09375
1630573736625,-0.90625,0.40625,-0.09375
1630573736656,-0.90625,0.40625,-0.09375
1630573736687,-0.90625,0.40625,-0.09375
1630573736718,-0.90625,0.40625,-0.09375
1630573736750,-0.90625,0.40625,-0.09375
1630573736781,-0.90625,0.40625,-0.09375
1630573736812,-0.90625,0.40625,-0.09375
1630573736843,-0.90625,0.40625,-0.09375
1630573736875,-0.90625,0.40625,-0.09375
1630573736906,-0.90625,0.40625,-0.09375
1630573736937,-0.90625,0.40625,-0.09375
1630573736968,-0.90625,0.40625,-0.09375
1630573737000,-0.90625,0.40625,-0.09375
1630573737031,-0.90625,0.40625,-0.09375
1630573737062,-0.90625,0.40625,-0.09375
1630573737093,-0.90625,0.40625,-0.09375
1630573737125,-0.90625,0.40625,-0.09375
1630573737156,-0.90625,0.40625,-0.09375
1630573737187,-0.90625,0.40625,-0.09375
1630573737218,-0.90625,0.40625,-0.09375
1630573737250,-0.90625,0.40625,-0.09375
1630573737281,-0.90625,0.40625,-0.09375
1630573737312,-0.90625,0.40625,-0.109375
1630573737343,-0.90625,0.40625,-0.09375
1630573737375,-0.90625,0.40625,-0.09375
1630573737406,-0.90625,0.40625,-0.109375
1630573737437,-0.90625,0.40625,-0.09375
1630573737468,-0.90625,0.40625,-0.09375
1630573737500,-0.90625,0.40625,-0.09375
1630573737531,-0.90625,0.40625,-0.09375
1630573737562,-0.90625,0.40625,-0.109375
1630573737593,-0.90625,0.40625,-0.09375
1630573737625,-0.90625,0.40625,-0.09375
1630573737656,-0.90625,0.40625,-0.109375
1630573737687,-0.90625,0.40625,-0.09375
1630573737718,-0.90625,0.40625,-0.09375
1630573737750,-0.90625,0.40625,-0.09375
1630573737781,-0.90625,0.40625,-0.09375
1630573737812,-0.90625,0.40625,-0.09375
1630573737843,-0.90625,0.40625,-0.09375
1630573737875,-0.90625,0.40625,-0.09375
1630573737906,-0.90625,0.40625,-0.09375
1630573737937,-0.90625,0.40625,-0.09375
1630573737968,-0.90625,0.40625,-0.09375
1630573738000,-0.90625,0.40625,-0.09375
1630573738031,-0.90625,0.40625,-0.09375
1630573738062,-0.90625,0.40625,-0.09375
1630573738093,-0.90625,0.40625,-0.09375
1630573738125,-0.90625,0.40625,-0.09375
1630573738156,-0.90625,0.40625,-0.09375
1630573738187,-0.90625,0.40625,-0.09375
1630573738218,-0.90625,0.40625,-0.09375
1630573738250,-0.90625,0.40625,-0.09375
1630573738281,-0.90625,0.40625,-0.09375
1630573738312,-0.90625,0.40625,-0.09375
1630573738343,-0.90625,0.40625,-0.09375
1630573738375,-0.90625,0.40625,-0.09375
1630573738406,-0.90625,0.40625,-0.09375
1630573738437,-0.90625,0.40625,-0.09375
1630573738468,-0.90625,0.40625,-0.09375
1630573738500,-0.90625,0.40625,-0.09375
1630573738531,-0.90625,0.40625,-0.09375
1630573738562,-0.90625,0.40625,-0.09375
1630573738593,-0.90625,0.40625,-0.09375
1630573738625,-0.90625,0.40625,-0.078125
1630573738656,-0.90625,0.40625,-0.09375
1630573738687,-0.90625,0.40625,-0.09375
1630573738718,-0.90625,0.40625,-0.09375
1630573738750,-0.90625,0.40625,-0.078125
1630573738781,-0.90625,0.40625,-0.09375
1630573738812,-0.90625,0.40625,-0.078125
1630573738843,-0.90625,0.40625,-0.09375
1630573738875,-0.90625,0.40625,-0.078125
1630573738906,-0.90625,0.40625,-0.078125
1630573738937,-0.90625,0.40625,-0.09375
1630573738968,-0.90625,0.40625,-0.09375
1630573739000,-0.90625,0.40625,-0.09375
1630573739031,-0.90625,0.40625,-0.09375
1630573739062,-0.90625,0.40625,-0.09375
1630573739093,-0.90625,0.40625,-0.09375
1630573739125,-0.90625,0.40625,-0.09375
1630573739156,-0.90625,0.40625,-0.09375
1630573739187,-0.90625,0.40625,-0.09375
1630573739218,-0.90625,0.40625,-0.09375
1630573739250,-0.90625,0.40625,-0.09375
1630573739281,-0.90625,0.40625,-0.09375
1630573739312,-0.90625,0.40625,-0.09375
1630573739343,-0.90625,0.40625,-0.09375
1630573739375,-0.921875,0.40625,-0.09375
1630573739406,-0.90625,0.40625,-0.09375
1630573739437,-0.90625,0.40625,-0.09375
1630573739468,-0.921875,0.40625,-0.09375
1630573739500,-0.90625,0.40625,-0.09375
1630573739531,-0.921875,0.40625,-0.09375
1630573739562,-0.90625,0.40625,-0.09375
1630573739593,-0.90625,0.40625,-0.09375
1630573739625,-0.90625,0.40625,-0.09375
1630573739656,-0.90625,0.40625,-0.09375
1630573739687,-0.90625,0.40625,-0.09375
1630573739718,-0.90625,0.40625,-0.09375
1630573739750,-0.90625,0.40625,-0.09375
1630573739781,-0.90625,0.40625,-0.09375
1630573739812,-0.90625,0.40625,-0.09375
1630573739843,-0.90625,0.40625,-0.09375
1630573739875,-0.90625,0.40625,-0.09375
1630573739906,-0.90625,0.40625,-0.09375
1630573739937,-0.90625,0.40625,-0.09375
1630573739968,-0.921875,0.40625,-0.09375
1630573740000,-0.90625,0.40625,-0.09375
1630573740031,-0.90625,0.40625,-0.09375
1630573740062,-0.90625,0.40625,-0.09375
1630573740093,-0.921875,0.40625,-0.109375
1630573740125,-0.90625,0.40625,-0.09375
1630573740156,-0.90625,0.40625,-0.09375
1630573740187,-0.90625,0.40625,-0.09375
1630573740218,-0.90625,0.40625,-0.109375
1630573740250,-0.90625,0.40625,-0.09375
1630573740281,-0.90625,0.40625,-0.09375
1630573740312,-0.90625,0.40625,-0.09375
1630573740343,-0.90625,0.40625,-0.09375
1630573740375,-0.90625,0.40625,-0.09375
1630573740406,-0.90625,0.40625,-0.109375
1630573740437,-0.90625,0.40625,-0.09375
1630573740468,-0.90625,0.40625,-0.09375
1630573740500,-0.90625,0.40625,-0.09375
1630573740531,-0.90625,0.40625,-0.09375
1630573740562,-0.90625,0.40625,-0.09375
1630573740593,-0.90625,0.40625,-0.09375
1630573740625,-0.90625,0.40625,-0.09375
1630573740656,-0.90625,0.40625,-0.09375
1630573740687,-0.90625,0.40625,-0.09375
1630573740718,-0.90625,0.40625,-0.09375
1630573740750,-0.90625,0.40625,-0.09375
1630573740781,-0.90625,0.40625,-0.09375
1630573740812,-0.90625,0.40625,-0.09375
1630573740843,-0.90625,0.40625,-0.09375
1630573740875,-0.90625,0.40625,-0.09375
1630573740906,-0.90625,0.40625,-0.09375
1630573740937,-0.90625,0.40625,-0.09375
1630573740968,-0.90625,0.40625,-0.09375
1630573741000,-0.90625,0.40625,-0.09375
1630573741031,-0.90625,0.40625,-0.109375
1630573741062,-0.90625,0.40625,-0.09375
1630573741093,-0.90625,0.40625,-0.09375
1630573741125,-0.90625,0.40625,-0.09375
1630573741156,-0.90625,0.40625,-0.09375
1630573741187,-0.90625,0.40625,-0.09375
1630573741218,-0.90625,0.40625,-0.09375
1630573741250,-0.90625,0.40625,-0.09375
1630573741281,-0.90625,0.40625,-0.09375
1630573741312,-0.90625,0.40625,-0.09375
1630573741343,-0.90625,0.40625,-0.09375
1630573741375,-0.90625,0.40625,-0.09375
1630573741406,-0.90625,0.40625,-0.09375
1630573741437,-0.90625,0.40625,-0.09375
1630573741468,-0.90625,0.40625,-0.09375
1630573741500,-0.90625,0.40625,-0.09375
1630573741531,-0.90625,0.40625,-0.09375
1630573741562,-0.90625,0.40625,-0.109375
1630573741593,-0.90625,0.40625,-0.09375
1630573741625,-0.90625,0.40625,-0.09375
1630573741656,-0.90625,0.40625,-0.09375
1630573741687,-0.90625,0.40625,-0.09375
1630573741718,-0.90625,0.40625,-0.109375
1630573741750,-0.90625,0.40625,-0.09375
1630573741781,-0.90625,0.40625,-0.09375
1630573741812,-0.90625,0.40625,-0.09375
1630573741843,-0.90625,0.40625,-0.09375
1630573741875,-0.90625,0.40625,-0.109375
1630573741906,-0.90625,0.40625,-0.09375
1630573741937,-0.90625,0.40625,-0.109375
1630573741968,-0.90625,0.40625,-0.09375
1630573742000,-0.90625,0.40625,-0.09375
1630573742031,-0.90625,0.40625,-0.09375
1630573742062,-0.90625,0.40625,-0.109375
1630573742093,-0.90625,0.40625,-0.09375
1630573742125,-0.90625,0.40625,-0.09375
1630573742156,-0.90625,0.40625,-0.09375
1630573742187,-0.90625,0.40625,-0.09375
1630573742218,-0.90625,0.40625,-0.09375
1630573742250,-0.90625,0.40625,-0.09375
1630573742281,-0.90625,0.40625,-0.09375
1630573742312,-0.90625,0.40625,-0.09375
1630573742343,-0.921875,0.40625,-0.09375
1630573742375,-0.90625,0.40625,-0.078125
1630573742406,-0.90625,0.40625,-0.09375
1630573742437,-0.90625,0.40625,-0.09375
1630573742468,-0.90625,0.40625,-0.09375
1630573742500,-0.90625,0.40625,-0.09375
1630573742531,-0.90625,0.40625,-0.09375
1630573742562,-0.90625,0.40625,-0.09375
1630573742593,-0.90625,0.40625,-0.09375
1630573742625,-0.90625,0.40625,-0.09375
1630573742656,-0.90625,0.40625,-0.09375
1630573742687,-0.90625,0.40625,-0.09375
1630573742718,-0.90625,0.40625,-0.09375
1630573742750,-0.90625,0.40625,-0.09375
1630573742781,-0.90625,0.40625,-0.09375
1630573742812,-0.90625,0.40625,-0.09375
1630573742843,-0.90625,0.40625,-0.09375
1630573742875,-0.90625,0.40625,-0.09375
1630573742906,-0.90625,0.40625,-0.09375
1630573742937,-0.90625,0.40625,-0.109375
1630573742968,-0.90625,0.40625,-0.078125
1630573743000,-0.90625,0.40625,-0.109375
1630573743031,-0.90625,0.40625,-0.09375
1630573743062,-0.90625,0.40625,-0.09375
1630573743093,-0.90625,0.40625,-0.09375
1630573743125,-0.90625,0.40625,-0.09375
1630573743156,-0.90625,0.40625,-0.09375
1630573743187,-0.90625,0.40625,-0.09375
1630573743218,-0.90625,0.40625,-0.09375
1630573743250,-0.90625,0.40625,-0.09375
1630573743281,-0.90625,0.40625,-0.09375
1630573743312,-0.90625,0.40625,-0.09375
1630573743343,-0.90625,0.40625,-0.09375
1630573743375,-0.90625,0.40625,-0.09375
1630573743406,-0.90625,0.40625,-0.09375
1630573743437,-0.90625,0.40625,-0.09375
1630573743468,-0.90625,0.40625,-0.09375
1630573743500,-0.90625,0.40625,-0.09375
1630573743531,-0.90625,0.40625,-0.09375
1630573743562,-0.90625,0.40625,-0.09375
1630573743593,-0.90625,0.40625,-0.09375
1630573743625,-0.90625,0.40625,-0.09375
1630573743656,-0.90625,0.40625,-0.09375
1630573743687,-0.90625,0.40625,-0.09375
1630573743718,-0.90625,0.40625,-0.09375
1630573743750,-0.90625,0.40625,-0.09375
1630573743781,-0.90625,0.40625,-0.09375
1630573743812,-0.90625,0.40625,-0.09375
1630573743843,-0.90625,0.40625,-0.09375
1630573743875,-0.90625,0.40625,-0.09375
1630573743906,-0.90625,0.40625,-0.09375
1630573743937,-0.90625,0.40625,-0.09375
1630573743968,-0.90625,0.40625,-0.09375
1630573744000,-0.90625,0.40625,-0.09375
1630573744031,-0.90625,0.40625,-0.09375
1630573744062,-0.90625,0.40625,-0.09375
1630573744093,-0.90625,0.40625,-0.09375
1630573744125,-0.90625,0.40625,-0.09375
1630573744156,-0.90625,0.40625,-0.09375
1630573744187,-0.90625,0.40625,-0.09375
1630573744218,-0.90625,0.40625,-0.09375
1630573744250,-0.90625,0.40625,-0.09375
1630573744281,-0.90625,0.40625,-0.09375
1630573744312,-0.90625,0.40625,-0.109375
1630573744343,-0.90625,0.40625,-0.109375
1630573744375,-0.90625,0.40625,-0.109375
1630573744406,-0.90625,0.40625,-0.09375
1630573744437,-0.90625,0.40625,-0.09375
1630573744468,-0.90625,0.40625,-0.09375
1630573744500,-0.90625,0.40625,-0.09375
1630573744531,-0.90625,0.40625,-0.09375
1630573744562,-0.90625,0.40625,-0.09375
1630573744593,-0.90625,0.40625,-0.09375
1630573744625,-0.90625,0.40625,-0.09375
1630573744656,-0.90625,0.40625,-0.09375
1630573744687,-0.90625,0.40625,-0.09375
1630573744718,-0.90625,0.40625,-0.09375
1630573744750,-0.90625,0.40625,-0.09375
1630573744781,-0.90625,0.40625,-0.109375
1630573744812,-0.90625,0.40625,-0.09375
1630573744843,-0.90625,0.40625,-0.109375
1630573744875,-0.90625,0.40625,-0.09375
1630573744906,-0.90625,0.40625,-0.09375
1630573744937,-0.90625,0.40625,-0.09375
1630573744968,-0.90625,0.40625,-0.09375
1630573745000,-0.90625,0.40625,-0.09375
1630573745031,-0.90625,0.40625,-0.109375
1630573745062,-0.90625,0.40625,-0.09375
1630573745093,-0.90625,0.40625,-0.09375
1630573745125,-0.90625,0.40625,-0.09375
1630573745156,-0.90625,0.40625,-0.09375
1630573745187,-0.90625,0.40625,-0.09375
1630573745218,-0.90625,0.40625,-0.09375
1630573745250,-0.90625,0.40625,-0.109375
1630573745281,-0.90625,0.40625,-0.09375
1630573745312,-0.90625,0.40625,-0.09375
1630573745343,-0.90625,0.40625,-0.09375
1630573745375,-0.90625,0.40625,-0.09375
1630573745406,-0.90625,0.40625,-0.09375
1630573745437,-0.90625,0.40625,-0.09375
1630573745468,-0.90625,0.40625,-0.09375
1630573745500,-0.90625,0.40625,-0.09375
1630573745531,-0.90625,0.40625,-0.09375
1630573745562,-0.90625,0.40625,-0.09375
1630573745593,-0.90625,0.40625,-0.09375
1630573745625,-0.90625,0.40625,-0.09375
1630573745656,-0.90625,0.40625,-0.09375
1630573745687,-0.90625,0.40625,-0.09375
1630573745718,-0.90625,0.40625,-0.09375
1630573745750,-0.90625,0.40625,-0.09375
1630573745781,-0.90625,0.40625,-0.09375
1630573745812,-0.90625,0.40625,-0.09375
1630573745843,-0.90625,0.40625,-0.09375
1630573745875,-0.90625,0.40625,-0.09375
1630573745906,-0.90625,0.40625,-0.09375
1630573745937,-0.90625,0.40625,-0.09375
1630573745968,-0.90625,0.40625,-0.09375
1630573746000,-0.90625,0.40625,-0.09375
1630573746031,-0.90625,0.40625,-0.09375
1630573746062,-0.90625,0.40625,-0.09375
1630573746093,-0.90625,0.40625,-0.09375
1630573746125,-0.90625,0.40625,-0.09375
1630573746156,-0.90625,0.40625,-0.09375
1630573746187,-0.90625,0.40625,-0.09375
1630573746218,-0.90625,0.40625,-0.09375
1630573746250,-0.90625,0.40625,-0.09375
1630573746281,-0.90625,0.40625,-0.09375
1630573746312,-0.90625,0.40625,-0.09375
1630573746343,-0.90625,0.40625,-0.09375
1630573746375,-0.90625,0.40625,-0.09375
1630573746406,-0.90625,0.40625,-0.09375
1630573746437,-0.90625,0.40625,-0.09375
1630573746468,-0.90625,0.40625,-0.09375
1630573746500,-0.90625,0.40625,-0.09375
1630573746531,-0.90625,0.40625,-0.09375
1630573746562,-0.90625,0.40625,-0.09375
1630573746593,-0.90625,0.40625,-0.09375
1630573746625,-0.90625,0.40625,-0.09375
1630573746656,-0.90625,0.40625,-0.09375
1630573746687,-0.90625,0.40625,-0.09375
1630573746718,-0.90625,0.40625,-0.09375
1630573746750,-0.90625,0.40625,-0.09375
1630573746781,-0.90625,0.40625,-0.09375
1630573746812,-0.90625,0.40625,-0.09375
1630573746843,-0.90625,0.40625,-0.09375
1630573746875,-0.90625,0.40625,-0.09375
1630573746906,-0.90625,0.40625,-0.09375
1630573746937,-0.90625,0.40625,-0.09375
1630573746968,-0.90625,0.40625,-0.09375
1630573747000,-0.90625,0.40625,-0.09375
1630573747031,-0.90625,0.40625,-0.09375
1630573747062,-0.90625,0.40625,-0.09375
1630573747093,-0.90625,0.40625,-0.09375
1630573747125,-0.90625,0.40625,-0.09375
1630573747156,-0.90625,0.40625,-0.09375
1630573747187,-0.90625,0.40625,-0.09375
1630573747218,-0.90625,0.40625,-0.09375
1630573747250,-0.90625,0.40625,-0.09375
1630573747281,-0.90625,0.40625,-0.09375
1630573747312,-0.90625,0.40625,-0.09375
1630573747343,-0.90625,0.40625,-0.09375
1630573747375,-0.90625,0.40625,-0.09375
1630573747406,-0.90625,0.40625,-0.09375
1630573747437,-0.90625,0.40625,-0.109375
1630573747468,-0.90625,0.40625,-0.09375
1630573747500,-0.90625,0.40625,-0.09375
1630573747531,-0.90625,0.40625,-0.09375
1630573747562,-0.90625,0.40625,-0.09375
1630573747593,-0.90625,0.40625,-0.09375
1630573747625,-0.90625,0.40625,-0.09375
1630573747656,-0.90625,0.40625,-0.09375
1630573747687,-0.90625,0.40625,-0.09375
1630573747718,-0.90625,0.40625,-0.109375
1630573747750,-0.90625,0.40625,-0.09375
1630573747781,-0.90625,0.40625,-0.109375
1630573747812,-0.90625,0.40625,-0.109375
1630573747843,-0.90625,0.40625,-0.09375
1630573747875,-0.90625,0.40625,-0.109375
1630573747906,-0.90625,0.40625,-0.09375
1630573747937,-0.90625,0.40625,-0.09375
1630573747968,-0.90625,0.40625,-0.09375
1630573748000,-0.90625,0.40625,-0.109375
1630573748031,-0.90625,0.40625,-0.09375
1630573748062,-0.90625,0.40625,-0.09375
1630573748093,-0.90625,0.40625,-0.09375
1630573748125,-0.90625,0.40625,-0.09375
1630573748156,-0.90625,0.40625,-0.09375
1630573748187,-0.90625,0.40625,-0.09375
1630573748218,-0.90625,0.40625,-0.09375
1630573748250,-0.90625,0.40625,-0.09375
1630573748281,-0.90625,0.40625,-0.09375
1630573748312,-0.90625,0.40625,-0.09375
1630573748343,-0.90625,0.40625,-0.09375
1630573748375,-0.90625,0.40625,-0.109375
1630573748406,-0.90625,0.40625,-0.09375
1630573748437,-0.90625,0.40625,-0.09375
1630573748468,-0.90625,0.40625,-0.109375
1630573748500,-0.90625,0.40625,-0.09375
1630573748531,-0.90625,0.40625,-0.09375
1630573748562,-0.90625,0.40625,-0.09375
1630573748593,-0.90625,0.40625,-0.09375
1630573748625,-0.90625,0.40625,-0.09375
1630573748656,-0.90625,0.40625,-0.09375
1630573748687,-0.90625,0.40625,-0.09375
1630573748718,-0.90625,0.40625,-0.109375
1630573748750,-0.90625,0.40625,-0.09375
1630573748781,-0.90625,0.40625,-0.109375
1630573748812,-0.90625,0.40625,-0.09375
1630573748843,-0.90625,0.40625,-0.09375
1630573748875,-0.90625,0.40625,-0.09375
1630573748906,-0.90625,0.40625,-0.109375
1630573748937,-0.90625,0.40625,-0.09375
1630573748968,-0.90625,0.40625,-0.09375
1630573749000,-0.90625,0.40625,-0.09375
1630573749031,-0.90625,0.40625,-0.09375
1630573749062,-0.90625,0.40625,-0.09375
1630573749093,-0.90625,0.40625,-0.09375
1630573749125,-0.90625,0.40625,-0.09375
1630573749156,-0.921875,0.40625,-0.109375
1630573749187,-0.921875,0.40625,-0.125
1630573749218,-0.90625,0.40625,-0.09375
1630573749250,-0.90625,0.40625,-0.109375
1630573749281,-0.90625,0.40625,-0.09375
1630573749312,-0.90625,0.40625,-0.109375
1630573749343,-0.90625,0.40625,-0.109375
1630573749375,-0.90625,0.40625,-0.09375
1630573749406,-0.90625,0.40625,-0.09375
1630573749437,-0.90625,0.40625,-0.09375
1630573749468,-0.90625,0.40625,-0.09375
1630573749500,-0.90625,0.40625,-0.109375
1630573749531,-0.90625,0.40625,-0.09375
1630573749562,-0.90625,0.40625,-0.109375
1630573749593,-0.90625,0.40625,-0.09375
1630573749625,-0.90625,0.40625,-0.09375
1630573749656,-0.90625,0.40625,-0.09375
1630573749687,-0.90625,0.40625,-0.09375
1630573749718,-0.90625,0.40625,-0.09375
1630573749750,-0.90625,0.40625,-0.09375
1630573749781,-0.90625,0.40625,-0.09375
1630573749812,-0.90625,0.40625,-0.09375
1630573749843,-0.90625,0.40625,-0.09375
1630573749875,-0.90625,0.40625,-0.09375
1630573749906,-0.90625,0.40625,-0.09375
1630573749937,-0.90625,0.40625,-0.09375
1630573749968,-0.90625,0.40625,-0.09375
1630573750000,-0.90625,0.40625,-0.09375
1630573750031,-0.90625,0.40625,-0.09375
1630573750062,-0.90625,0.40625,-0.09375
1630573750093,-0.90625,0.40625,-0.09375
1630573750125,-0.90625,0.40625,-0.09375
1630573750156,-0.90625,0.40625,-0.09375
1630573750187,-0.90625,0.40625,-0.09375
1630573750218,-0.90625,0.40625,-0.09375
1630573750250,-0.90625,0.40625,-0.09375
1630573750281,-0.921875,0.40625,-0.09375
1630573750312,-0.90625,0.40625,-0.109375
1630573750343,-0.90625,0.40625,-0.09375
1630573750375,-0.90625,0.40625,-0.09375
1630573750406,-0.90625,0.40625,-0.09375
1630573750437,-0.90625,0.40625,-0.09375
1630573750468,-0.90625,0.40625,-0.09375
1630573750500,-0.90625,0.40625,-0.09375
1630573750531,-0.90625,0.40625,-0.09375
1630573750562,-0.90625,0.40625,-0.09375
1630573750593,-0.90625,0.40625,-0.09375
1630573750625,-0.90625,0.40625,-0.09375
1630573750656,-0.921875,0.40625,-0.09375
1630573750687,-0.90625,0.40625,-0.09375
1630573750718,-0.90625,0.40625,-0.109375
1630573750750,-0.90625,0.40625,-0.109375
1630573750781,-0.90625,0.40625,-0.09375
1630573750812,-0.90625,0.40625,-0.109375
1630573750843,-0.90625,0.40625,-0.09375
1630573750875,-0.90625,0.40625,-0.09375
1630573750906,-0.90625,0.40625,-0.09375
1630573750937,-0.90625,0.40625,-0.09375
1630573750968,-0.90625,0.40625,-0.109375
1630573751000,-0.90625,0.40625,-0.09375
1630573751031,-0.90625,0.40625,-0.09375
1630573751062,-0.90625,0.40625,-0.09375
1630573751093,-0.90625,0.40625,-0.09375
1630573751125,-0.90625,0.40625,-0.09375
1630573751156,-0.90625,0.40625,-0.09375
1630573751187,-0.90625,0.40625,-0.109375
1630573751218,-0.90625,0.40625,-0.09375
1630573751250,-0.90625,0.40625,-0.09375
1630573751281,-0.90625,0.40625,-0.09375
1630573751312,-0.90625,0.40625,-0.09375
1630573751343,-0.90625,0.40625,-0.09375
1630573751375,-0.90625,0.40625,-0.09375
1630573751406,-0.90625,0.40625,-0.09375
1630573751437,-0.90625,0.40625,-0.09375
1630573751468,-0.90625,0.40625,-0.09375
1630573751500,-0.90625,0.40625,-0.09375
1630573751531,-0.90625,0.40625,-0.09375
1630573751562,-0.90625,0.40625,-0.09375
1630573751593,-0.90625,0.40625,-0.09375
1630573751625,-0.90625,0.40625,-0.09375
1630573751656,-0.90625,0.40625,-0.09375
1630573751687,-0.90625,0.40625,-0.09375
1630573751718,-0.90625,0.40625,-0.109375
1630573751750,-0.90625,0.40625,-0.109375
1630573751781,-0.90625,0.40625,-0.109375
1630573751812,-0.90625,0.40625,-0.109375
1630573751843,-0.90625,0.40625,-0.109375
1630573751875,-0.90625,0.40625,-0.109375
1630573751906,-0.90625,0.40625,-0.109375
1630573751937,-0.90625,0.40625,-0.109375
1630573751968,-0.90625,0.40625,-0.109375
1630573752000,-0.90625,0.40625,-0.109375
1630573752031,-0.90625,0.40625,-0.09375
1630573752062,-0.90625,0.40625,-0.109375
1630573752093,-0.90625,0.40625,-0.109375
1630573752125,-0.90625,0.40625,-0.109375
1630573752156,-0.90625,0.40625,-0.09375
1630573752187,-0.90625,0.40625,-0.109375
1630573752218,-0.90625,0.40625,-0.109375
1630573752250,-0.90625,0.40625,-0.109375
1630573752281,-0.90625,0.40625,-0.109375
1630573752312,-0.90625,0.40625,-0.109375
1630573752343,-0.90625,0.40625,-0.09375
1630573752375,-0.90625,0.40625,-0.109375
1630573752406,-0.90625,0.40625,-0.109375
1630573752437,-0.90625,0.40625,-0.09375
1630573752468,-0.90625,0.40625,-0.109375
1630573752500,-0.90625,0.40625,-0.09375
1630573752531,-0.90625,0.40625,-0.09375
1630573752562,-0.90625,0.40625,-0.09375
1630573752593,-0.90625,0.40625,-0.09375
1630573752625,-0.90625,0.40625,-0.09375
1630573752656,-0.90625,0.40625,-0.09375
1630573752687,-0.90625,0.40625,-0.109375
1630573752718,-0.90625,0.40625,-0.09375
1630573752750,-0.90625,0.40625,-0.09375
1630573752781,-0.90625,0.40625,-0.09375
1630573752812,-0.90625,0.40625,-0.09375
1630573752843,-0.90625,0.40625,-0.09375
1630573752875,-0.90625,0.40625,-0.09375
1630573752906,-0.90625,0.40625,-0.09375
1630573752937,-0.90625,0.40625,-0.09375
1630573752968,-0.90625,0.40625,-0.09375
1630573753000,-0.921875,0.40625,-0.09375
1630573753031,-0.90625,0.40625,-0.09375
1630573753062,-0.90625,0.40625,-0.09375
1630573753093,-0.90625,0.40625,-0.09375
1630573753125,-0.90625,0.40625,-0.09375
1630573753156,-0.90625,0.40625,-0.09375
1630573753187,-0.90625,0.40625,-0.09375
1630573753218,-0.90625,0.40625,-0.109375
1630573753250,-0.90625,0.40625,-0.09375
1630573753281,-0.90625,0.40625,-0.09375
1630573753312,-0.90625,0.40625,-0.09375
1630573753343,-0.90625,0.40625,-0.09375
1630573753375,-0.90625,0.40625,-0.09375
1630573753406,-0.90625,0.40625,-0.09375
1630573753437,-0.90625,0.40625,-0.09375
1630573753468,-0.90625,0.40625,-0.09375
1630573753500,-0.90625,0.40625,-0.09375
1630573753531,-0.90625,0.40625,-0.09375
1630573753562,-0.90625,0.40625,-0.09375
1630573753593,-0.90625,0.40625,-0.109375
1630573753625,-0.90625,0.40625,-0.09375
1630573753656,-0.90625,0.40625,-0.109375
1630573753687,-0.90625,0.40625,-0.109375
1630573753718,-0.90625,0.40625,-0.109375
1630573753750,-0.90625,0.40625,-0.109375
1630573753781,-0.90625,0.40625,-0.109375
1630573753812,-0.90625,0.40625,-0.109375
1630573753843,-0.90625,0.40625,-0.09375
1630573753875,-0.90625,0.40625,-0.09375
1630573753906,-0.90625,0.40625,-0.109375
1630573753937,-0.90625,0.40625,-0.09375
1630573753968,-0.90625,0.40625,-0.09375
1630573754000,-0.90625,0.40625,-0.09375
1630573754031,-0.90625,0.40625,-0.09375
1630573754062,-0.90625,0.40625,-0.09375
1630573754093,-0.90625,0.40625,-0.09375
1630573754125,-0.90625,0.40625,-0.09375
1630573754156,-0.90625,0.40625,-0.09375
1630573754187,-0.90625,0.40625,-0.09375
1630573754218,-0.90625,0.40625,-0.09375
1630573754250,-0.90625,0.40625,-0.09375
1630573754281,-0.90625,0.40625,-0.09375
1630573754312,-0.90625,0.40625,-0.09375
1630573754343,-0.90625,0.40625,-0.09375
1630573754375,-0.90625,0.40625,-0.09375
1630573754406,-0.90625,0.40625,-0.09375
1630573754437,-0.90625,0.40625,-0.09375
1630573754468,-0.90625,0.40625,-0.09375
1630573754500,-0.90625,0.40625,-0.09375
1630573754531,-0.90625,0.40625,-0.078125
1630573754562,-0.90625,0.40625,-0.09375
1630573754593,-0.90625,0.40625,-0.09375
1630573754625,-0.90625,0.40625,-0.09375
1630573754656,-0.90625,0.40625,-0.09375
1630573754687,-0.90625,0.40625,-0.078125
1630573754718,-0.90625,0.40625,-0.09375
1630573754750,-0.90625,0.40625,-0.09375
1630573754781,-0.90625,0.40625,-0.09375
1630573754812,-0.90625,0.40625,-0.09375
1630573754843,-0.90625,0.40625,-0.09375
1630573754875,-0.90625,0.40625,-0.09375
1630573754906,-0.90625,0.40625,-0.09375
1630573754937,-0.90625,0.40625,-0.09375
1630573754968,-0.921875,0.40625,-0.09375
1630573755000,-0.90625,0.40625,-0.09375
1630573755031,-0.90625,0.40625,-0.09375
1630573755062,-0.90625,0.40625,-0.09375
1630573755093,-0.90625,0.40625,-0.09375
1630573755125,-0.90625,0.40625,-0.09375
1630573755156,-0.90625,0.40625,-0.09375
1630573755187,-0.90625,0.40625,-0.09375
1630573755218,-0.90625,0.40625,-0.09375
1630573755250,-0.90625,0.40625,-0.09375
1630573755281,-0.90625,0.40625,-0.09375
1630573755312,-0.90625,0.40625,-0.09375
1630573755343,-0.90625,0.40625,-0.078125
1630573755375,-0.90625,0.40625,-0.09375
1630573755406,-0.90625,0.40625,-0.09375
1630573755437,-0.90625,0.40625,-0.09375
1630573755468,-0.90625,0.40625,-0.109375
1630573755500,-0.90625,0.40625,-0.09375
1630573755531,-0.90625,0.40625,-0.09375
1630573755562,-0.90625,0.40625,-0.109375
1630573755593,-0.90625,0.40625,-0.09375
1630573755625,-0.90625,0.40625,-0.09375
1630573755656,-0.90625,0.40625,-0.09375
1630573755687,-0.90625,0.40625,-0.109375
1630573755718,-0.90625,0.40625,-0.109375
1630573755750,-0.90625,0.40625,-0.09375
1630573755781,-0.90625,0.40625,-0.09375
1630573755812,-0.90625,0.40625,-0.09375
1630573755843,-0.90625,0.40625,-0.109375
1630573755875,-0.90625,0.40625,-0.109375
1630573755906,-0.90625,0.40625,-0.09375
1630573755937,-0.90625,0.40625,-0.109375
1630573755968,-0.90625,0.40625,-0.09375
1630573756000,-0.90625,0.40625,-0.109375
1630573756031,-0.90625,0.40625,-0.09375
1630573756062,-0.90625,0.40625,-0.109375
1630573756093,-0.90625,0.40625,-0.109375
1630573756125,-0.90625,0.40625,-0.109375
1630573756156,-0.90625,0.40625,-0.109375
1630573756187,-0.90625,0.40625,-0.109375
1630573756218,-0.90625,0.40625,-0.109375
1630573756250,-0.90625,0.40625,-0.109375
1630573756281,-0.90625,0.40625,-0.109375
1630573756312,-0.90625,0.40625,-0.109375
1630573756343,-0.90625,0.40625,-0.109375
1630573756375,-0.90625,0.40625,-0.109375
1630573756406,-0.90625,0.40625,-0.109375
1630573756437,-0.90625,0.40625,-0.109375
1630573756468,-0.90625,0.40625,-0.109375
1630573756500,-0.90625,0.40625,-0.109375
1630573756531,-0.90625,0.40625,-0.109375
1630573756562,-0.90625,0.40625,-0.09375
1630573756593,-0.90625,0.40625,-0.09375
1630573756625,-0.90625,0.40625,-0.09375
1630573756656,-0.90625,0.40625,-0.09375
1630573756687,-0.90625,0.40625,-0.09375
1630573756718,-0.90625,0.40625,-0.109375
1630573756750,-0.90625,0.40625,-0.09375
1630573756781,-0.90625,0.40625,-0.09375
1630573756812,-0.90625,0.40625,-0.09375
1630573756843,-0.90625,0.40625,-0.109375
1630573756875,-0.90625,0.40625,-0.09375
1630573756906,-0.90625,0.40625,-0.09375
1630573756937,-0.90625,0.40625,-0.09375
1630573756968,-0.90625,0.40625,-0.09375
1630573757000,-0.90625,0.40625,-0.09375
1630573757031,-0.90625,0.390625,-0.09375
1630573757062,-0.90625,0.40625,-0.078125
1630573757093,-0.90625,0.40625,-0.078125
1630573757125,-0.90625,0.40625,-0.09375
1630573757156,-0.90625,0.40625,-0.09375
1630573757187,-0.90625,0.40625,-0.09375
1630573757218,-0.90625,0.40625,-0.09375
1630573757250,-0.90625,0.40625,-0.09375
1630573757281,-0.90625,0.40625,-0.09375
1630573757312,-0.90625,0.40625,-0.09375
1630573757343,-0.90625,0.40625,-0.09375
1630573757375,-0.90625,0.40625,-0.09375
1630573757406,-0.90625,0.40625,-0.09375
1630573757437,-0.90625,0.40625,-0.09375
1630573757468,-0.90625,0.40625,-0.109375
1630573757500,-0.90625,0.40625,-0.09375
1630573757531,-0.90625,0.40625,-0.109375
1630573757562,-0.90625,0.40625,-0.09375
1630573757593,-0.90625,0.40625,-0.09375
1630573757625,-0.90625,0.40625,-0.109375
1630573757656,-0.90625,0.40625,-0.09375
1630573757687,-0.921875,0.40625,-0.09375
1630573757718,-0.90625,0.40625,-0.09375
1630573757750,-0.90625,0.40625,-0.09375
1630573757781,-0.90625,0.40625,-0.09375
1630573757812,-0.90625,0.40625,-0.109375
1630573757843,-0.90625,0.40625,-0.09375
1630573757875,-0.90625,0.40625,-0.09375
1630573757906,-0.90625,0.40625,-0.109375
1630573757937,-0.90625,0.40625,-0.09375
1630573757968,-0.90625,0.40625,-0.09375
1630573758000,-0.90625,0.40625,-0.09375
1630573758031,-0.90625,0.40625,-0.09375
1630573758062,-0.90625,0.40625,-0.09375
1630573758093,-0.90625,0.40625,-0.09375
1630573758125,-0.90625,0.40625,-0.09375
1630573758156,-0.90625,0.40625,-0.09375
1630573758187,-0.90625,0.40625,-0.09375
1630573758218,-0.90625,0.40625,-0.09375
1630573758250,-0.90625,0.40625,-0.09375
1630573758281,-0.90625,0.40625,-0.09375
1630573758312,-0.90625,0.40625,-0.09375
1630573758343,-0.90625,0.40625,-0.09375
1630573758375,-0.90625,0.40625,-0.09375
1630573758406,-0.90625,0.40625,-0.078125
1630573758437,-0.90625,0.40625,-0.09375
1630573758468,-0.90625,0.40625,-0.09375
1630573758500,-0.90625,0.40625,-0.09375
1630573758531,-0.90625,0.40625,-0.09375
1630573758562,-0.90625,0.40625,-0.09375
1630573758593,-0.90625,0.40625,-0.09375
1630573758625,-0.90625,0.40625,-0.09375
1630573758656,-0.90625,0.40625,-0.09375
1630573758687,-0.90625,0.40625,-0.09375
1630573758718,-0.90625,0.40625,-0.09375
1630573758750,-0.921875,0.40625,-0.109375
1630573758781,-0.90625,0.40625,-0.09375
1630573758812,-0.90625,0.40625,-0.109375
1630573758843,-0.90625,0.40625,-0.078125
1630573758875,-0.921875,0.40625,-0.09375
1630573758906,-0.90625,0.40625,-0.09375
1630573758937,-0.90625,0.40625,-0.09375
1630573758968,-0.90625,0.40625,-0.09375
1630573759000,-0.90625,0.40625,-0.09375
1630573759031,-0.90625,0.40625,-0.09375
1630573759062,-0.90625,0.40625,-0.09375
1630573759093,-0.90625,0.40625,-0.09375
1630573759125,-0.90625,0.40625,-0.09375
1630573759156,-0.90625,0.40625,-0.09375
1630573759187,-0.90625,0.40625,-0.09375
1630573759218,-0.90625,0.40625,-0.09375
1630573759250,-0.90625,0.40625,-0.09375
1630573759281,-0.90625,0.40625,-0.09375
1630573759312,-0.90625,0.40625,-0.09375
1630573759343,-0.90625,0.40625,-0.09375
1630573759375,-0.90625,0.40625,-0.09375
1630573759406,-0.90625,0.40625,-0.09375
1630573759437,-0.90625,0.40625,-0.09375
1630573759468,-0.90625,0.40625,-0.09375
1630573759500,-0.90625,0.40625,-0.09375
1630573759531,-0.90625,0.40625,-0.09375
1630573759562,-0.90625,0.40625,-0.09375
1630573759593,-0.90625,0.40625,-0.09375
1630573759625,-0.90625,0.40625,-0.109375
1630573759656,-0.90625,0.40625,-0.09375
1630573759687,-0.90625,0.40625,-0.109375
1630573759718,-0.90625,0.40625,-0.09375
1630573759750,-0.90625,0.40625,-0.09375
1630573759781,-0.90625,0.40625,-0.09375
1630573759812,-0.90625,0.40625,-0.09375
1630573759843,-0.90625,0.40625,-0.09375
1630573759875,-0.90625,0.40625,-0.109375
1630573759906,-0.90625,0.40625,-0.109375
1630573759937,-0.90625,0.40625,-0.109375
1630573759968,-0.90625,0.40625,-0.09375
1630573760000,-0.90625,0.40625,-0.09375
1630573760031,-0.90625,0.40625,-0.109375
1630573760062,-0.90625,0.40625,-0.09375
1630573760093,-0.90625,0.40625,-0.09375
1630573760125,-0.90625,0.40625,-0.09375
1630573760156,-0.90625,0.40625,-0.09375
1630573760187,-0.90625,0.40625,-0.09375
1630573760218,-0.90625,0.40625,-0.109375
1630573760250,-0.90625,0.40625,-0.109375
1630573760281,-0.90625,0.40625,-0.109375
1630573760312,-0.90625,0.40625,-0.09375
1630573760343,-0.90625,0.40625,-0.09375
1630573760375,-0.90625,0.40625,-0.09375
1630573760406,-0.90625,0.40625,-0.09375
1630573760437,-0.90625,0.40625,-0.09375
1630573760468,-0.90625,0.40625,-0.09375
1630573760500,-0.90625,0.40625,-0.09375
1630573760531,-0.90625,0.40625,-0.09375
1630573760562,-0.90625,0.40625,-0.09375
1630573760593,-0.90625,0.40625,-0.09375
1630573760625,-0.90625,0.40625,-0.09375
1630573760656,-0.90625,0.40625,-0.09375
1630573760687,-0.90625,0.40625,-0.09375
1630573760718,-0.90625,0.40625,-0.09375
1630573760750,-0.90625,0.40625,-0.109375
1630573760781,-0.90625,0.40625,-0.09375
1630573760812,-0.90625,0.40625,-0.09375
1630573760843,-0.90625,0.40625,-0.109375
1630573760875,-0.90625,0.40625,-0.109375
1630573760906,-0.90625,0.40625,-0.09375
1630573760937,-0.90625,0.40625,-0.109375
1630573760968,-0.90625,0.40625,-0.09375
1630573761000,-0.90625,0.40625,-0.09375
1630573761031,-0.90625,0.40625,-0.09375
1630573761062,-0.90625,0.40625,-0.09375
1630573761093,-0.90625,0.40625,-0.09375
1630573761125,-0.90625,0.40625,-0.09375
1630573761156,-0.90625,0.40625,-0.09375
1630573761187,-0.90625,0.40625,-0.09375
1630573761218,-0.921875,0.40625,-0.09375
1630573761250,-0.90625,0.40625,-0.09375
1630573761281,-0.921875,0.40625,-0.09375
1630573761312,-0.90625,0.40625,-0.09375
1630573761343,-0.90625,0.40625,-0.09375
1630573761375,-0.90625,0.40625,-0.09375
1630573761406,-0.90625,0.40625,-0.09375
1630573761437,-0.90625,0.40625,-0.078125
1630573761468,-0.90625,0.40625,-0.09375
1630573761500,-0.90625,0.40625,-0.09375
1630573761531,-0.90625,0.390625,-0.09375
1630573761562,-0.90625,0.40625,-0.09375
1630573761593,-0.90625,0.40625,-0.09375
1630573761625,-0.90625,0.40625,-0.09375
1630573761656,-0.90625,0.40625,-0.09375
1630573761687,-0.90625,0.40625,-0.09375
1630573761718,-0.90625,0.40625,-0.09375
1630573761750,-0.90625,0.40625,-0.09375
1630573761781,-0.90625,0.40625,-0.09375
1630573761812,-0.90625,0.40625,-0.09375
1630573761843,-0.90625,0.40625,-0.078125
1630573761875,-0.921875,0.40625,-0.09375
1630573761906,-0.90625,0.40625,-0.09375
1630573761937,-0.90625,0.40625,-0.09375
1630573761968,-0.90625,0.40625,-0.09375
1630573762000,-0.90625,0.40625,-0.078125
1630573762031,-0.90625,0.40625,-0.078125
1630573762062,-0.921875,0.40625,-0.09375
1630573762093,-0.90625,0.40625,-0.078125
1630573762125,-0.90625,0.40625,-0.078125
1630573762156,-0.90625,0.40625,-0.09375
1630573762187,-0.90625,0.40625,-0.078125
1630573762218,-0.90625,0.40625,-0.078125
1630573762250,-0.90625,0.40625,-0.09375
1630573762281,-0.90625,0.40625,-0.078125
1630573762312,-0.90625,0.40625,-0.078125
1630573762343,-0.90625,0.40625,-0.078125
1630573762375,-0.90625,0.40625,-0.09375
1630573762406,-0.90625,0.40625,-0.078125
1630573762437,-0.90625,0.40625,-0.078125
1630573762468,-0.90625,0.40625,-0.09375
1630573762500,-0.90625,0.40625,-0.078125
1630573762531,-0.90625,0.40625,-0.09375
1630573762562,-0.90625,0.40625,-0.078125
1630573762593,-0.90625,0.40625,-0.09375
1630573762625,-0.90625,0.40625,-0.078125
1630573762656,-0.90625,0.40625,-0.09375
1630573762687,-0.90625,0.40625,-0.09375
1630573762718,-0.90625,0.40625,-0.09375
1630573762750,-0.90625,0.40625,-0.09375
1630573762781,-0.90625,0.40625,-0.09375
1630573762812,-0.90625,0.40625,-0.09375
1630573762843,-0.90625,0.40625,-0.09375
1630573762875,-0.90625,0.40625,-0.109375
1630573762906,-0.90625,0.40625,-0.109375
1630573762937,-0.90625,0.40625,-0.09375
1630573762968,-0.90625,0.40625,-0.09375
1630573763000,-0.90625,0.40625,-0.09375
1630573763031,-0.90625,0.40625,-0.09375
1630573763062,-0.90625,0.40625,-0.09375
1630573763093,-0.90625,0.40625,-0.09375
1630573763125,-0.90625,0.40625,-0.09375
1630573763156,-0.90625,0.40625,-0.09375
1630573763187,-0.90625,0.40625,-0.09375
1630573763218,-0.90625,0.40625,-0.09375
1630573763250,-0.90625,0.40625,-0.09375
1630573763281,-0.90625,0.40625,-0.09375
1630573763312,-0.90625,0.40625,-0.09375
1630573763343,-0.90625,0.40625,-0.09375
1630573763375,-0.90625,0.40625,-0.09375
1630573763406,-0.90625,0.40625,-0.09375
1630573763437,-0.90625,0.40625,-0.09375
1630573763468,-0.90625,0.40625,-0.09375
1630573763500,-0.90625,0.40625,-0.09375
1630573763531,-0.90625,0.40625,-0.09375
1630573763562,-0.90625,0.40625,-0.09375
1630573763593,-0.90625,0.40625,-0.09375
1630573763625,-0.90625,0.40625,-0.109375
1630573763656,-0.90625,0.40625,-0.09375
1630573763687,-0.90625,0.40625,-0.09375
1630573763718,-0.90625,0.40625,-0.09375
1630573763750,-0.90625,0.40625,-0.09375
1630573763781,-0.90625,0.40625,-0.109375
1630573763812,-0.90625,0.40625,-0.09375
1630573763843,-0.90625,0.40625,-0.09375
1630573763875,-0.90625,0.40625,-0.09375
1630573763906,-0.90625,0.40625,-0.09375
1630573763937,-0.90625,0.40625,-0.09375
1630573763968,-0.90625,0.40625,-0.09375
1630573764000,-0.90625,0.40625,-0.09375
1630573764031,-0.90625,0.40625,-0.09375
1630573764062,-0.90625,0.40625,-0.109375
1630573764093,-0.90625,0.40625,-0.09375
1630573764125,-0.90625,0.40625,-0.09375
1630573764156,-0.90625,0.40625,-0.109375
1630573764187,-0.90625,0.40625,-0.09375
1630573764218,-0.90625,0.40625,-0.109375
1630573764250,-0.90625,0.40625,-0.09375
1630573764281,-0.90625,0.40625,-0.09375
1630573764312,-0.90625,0.40625,-0.09375
1630573764343,-0.90625,0.40625,-0.09375
1630573764375,-0.90625,0.40625,-0.09375
1630573764406,-0.90625,0.40625,-0.09375
1630573764437,-0.90625,0.40625,-0.09375
1630573764468,-0.90625,0.40625,-0.09375
1630573764500,-0.90625,0.40625,-0.09375
1630573764531,-0.90625,0.40625,-0.09375
1630573764562,-0.90625,0.40625,-0.09375
1630573764593,-0.90625,0.40625,-0.09375
1630573764625,-0.90625,0.40625,-0.09375
1630573764656,-0.90625,0.40625,-0.09375
1630573764687,-0.90625,0.40625,-0.09375
1630573764718,-0.90625,0.40625,-0.09375
1630573764750,-0.921875,0.40625,-0.09375
1630573764781,-0.90625,0.40625,-0.09375
1630573764812,-0.90625,0.40625,-0.09375
1630573764843,-0.90625,0.40625,-0.078125
1630573764875,-0.90625,0.40625,-0.09375
1630573764906,-0.90625,0.40625,-0.09375
1630573764937,-0.90625,0.40625,-0.09375
1630573764968,-0.90625,0.40625,-0.09375
1630573765000,-0.90625,0.40625,-0.09375
1630573765031,-0.90625,0.40625,-0.09375
1630573765062,-0.90625,0.40625,-0.09375
1630573765093,-0.90625,0.40625,-0.09375
1630573765125,-0.90625,0.40625,-0.09375
1630573765156,-0.90625,0.40625,-0.09375
1630573765187,-0.90625,0.40625,-0.09375
1630573765218,-0.90625,0.40625,-0.09375
1630573765250,-0.90625,0.40625,-0.09375
1630573765281,-0.90625,0.40625,-0.09375
1630573765312,-0.90625,0.40625,-0.09375
1630573765343,-0.90625,0.40625,-0.09375
1630573765375,-0.90625,0.40625,-0.09375
1630573765406,-0.90625,0.40625,-0.09375
1630573765437,-0.90625,0.40625,-0.09375
1630573765468,-0.90625,0.40625,-0.09375
1630573765500,-0.90625,0.40625,-0.09375
1630573765531,-0.90625,0.40625,-0.09375
1630573765562,-0.921875,0.40625,-0.09375
1630573765593,-0.90625,0.40625,-0.078125
1630573765625,-0.90625,0.40625,-0.09375
1630573765656,-0.90625,0.40625,-0.09375
1630573765687,-0.90625,0.40625,-0.078125
1630573765718,-0.90625,0.40625,-0.09375
1630573765750,-0.90625,0.40625,-0.078125
1630573765781,-0.921875,0.40625,-0.09375
1630573765812,-0.90625,0.40625,-0.09375
1630573765843,-0.90625,0.40625,-0.09375
1630573765875,-0.90625,0.40625,-0.09375
1630573765906,-0.90625,0.40625,-0.078125
1630573765937,-0.90625,0.40625,-0.078125
1630573765968,-0.90625,0.40625,-0.09375
1630573766000,-0.90625,0.40625,-0.078125
1630573766031,-0.90625,0.40625,-0.09375
1630573766062,-0.90625,0.40625,-0.09375
1630573766093,-0.90625,0.40625,-0.09375
1630573766125,-0.921875,0.40625,-0.09375
1630573766156,-0.90625,0.40625,-0.09375
1630573766187,-0.90625,0.40625,-0.09375
1630573766218,-0.90625,0.40625,-0.09375
1630573766250,-0.921875,0.40625,-0.09375
1630573766281,-0.921875,0.40625,-0.09375
1630573766312,-0.90625,0.40625,-0.078125
1630573766343,-0.90625,0.40625,-0.09375
1630573766375,-0.90625,0.40625,-0.09375
1630573766406,-0.90625,0.40625,-0.09375
1630573766437,-0.90625,0.40625,-0.09375
1630573766468,-0.90625,0.40625,-0.09375
1630573766500,-0.90625,0.40625,-0.078125
1630573766531,-0.90625,0.40625,-0.09375
1630573766562,-0.90625,0.40625,-0.09375
1630573766593,-0.90625,0.40625,-0.09375
1630573766625,-0.921875,0.40625,-0.078125
1630573766656,-0.90625,0.40625,-0.078125
1630573766687,-0.90625,0.40625,-0.078125
1630573766718,-0.90625,0.40625,-0.078125
1630573766750,-0.90625,0.40625,-0.078125
1630573766781,-0.90625,0.40625,-0.09375
1630573766812,-0.90625,0.40625,-0.09375
1630573766843,-0.90625,0.40625,-0.09375
1630573766875,-0.90625,0.40625,-0.078125
1630573766906,-0.90625,0.40625,-0.078125
1630573766937,-0.90625,0.40625,-0.09375
1630573766968,-0.90625,0.40625,-0.09375
1630573767000,-0.90625,0.40625,-0.09375
1630573767031,-0.90625,0.40625,-0.09375
1630573767062,-0.90625,0.40625,-0.09375
1630573767093,-0.90625,0.40625,-0.09375
1630573767125,-0.90625,0.40625,-0.09375
1630573767156,-0.90625,0.40625,-0.09375
1630573767187,-0.90625,0.40625,-0.09375
1630573767218,-0.90625,0.40625,-0.078125
1630573767250,-0.921875,0.40625,-0.109375
1630573767281,-0.90625,0.40625,-0.09375
1630573767312,-0.90625,0.40625,-0.09375
1630573767343,-0.90625,0.40625,-0.09375
1630573767375,-0.90625,0.40625,-0.09375
1630573767406,-0.90625,0.40625,-0.09375
1630573767437,-0.90625,0.40625,-0.09375
1630573767468,-0.90625,0.40625,-0.09375
1630573767500,-0.90625,0.40625,-0.09375
1630573767531,-0.90625,0.40625,-0.09375
1630573767562,-0.90625,0.40625,-0.09375
1630573767593,-0.90625,0.40625,-0.09375
1630573767625,-0.90625,0.40625,-0.09375
1630573767656,-0.90625,0.40625,-0.09375
1630573767687,-0.90625,0.40625,-0.09375
1630573767718,-0.90625,0.40625,-0.09375
1630573767750,-0.90625,0.40625,-0.09375
1630573767781,-0.90625,0.40625,-0.09375
1630573767812,-0.90625,0.40625,-0.09375
1630573767843,-0.90625,0.40625,-0.09375
1630573767875,-0.90625,0.40625,-0.09375
1630573767906,-0.90625,0.40625,-0.09375
1630573767937,-0.90625,0.40625,-0.09375
1630573767968,-0.90625,0.40625,-0.09375
1630573768000,-0.90625,0.40625,-0.09375
1630573768031,-0.90625,0.40625,-0.09375
1630573768062,-0.90625,0.40625,-0.09375
1630573768093,-0.90625,0.40625,-0.09375
1630573768125,-0.90625,0.40625,-0.09375
1630573768156,-0.90625,0.40625,-0.09375
1630573768187,-0.90625,0.40625,-0.09375
1630573768218,-0.90625,0.40625,-0.09375
1630573768250,-0.90625,0.40625,-0.09375
1630573768281,-0.90625,0.40625,-0.109375
1630573768312,-0.90625,0.40625,-0.09375
1630573768343,-0.90625,0.40625,-0.09375
1630573768375,-0.90625,0.40625,-0.09375
1630573768406,-0.90625,0.40625,-0.09375
1630573768437,-0.90625,0.40625,-0.109375
1630573768468,-0.90625,0.40625,-0.109375
1630573768500,-0.90625,0.40625,-0.109375
1630573768531,-0.90625,0.40625,-0.109375
1630573768562,-0.90625,0.40625,-0.109375
1630573768593,-0.90625,0.390625,-0.109375
1630573768625,-0.90625,0.390625,-0.109375
1630573768656,-0.90625,0.390625,-0.109375
1630573768687,-0.921875,0.390625,-0.109375
1630573768718,-0.90625,0.390625,-0.109375
1630573768750,-0.921875,0.390625,-0.109375
1630573768781,-0.90625,0.390625,-0.109375
1630573768812,-0.90625,0.390625,-0.109375
1630573768843,-0.921875,0.390625,-0.109375
1630573768875,-0.921875,0.390625,-0.109375
1630573768906,-0.90625,0.390625,-0.109375
1630573768937,-0.921875,0.390625,-0.109375
1630573768968,-0.921875,0.390625,-0.109375
1630573769000,-0.90625,0.390625,-0.109375
1630573769031,-0.921875,0.390625,-0.109375
1630573769062,-0.921875,0.390625,-0.09375
1630573769093,-0.921875,0.390625,-0.09375
1630573769125,-0.90625,0.390625,-0.09375
1630573769156,-0.921875,0.390625,-0.09375
1630573769187,-0.921875,0.390625,-0.109375
1630573769218,-0.921875,0.390625,-0.09375
1630573769250,-0.921875,0.390625,-0.109375
1630573769281,-0.921875,0.390625,-0.109375
1630573769312,-0.921875,0.390625,-0.109375
1630573769343,-0.90625,0.390625,-0.109375
1630573769375,-0.90625,0.390625,-0.109375
1630573769406,-0.921875,0.390625,-0.125
1630573769437,-0.921875,0.375,-0.125
1630573769468,-0.90625,0.390625,-0.125
1630573769500,-0.90625,0.390625,-0.125
1630573769531,-0.90625,0.390625,-0.125
1630573769562,-0.90625,0.390625,-0.125
1630573769593,-0.90625,0.390625,-0.140625
1630573769625,-0.90625,0.390625,-0.140625
1630573769656,-0.90625,0.390625,-0.140625
1630573769687,-0.90625,0.390625,-0.140625
1630573769718,-0.90625,0.390625,-0.140625
1630573769750,-0.90625,0.390625,-0.15625
1630573769781,-0.90625,0.390625,-0.15625
1630573769812,-0.90625,0.390625,-0.140625
1630573769843,-0.90625,0.390625,-0.15625
1630573769875,-0.921875,0.390625,-0.15625
1630573769906,-0.90625,0.375,-0.15625
1630573769937,-0.90625,0.375,-0.171875
1630573769968,-0.90625,0.390625,-0.140625
1630573770000,-0.90625,0.375,-0.109375
1630573770031,-0.9375,0.390625,-0.125
1630573770062,-0.9375,0.390625,-0.078125
1630573770093,-0.921875,0.390625,-0.0625
1630573770125,-0.90625,0.375,-0.046875
1630573770156,-0.9375,0.390625,-0.078125
1630573770187,-0.9375,0.390625,-0.046875
1630573770218,-0.90625,0.390625,-0.03125
1630573770250,-0.90625,0.375,-0.03125
1630573770281,-0.90625,0.375,-0.03125
1630573770312,-0.921875,0.375,-0.046875
1630573770343,-0.921875,0.375,-0.046875
1630573770375,-0.90625,0.390625,-0.0625
1630573770406,-0.90625,0.390625,-0.078125
1630573770437,-0.90625,0.390625,-0.09375
1630573770468,-0.890625,0.40625,-0.109375
1630573770500,-0.90625,0.40625,-0.125
1630573770531,-0.90625,0.421875,-0.140625
1630573770562,-0.90625,0.421875,-0.125
1630573770593,-0.90625,0.421875,-0.140625
1630573770625,-0.890625,0.4375,-0.125
1630573770656,-0.890625,0.421875,-0.140625
1630573770687,-0.890625,0.421875,-0.15625
1630573770718,-0.890625,0.4375,-0.15625
1630573770750,-0.890625,0.4375,-0.15625
1630573770781,-0.890625,0.4375,-0.1875
1630573770812,-0.890625,0.4375,-0.171875
1630573770843,-0.890625,0.4375,-0.171875
1630573770875,-0.875,0.4375,-0.1875
1630573770906,-0.875,0.4375,-0.1875
1630573770937,-0.875,0.4375,-0.1875
1630573770968,-0.875,0.4375,-0.203125
1630573771000,-0.875,0.4375,-0.203125
1630573771031,-0.875,0.4375,-0.203125
1630573771062,-0.875,0.4375,-0.203125
1630573771093,-0.875,0.4375,-0.203125
1630573771125,-0.875,0.4375,-0.203125
1630573771156,-0.859375,0.453125,-0.203125
1630573771187,-0.875,0.453125,-0.21875
1630573771218,-0.875,0.453125,-0.21875
1630573771250,-0.875,0.453125,-0.21875
1630573771281,-0.875,0.453125,-0.21875
1630573771312,-0.859375,0.453125,-0.21875
1630573771343,-0.859375,0.46875,-0.21875
1630573771375,-0.859375,0.46875,-0.21875
1630573771406,-0.859375,0.46875,-0.21875
1630573771437,-0.859375,0.46875,-0.21875
1630573771468,-0.859375,0.453125,-0.21875
1630573771500,-0.859375,0.453125,-0.21875
1630573771531,-0.875,0.453125,-0.21875
1630573771562,-0.859375,0.453125,-0.21875
1630573771593,-0.859375,0.453125,-0.21875
1630573771625,-0.875,0.4375,-0.21875
1630573771656,-0.859375,0.453125,-0.21875
1630573771687,-0.859375,0.453125,-0.21875
1630573771718,-0.859375,0.453125,-0.21875
1630573771750,-0.859375,0.453125,-0.21875
1630573771781,-0.859375,0.453125,-0.21875
1630573771812,-0.859375,0.453125,-0.21875
1630573771843,-0.859375,0.453125,-0.21875
1630573771875,-0.875,0.453125,-0.21875
1630573771906,-0.875,0.453125,-0.21875
1630573771937,-0.875,0.4375,-0.203125
1630573771968,-0.875,0.453125,-0.203125
1630573772000,-0.859375,0.4375,-0.21875
1630573772031,-0.875,0.4375,-0.21875
1630573772062,-0.859375,0.453125,-0.21875
1630573772093,-0.875,0.4375,-0.203125
1630573772125,-0.875,0.4375,-0.203125
1630573772156,-0.875,0.4375,-0.203125
1630573772187,-0.875,0.4375,-0.21875
1630573772218,-0.875,0.4375,-0.203125
1630573772250,-0.875,0.4375,-0.203125
1630573772281,-0.875,0.453125,-0.203125
1630573772312,-0.875,0.453125,-0.203125
1630573772343,-0.875,0.453125,-0.1875
1630573772375,-0.875,0.4375,-0.203125
1630573772406,-0.875,0.4375,-0.203125
1630573772437,-0.875,0.453125,-0.203125
1630573772468,-0.875,0.4375,-0.203125
1630573772500,-0.875,0.4375,-0.203125
1630573772531,-0.875,0.4375,-0.21875
1630573772562,-0.875,0.4375,-0.203125
1630573772593,-0.875,0.4375,-0.203125
1630573772625,-0.875,0.4375,-0.203125
1630573772656,-0.875,0.4375,-0.203125
1630573772687,-0.875,0.4375,-0.21875
1630573772718,-0.890625,0.4375,-0.21875
1630573772750,-0.875,0.4375,-0.21875
1630573772781,-0.875,0.4375,-0.21875
1630573772812,-0.875,0.4375,-0.21875
1630573772843,-0.875,0.4375,-0.21875
1630573772875,-0.875,0.4375,-0.21875
1630573772906,-0.875,0.4375,-0.21875
1630573772937,-0.875,0.4375,-0.21875
1630573772968,-0.875,0.4375,-0.203125
1630573773000,-0.875,0.4375,-0.203125
1630573773031,-0.875,0.4375,-0.203125
1630573773062,-0.875,0.4375,-0.21875
1630573773093,-0.875,0.4375,-0.203125
1630573773125,-0.875,0.4375,-0.203125
1630573773156,-0.875,0.4375,-0.203125
1630573773187,-0.875,0.4375,-0.21875
1630573773218,-0.875,0.4375,-0.21875
1630573773250,-0.875,0.4375,-0.203125
1630573773281,-0.875,0.4375,-0.21875
1630573773312,-0.875,0.4375,-0.21875
1630573773343,-0.875,0.4375,-0.203125
1630573773375,-0.875,0.4375,-0.203125
1630573773406,-0.859375,0.4375,-0.1875
1630573773437,-0.875,0.4375,-0.1875
1630573773468,-0.859375,0.4375,-0.1875
1630573773500,-0.875,0.4375,-0.21875
1630573773531,-0.875,0.4375,-0.25
1630573773562,-0.875,0.4375,-0.265625
1630573773593,-0.875,0.4375,-0.28125
1630573773625,-0.875,0.4375,-0.28125
1630573773656,-0.859375,0.4375,-0.25
1630573773687,-0.859375,0.421875,-0.234375
1630573773718,-0.859375,0.4375,-0.265625
1630573773750,-0.875,0.4375,-0.265625
1630573773781,-0.859375,0.4375,-0.25
1630573773812,-0.859375,0.4375,-0.265625
1630573773843,-0.859375,0.4375,-0.265625
1630573773875,-0.859375,0.4375,-0.265625
1630573773906,-0.859375,0.4375,-0.265625
1630573773937,-0.859375,0.4375,-0.265625
1630573773968,-0.859375,0.4375,-0.25
1630573774000,-0.859375,0.4375,-0.265625
1630573774031,-0.859375,0.4375,-0.265625
1630573774062,-0.859375,0.4375,-0.265625
1630573774093,-0.859375,0.4375,-0.234375
1630573774125,-0.859375,0.4375,-0.21875
1630573774156,-0.859375,0.4375,-0.21875
1630573774187,-0.875,0.4375,-0.234375
1630573774218,-0.859375,0.4375,-0.21875
1630573774250,-0.875,0.4375,-0.21875
1630573774281,-0.875,0.4375,-0.234375
1630573774312,-0.859375,0.4375,-0.21875
1630573774343,-0.875,0.4375,-0.21875
1630573774375,-0.875,0.4375,-0.21875
1630573774406,-0.859375,0.4375,-0.21875
1630573774437,-0.875,0.4375,-0.234375
1630573774468,-0.859375,0.4375,-0.21875
1630573774500,-0.859375,0.4375,-0.21875
1630573774531,-0.859375,0.4375,-0.21875
1630573774562,-0.875,0.4375,-0.234375
1630573774593,-0.875,0.4375,-0.234375
1630573774625,-0.875,0.4375,-0.21875
1630573774656,-0.859375,0.4375,-0.234375
1630573774687,-0.859375,0.4375,-0.21875
1630573774718,-0.875,0.4375,-0.234375
1630573774750,-0.875,0.4375,-0.234375
1630573774781,-0.859375,0.4375,-0.234375
1630573774812,-0.859375,0.4375,-0.234375
1630573774843,-0.859375,0.4375,-0.234375
1630573774875,-0.875,0.4375,-0.234375
1630573774906,-0.859375,0.4375,-0.234375
1630573774937,-0.875,0.4375,-0.234375
1630573774968,-0.875,0.4375,-0.234375
1630573775000,-0.875,0.4375,-0.234375
1630573775031,-0.859375,0.4375,-0.234375
1630573775062,-0.859375,0.4375,-0.21875
1630573775093,-0.859375,0.4375,-0.234375
1630573775125,-0.859375,0.4375,-0.234375
1630573775156,-0.859375,0.4375,-0.234375
1630573775187,-0.859375,0.4375,-0.234375
1630573775218,-0.859375,0.4375,-0.234375
1630573775250,-0.859375,0.4375,-0.21875
1630573775281,-0.859375,0.4375,-0.21875
1630573775312,-0.859375,0.4375,-0.21875
1630573775343,-0.859375,0.4375,-0.265625
1630573775375,-0.859375,0.4375,-0.265625
1630573775406,-0.859375,0.4375,-0.28125
1630573775437,-0.859375,0.4375,-0.265625
1630573775468,-0.859375,0.4375,-0.296875
1630573775500,-0.859375,0.4375,-0.296875
1630573775531,-0.859375,0.4375,-0.28125
1630573775562,-0.84375,0.4375,-0.265625
1630573775593,-0.84375,0.4375,-0.265625
1630573775625,-0.859375,0.4375,-0.28125
1630573775656,-0.859375,0.4375,-0.28125
1630573775687,-0.859375,0.4375,-0.265625
1630573775718,-0.859375,0.4375,-0.265625
1630573775750,-0.859375,0.4375,-0.28125
1630573775781,-0.859375,0.4375,-0.296875
1630573775812,-0.859375,0.4375,-0.296875
1630573775843,-0.859375,0.4375,-0.234375
1630573775875,-0.859375,0.4375,-0.234375
1630573775906,-0.859375,0.4375,-0.25
1630573775937,-0.859375,0.4375,-0.234375
1630573775968,-0.859375,0.4375,-0.21875
1630573776000,-0.859375,0.4375,-0.234375
1630573776031,-0.859375,0.4375,-0.234375
1630573776062,-0.875,0.4375,-0.234375
1630573776093,-0.875,0.4375,-0.234375
1630573776125,-0.859375,0.4375,-0.234375
1630573776156,-0.859375,0.4375,-0.234375
1630573776187,-0.875,0.4375,-0.234375
1630573776218,-0.859375,0.4375,-0.234375
1630573776250,-0.859375,0.4375,-0.234375
1630573776281,-0.875,0.4375,-0.25
1630573776312,-0.859375,0.4375,-0.234375
1630573776343,-0.859375,0.4375,-0.234375
1630573776375,-0.859375,0.4375,-0.25
1630573776406,-0.859375,0.4375,-0.25
1630573776437,-0.875,0.4375,-0.234375
1630573776468,-0.859375,0.4375,-0.234375
1630573776500,-0.875,0.4375,-0.25
1630573776531,-0.859375,0.4375,-0.25
1630573776562,-0.859375,0.4375,-0.25
1630573776593,-0.859375,0.4375,-0.25
1630573776625,-0.875,0.4375,-0.25
1630573776656,-0.875,0.4375,-0.234375
1630573776687,-0.859375,0.4375,-0.234375
1630573776718,-0.859375,0.4375,-0.234375
1630573776750,-0.859375,0.4375,-0.234375
1630573776781,-0.859375,0.4375,-0.234375
1630573776812,-0.859375,0.4375,-0.21875
1630573776843,-0.859375,0.4375,-0.234375
1630573776875,-0.859375,0.4375,-0.234375
1630573776906,-0.875,0.4375,-0.234375
1630573776937,-0.859375,0.4375,-0.234375
1630573776968,-0.859375,0.4375,-0.234375
1630573777000,-0.859375,0.4375,-0.234375
1630573777031,-0.859375,0.4375,-0.21875
1630573777062,-0.875,0.4375,-0.234375
1630573777093,-0.859375,0.4375,-0.234375
1630573777125,-0.859375,0.4375,-0.21875
1630573777156,-0.875,0.4375,-0.234375
1630573777187,-0.875,0.4375,-0.234375
1630573777218,-0.859375,0.4375,-0.234375
1630573777250,-0.875,0.4375,-0.234375
1630573777281,-0.859375,0.4375,-0.234375
1630573777312,-0.875,0.4375,-0.234375
1630573777343,-0.859375,0.4375,-0.234375
1630573777375,-0.859375,0.4375,-0.21875
1630573777406,-0.859375,0.4375,-0.21875
1630573777437,-0.875,0.4375,-0.21875
1630573777468,-0.875,0.4375,-0.234375
1630573777500,-0.875,0.4375,-0.234375
1630573777531,-0.859375,0.4375,-0.234375
1630573777562,-0.859375,0.4375,-0.21875
1630573777593,-0.875,0.4375,-0.234375
1630573777625,-0.859375,0.4375,-0.234375
1630573777656,-0.859375,0.4375,-0.234375
1630573777687,-0.859375,0.4375,-0.234375
1630573777718,-0.875,0.4375,-0.234375
1630573777750,-0.875,0.4375,-0.234375
1630573777781,-0.875,0.4375,-0.234375
1630573777812,-0.875,0.4375,-0.234375
1630573777843,-0.859375,0.4375,-0.234375
1630573777875,-0.875,0.4375,-0.21875
1630573777906,-0.875,0.4375,-0.234375
1630573777937,-0.875,0.4375,-0.21875
1630573777968,-0.875,0.4375,-0.234375
1630573778000,-0.875,0.4375,-0.234375
1630573778031,-0.859375,0.4375,-0.21875
1630573778062,-0.859375,0.4375,-0.234375
1630573778093,-0.875,0.4375,-0.21875
1630573778125,-0.875,0.4375,-0.234375
1630573778156,-0.875,0.4375,-0.234375
1630573778187,-0.859375,0.4375,-0.21875
1630573778218,-0.875,0.4375,-0.234375
1630573778250,-0.859375,0.4375,-0.21875
1630573778281,-0.875,0.4375,-0.234375
1630573778312,-0.859375,0.4375,-0.234375
1630573778343,-0.859375,0.4375,-0.234375
1630573778375,-0.859375,0.4375,-0.234375
1630573778406,-0.859375,0.4375,-0.234375
1630573778437,-0.859375,0.4375,-0.234375
1630573778468,-0.859375,0.4375,-0.234375
1630573778500,-0.875,0.4375,-0.234375
1630573778531,-0.859375,0.4375,-0.234375
1630573778562,-0.859375,0.4375,-0.234375
1630573778593,-0.859375,0.4375,-0.234375
1630573778625,-0.859375,0.4375,-0.234375
1630573778656,-0.859375,0.4375,-0.234375
1630573778687,-0.859375,0.4375,-0.234375
1630573778718,-0.859375,0.4375,-0.234375
1630573778750,-0.859375,0.4375,-0.234375
1630573778781,-0.859375,0.4375,-0.234375
1630573778812,-0.859375,0.4375,-0.234375
1630573778843,-0.859375,0.4375,-0.25
1630573778875,-0.859375,0.4375,-0.265625
1630573778906,-0.859375,0.4375,-0.265625
1630573778937,-0.859375,0.4375,-0.265625
1630573778968,-0.859375,0.4375,-0.265625
1630573779000,-0.859375,0.4375,-0.265625
1630573779031,-0.859375,0.4375,-0.265625
1630573779062,-0.859375,0.4375,-0.265625
1630573779093,-0.859375,0.4375,-0.265625
1630573779125,-0.859375,0.4375,-0.265625
1630573779156,-0.859375,0.4375,-0.265625
1630573779187,-0.859375,0.4375,-0.265625
1630573779218,-0.859375,0.4375,-0.265625
1630573779250,-0.859375,0.4375,-0.28125
1630573779281,-0.859375,0.4375,-0.28125
1630573779312,-0.859375,0.4375,-0.28125
1630573779343,-0.859375,0.4375,-0.28125
1630573779375,-0.859375,0.4375,-0.28125
1630573779406,-0.859375,0.4375,-0.265625
1630573779437,-0.859375,0.4375,-0.265625
1630573779468,-0.859375,0.4375,-0.265625
1630573779500,-0.859375,0.4375,-0.265625
1630573779531,-0.859375,0.4375,-0.265625
1630573779562,-0.859375,0.4375,-0.265625
1630573779593,-0.859375,0.4375,-0.265625
1630573779625,-0.859375,0.4375,-0.265625
1630573779656,-0.859375,0.4375,-0.265625
1630573779687,-0.859375,0.4375,-0.25
1630573779718,-0.859375,0.4375,-0.265625
1630573779750,-0.859375,0.4375,-0.265625
1630573779781,-0.859375,0.4375,-0.265625
1630573779812,-0.859375,0.4375,-0.265625
1630573779843,-0.859375,0.4375,-0.265625
1630573779875,-0.859375,0.4375,-0.265625
1630573779906,-0.859375,0.4375,-0.265625
1630573779937,-0.859375,0.4375,-0.265625
1630573779968,-0.859375,0.4375,-0.265625
1630573780000,-0.859375,0.4375,-0.25
1630573780031,-0.859375,0.4375,-0.265625
1630573780062,-0.859375,0.4375,-0.25
1630573780093,-0.859375,0.4375,-0.265625
1630573780125,-0.859375,0.4375,-0.265625
1630573780156,-0.859375,0.4375,-0.265625
1630573780187,-0.859375,0.4375,-0.265625
1630573780218,-0.859375,0.4375,-0.265625
1630573780250,-0.859375,0.4375,-0.265625
1630573780281,-0.859375,0.4375,-0.25
1630573780312,-0.859375,0.4375,-0.265625
1630573780343,-0.859375,0.4375,-0.265625
1630573780375,-0.859375,0.4375,-0.265625
1630573780406,-0.859375,0.4375,-0.265625
1630573780437,-0.859375,0.4375,-0.25
1630573780468,-0.859375,0.4375,-0.265625
1630573780500,-0.859375,0.4375,-0.25
1630573780531,-0.859375,0.4375,-0.25
1630573780562,-0.859375,0.4375,-0.25
1630573780593,-0.859375,0.4375,-0.25
1630573780625,-0.859375,0.4375,-0.25
1630573780656,-0.859375,0.4375,-0.25
1630573780687,-0.859375,0.4375,-0.25
1630573780718,-0.859375,0.4375,-0.25
1630573780750,-0.859375,0.4375,-0.265625
1630573780781,-0.859375,0.4375,-0.265625
1630573780812,-0.859375,0.4375,-0.265625
1630573780843,-0.859375,0.4375,-0.265625
1630573780875,-0.859375,0.4375,-0.25
1630573780906,-0.859375,0.4375,-0.265625
1630573780937,-0.859375,0.4375,-0.25
1630573780968,-0.859375,0.4375,-0.265625
1630573781000,-0.859375,0.4375,-0.25
1630573781031,-0.859375,0.4375,-0.25
1630573781062,-0.859375,0.4375,-0.265625
1630573781093,-0.859375,0.4375,-0.265625
1630573781125,-0.859375,0.4375,-0.265625
1630573781156,-0.859375,0.4375,-0.265625
1630573781187,-0.859375,0.4375,-0.265625
1630573781218,-0.859375,0.4375,-0.265625
1630573781250,-0.859375,0.4375,-0.25
1630573781281,-0.859375,0.4375,-0.265625
1630573781312,-0.859375,0.4375,-0.25
1630573781343,-0.859375,0.4375,-0.25
1630573781375,-0.859375,0.4375,-0.265625
1630573781406,-0.859375,0.4375,-0.25
1630573781437,-0.859375,0.4375,-0.265625
1630573781468,-0.859375,0.4375,-0.25
1630573781500,-0.859375,0.4375,-0.265625
1630573781531,-0.859375,0.4375,-0.25
1630573781562,-0.859375,0.4375,-0.25
1630573781593,-0.859375,0.4375,-0.265625
1630573781625,-0.859375,0.4375,-0.265625
1630573781656,-0.859375,0.4375,-0.25
1630573781687,-0.859375,0.4375,-0.25
1630573781718,-0.859375,0.4375,-0.265625
1630573781750,-0.859375,0.4375,-0.25
1630573781781,-0.859375,0.4375,-0.25
1630573781812,-0.859375,0.4375,-0.25
1630573781843,-0.859375,0.4375,-0.25
1630573781875,-0.859375,0.4375,-0.25
1630573781906,-0.859375,0.4375,-0.265625
1630573781937,-0.859375,0.4375,-0.25
1630573781968,-0.859375,0.4375,-0.25
1630573782000,-0.859375,0.4375,-0.265625
1630573782031,-0.859375,0.4375,-0.25
1630573782062,-0.859375,0.4375,-0.25
1630573782093,-0.859375,0.4375,-0.25
1630573782125,-0.859375,0.4375,-0.25
1630573782156,-0.859375,0.4375,-0.25
1630573782187,-0.859375,0.4375,-0.265625
1630573782218,-0.859375,0.4375,-0.25
1630573782250,-0.859375,0.4375,-0.25
1630573782281,-0.859375,0.4375,-0.25
1630573782312,-0.859375,0.4375,-0.25
1630573782343,-0.859375,0.4375,-0.25
1630573782375,-0.859375,0.4375,-0.265625
1630573782406,-0.859375,0.4375,-0.265625
1630573782437,-0.859375,0.4375,-0.25
1630573782468,-0.859375,0.4375,-0.265625
1630573782500,-0.859375,0.4375,-0.265625
1630573782531,-0.859375,0.4375,-0.25
1630573782562,-0.859375,0.4375,-0.265625
1630573782593,-0.859375,0.4375,-0.25
1630573782625,-0.859375,0.4375,-0.25
1630573782656,-0.859375,0.4375,-0.265625
1630573782687,-0.859375,0.4375,-0.265625
1630573782718,-0.859375,0.4375,-0.265625
1630573782750,-0.859375,0.4375,-0.265625
1630573782781,-0.859375,0.4375,-0.25
1630573782812,-0.859375,0.4375,-0.265625
1630573782843,-0.859375,0.4375,-0.25
1630573782875,-0.859375,0.4375,-0.265625
1630573782906,-0.859375,0.4375,-0.25
1630573782937,-0.859375,0.4375,-0.265625
1630573782968,-0.859375,0.4375,-0.265625
1630573783000,-0.859375,0.4375,-0.265625
1630573783031,-0.859375,0.4375,-0.25
1630573783062,-0.859375,0.4375,-0.265625
1630573783093,-0.859375,0.4375,-0.265625
1630573783125,-0.859375,0.4375,-0.265625
1630573783156,-0.859375,0.4375,-0.265625
1630573783187,-0.859375,0.4375,-0.265625
1630573783218,-0.859375,0.4375,-0.265625
1630573783250,-0.859375,0.4375,-0.265625
1630573783281,-0.859375,0.4375,-0.265625
1630573783312,-0.859375,0.4375,-0.265625
1630573783343,-0.859375,0.4375,-0.265625
1630573783375,-0.859375,0.4375,-0.265625
1630573783406,-0.859375,0.4375,-0.265625
1630573783437,-0.859375,0.4375,-0.265625
1630573783468,-0.859375,0.4375,-0.265625
1630573783500,-0.859375,0.4375,-0.265625
1630573783531,-0.859375,0.4375,-0.265625
1630573783562,-0.859375,0.453125,-0.265625
1630573783593,-0.859375,0.453125,-0.265625
1630573783625,-0.859375,0.4375,-0.265625
1630573783656,-0.859375,0.4375,-0.265625
1630573783687,-0.84375,0.453125,-0.265625
1630573783718,-0.859375,0.4375,-0.265625
1630573783750,-0.859375,0.4375,-0.265625
1630573783781,-0.859375,0.4375,-0.265625
1630573783812,-0.859375,0.4375,-0.265625
1630573783843,-0.859375,0.4375,-0.265625
1630573783875,-0.859375,0.4375,-0.265625
1630573783906,-0.859375,0.4375,-0.265625
1630573783937,-0.859375,0.4375,-0.265625
1630573783968,-0.859375,0.453125,-0.265625
1630573784000,-0.859375,0.4375,-0.265625
1630573784031,-0.859375,0.4375,-0.265625
1630573784062,-0.859375,0.4375,-0.265625
1630573784093,-0.859375,0.453125,-0.265625
1630573784125,-0.859375,0.4375,-0.265625
1630573784156,-0.859375,0.4375,-0.265625
1630573784187,-0.859375,0.4375,-0.265625
1630573784218,-0.859375,0.4375,-0.265625
1630573784250,-0.859375,0.4375,-0.265625
1630573784281,-0.859375,0.453125,-0.265625
1630573784312,-0.859375,0.453125,-0.265625
1630573784343,-0.859375,0.4375,-0.265625
1630573784375,-0.859375,0.4375,-0.265625
1630573784406,-0.859375,0.4375,-0.265625
1630573784437,-0.859375,0.453125,-0.265625
1630573784468,-0.859375,0.4375,-0.265625
1630573784500,-0.859375,0.4375,-0.265625
1630573784531,-0.859375,0.4375,-0.265625
1630573784562,-0.859375,0.4375,-0.265625
1630573784593,-0.859375,0.4375,-0.265625
1630573784625,-0.859375,0.4375,-0.265625
1630573784656,-0.859375,0.4375,-0.265625
1630573784687,-0.84375,0.4375,-0.265625
1630573784718,-0.859375,0.4375,-0.265625
1630573784750,-0.859375,0.4375,-0.265625
1630573784781,-0.859375,0.4375,-0.265625
1630573784812,-0.859375,0.4375,-0.265625
1630573784843,-0.859375,0.4375,-0.265625
1630573784875,-0.859375,0.4375,-0.265625
1630573784906,-0.859375,0.4375,-0.265625
1630573784937,-0.859375,0.4375,-0.265625
1630573784968,-0.859375,0.4375,-0.265625
1630573785000,-0.859375,0.453125,-0.265625
1630573785031,-0.859375,0.453125,-0.265625
1630573785062,-0.859375,0.4375,-0.28125
1630573785093,-0.859375,0.4375,-0.296875
1630573785125,-0.84375,0.4375,-0.265625
1630573785156,-0.84375,0.4375,-0.265625
1630573785187,-0.859375,0.4375,-0.265625
1630573785218,-0.859375,0.4375,-0.28125
1630573785250,-0.84375,0.4375,-0.265625
1630573785281,-0.84375,0.4375,-0.265625
1630573785312,-0.859375,0.4375,-0.28125
1630573785343,-0.859375,0.4375,-0.28125
1630573785375,-0.859375,0.4375,-0.28125
1630573785406,-0.84375,0.4375,-0.28125
1630573785437,-0.859375,0.4375,-0.28125
1630573785468,-0.84375,0.4375,-0.28125
1630573785500,-0.859375,0.4375,-0.28125
1630573785531,-0.84375,0.4375,-0.265625
1630573785562,-0.859375,0.4375,-0.28125
1630573785593,-0.84375,0.4375,-0.28125
1630573785625,-0.84375,0.4375,-0.28125
1630573785656,-0.84375,0.4375,-0.28125
1630573785687,-0.84375,0.4375,-0.28125
1630573785718,-0.84375,0.4375,-0.296875
1630573785750,-0.84375,0.4375,-0.28125
1630573785781,-0.84375,0.4375,-0.296875
1630573785812,-0.84375,0.4375,-0.296875
1630573785843,-0.84375,0.4375,-0.296875
1630573785875,-0.84375,0.4375,-0.28125
1630573785906,-0.84375,0.4375,-0.28125
1630573785937,-0.859375,0.4375,-0.296875
1630573785968,-0.84375,0.453125,-0.296875
1630573786000,-0.859375,0.453125,-0.28125
1630573786031,-0.859375,0.453125,-0.28125
1630573786062,-0.859375,0.4375,-0.265625
1630573786093,-0.859375,0.4375,-0.265625
1630573786125,-0.859375,0.4375,-0.265625
1630573786156,-0.84375,0.4375,-0.265625
1630573786187,-0.859375,0.4375,-0.265625
1630573786218,-0.859375,0.4375,-0.265625
1630573786250,-0.859375,0.4375,-0.265625
1630573786281,-0.859375,0.4375,-0.265625
1630573786312,-0.859375,0.4375,-0.265625
1630573786343,-0.859375,0.4375,-0.265625
1630573786375,-0.859375,0.4375,-0.25
1630573786406,-0.859375,0.4375,-0.265625
1630573786437,-0.859375,0.4375,-0.265625
1630573786468,-0.859375,0.4375,-0.265625
1630573786500,-0.859375,0.4375,-0.265625
1630573786531,-0.859375,0.4375,-0.265625
1630573786562,-0.859375,0.4375,-0.265625
1630573786593,-0.859375,0.4375,-0.265625
1630573786625,-0.859375,0.4375,-0.265625
1630573786656,-0.859375,0.453125,-0.265625
1630573786687,-0.859375,0.4375,-0.265625
1630573786718,-0.859375,0.4375,-0.265625
1630573786750,-0.859375,0.4375,-0.265625
1630573786781,-0.859375,0.4375,-0.265625
1630573786812,-0.859375,0.4375,-0.265625
1630573786843,-0.859375,0.4375,-0.265625
1630573786875,-0.859375,0.4375,-0.265625
1630573786906,-0.859375,0.4375,-0.265625
1630573786937,-0.859375,0.4375,-0.265625
1630573786968,-0.859375,0.453125,-0.265625
1630573787000,-0.859375,0.4375,-0.265625
1630573787031,-0.859375,0.4375,-0.265625
1630573787062,-0.859375,0.4375,-0.265625
1630573787093,-0.859375,0.453125,-0.265625
1630573787125,-0.859375,0.4375,-0.265625
1630573787156,-0.859375,0.4375,-0.265625
1630573787187,-0.84375,0.4375,-0.265625
1630573787218,-0.859375,0.4375,-0.265625
1630573787250,-0.859375,0.4375,-0.265625
1630573787281,-0.859375,0.4375,-0.28125
1630573787312,-0.84375,0.453125,-0.265625
1630573787343,-0.859375,0.453125,-0.265625
1630573787375,-0.859375,0.4375,-0.265625
1630573787406,-0.859375,0.4375,-0.28125
1630573787437,-0.84375,0.4375,-0.265625
1630573787468,-0.84375,0.4375,-0.28125
1630573787500,-0.859375,0.4375,-0.265625
1630573787531,-0.859375,0.4375,-0.265625
1630573787562,-0.859375,0.4375,-0.265625
1630573787593,-0.84375,0.4375,-0.265625
1630573787625,-0.859375,0.4375,-0.28125
1630573787656,-0.84375,0.4375,-0.28125
1630573787687,-0.84375,0.4375,-0.265625
1630573787718,-0.859375,0.4375,-0.28125
1630573787750,-0.859375,0.4375,-0.28125
1630573787781,-0.859375,0.4375,-0.28125
1630573787812,-0.84375,0.4375,-0.28125
1630573787843,-0.859375,0.453125,-0.28125
1630573787875,-0.84375,0.4375,-0.28125
1630573787906,-0.84375,0.4375,-0.28125
1630573787937,-0.859375,0.4375,-0.28125
1630573787968,-0.859375,0.4375,-0.28125
1630573788000,-0.84375,0.4375,-0.28125
1630573788031,-0.84375,0.4375,-0.28125
1630573788062,-0.84375,0.4375,-0.265625
1630573788093,-0.84375,0.4375,-0.28125
1630573788125,-0.859375,0.4375,-0.28125
1630573788156,-0.84375,0.4375,-0.28125
1630573788187,-0.859375,0.4375,-0.265625
1630573788218,-0.859375,0.4375,-0.28125
1630573788250,-0.84375,0.4375,-0.265625
1630573788281,-0.84375,0.4375,-0.28125
1630573788312,-0.859375,0.453125,-0.28125
1630573788343,-0.84375,0.4375,-0.28125
1630573788375,-0.84375,0.4375,-0.265625
1630573788406,-0.859375,0.453125,-0.28125
1630573788437,-0.84375,0.4375,-0.28125
1630573788468,-0.84375,0.4375,-0.28125
1630573788500,-0.84375,0.4375,-0.265625
1630573788531,-0.859375,0.453125,-0.28125
1630573788562,-0.859375,0.4375,-0.28125
1630573788593,-0.859375,0.4375,-0.28125
1630573788625,-0.84375,0.4375,-0.265625
1630573788656,-0.84375,0.4375,-0.28125
1630573788687,-0.84375,0.453125,-0.28125
1630573788718,-0.84375,0.4375,-0.28125
1630573788750,-0.859375,0.4375,-0.28125
1630573788781,-0.84375,0.453125,-0.28125
1630573788812,-0.84375,0.4375,-0.265625
1630573788843,-0.859375,0.453125,-0.28125
1630573788875,-0.84375,0.453125,-0.265625
1630573788906,-0.84375,0.4375,-0.265625
1630573788937,-0.84375,0.453125,-0.265625
1630573788968,-0.84375,0.4375,-0.265625
1630573789000,-0.859375,0.453125,-0.28125
1630573789031,-0.859375,0.453125,-0.28125
1630573789062,-0.859375,0.453125,-0.28125
1630573789093,-0.859375,0.453125,-0.28125
1630573789125,-0.859375,0.4375,-0.28125
1630573789156,-0.859375,0.453125,-0.28125
1630573789187,-0.84375,0.4375,-0.265625
1630573789218,-0.859375,0.453125,-0.28125
1630573789250,-0.859375,0.4375,-0.265625
1630573789281,-0.859375,0.4375,-0.28125
1630573789312,-0.84375,0.4375,-0.265625
1630573789343,-0.859375,0.4375,-0.28125
1630573789375,-0.859375,0.453125,-0.28125
1630573789406,-0.84375,0.4375,-0.265625
1630573789437,-0.859375,0.4375,-0.265625
1630573789468,-0.859375,0.453125,-0.265625
1630573789500,-0.859375,0.4375,-0.265625
1630573789531,-0.859375,0.4375,-0.265625
1630573789562,-0.859375,0.453125,-0.265625
1630573789593,-0.859375,0.4375,-0.265625
1630573789625,-0.859375,0.453125,-0.265625
1630573789656,-0.84375,0.453125,-0.265625
1630573789687,-0.84375,0.4375,-0.265625
1630573789718,-0.859375,0.4375,-0.265625
1630573789750,-0.859375,0.4375,-0.265625
1630573789781,-0.859375,0.4375,-0.265625
1630573789812,-0.859375,0.4375,-0.265625
1630573789843,-0.859375,0.4375,-0.265625
1630573789875,-0.859375,0.4375,-0.265625
1630573789906,-0.859375,0.4375,-0.265625
1630573789937,-0.859375,0.453125,-0.265625
1630573789968,-0.859375,0.4375,-0.265625
1630573790000,-0.859375,0.4375,-0.265625
1630573790031,-0.859375,0.4375,-0.265625
1630573790062,-0.859375,0.4375,-0.265625
1630573790093,-0.859375,0.453125,-0.265625
1630573790125,-0.859375,0.4375,-0.265625
1630573790156,-0.859375,0.4375,-0.265625
1630573790187,-0.859375,0.4375,-0.265625
1630573790218,-0.859375,0.453125,-0.265625
1630573790250,-0.859375,0.4375,-0.265625
1630573790281,-0.84375,0.4375,-0.265625
1630573790312,-0.859375,0.4375,-0.265625
1630573790343,-0.859375,0.4375,-0.265625
1630573790375,-0.859375,0.4375,-0.265625
1630573790406,-0.859375,0.4375,-0.265625
1630573790437,-0.859375,0.453125,-0.265625
1630573790468,-0.859375,0.4375,-0.265625
1630573790500,-0.859375,0.4375,-0.265625
1630573790531,-0.859375,0.453125,-0.265625
1630573790562,-0.859375,0.4375,-0.265625
1630573790593,-0.859375,0.4375,-0.265625
1630573790625,-0.859375,0.4375,-0.265625
1630573790656,-0.859375,0.4375,-0.265625
1630573790687,-0.859375,0.4375,-0.265625
1630573790718,-0.859375,0.4375,-0.265625
1630573790750,-0.859375,0.4375,-0.265625
1630573790781,-0.859375,0.4375,-0.265625
1630573790812,-0.84375,0.4375,-0.265625
1630573790843,-0.859375,0.4375,-0.265625
1630573790875,-0.859375,0.4375,-0.265625
1630573790906,-0.859375,0.4375,-0.265625
1630573790937,-0.859375,0.4375,-0.265625
1630573790968,-0.859375,0.4375,-0.265625
1630573791000,-0.84375,0.4375,-0.265625
1630573791031,-0.84375,0.4375,-0.265625
1630573791062,-0.859375,0.453125,-0.265625
1630573791093,-0.859375,0.453125,-0.265625
1630573791125,-0.859375,0.4375,-0.265625
1630573791156,-0.859375,0.453125,-0.265625
1630573791187,-0.859375,0.453125,-0.265625
1630573791218,-0.859375,0.4375,-0.265625
1630573791250,-0.859375,0.453125,-0.265625
1630573791281,-0.859375,0.4375,-0.265625
1630573791312,-0.859375,0.4375,-0.265625
1630573791343,-0.859375,0.4375,-0.265625
1630573791375,-0.859375,0.4375,-0.265625
1630573791406,-0.84375,0.453125,-0.28125
1630573791437,-0.859375,0.453125,-0.28125
1630573791468,-0.859375,0.4375,-0.265625
1630573791500,-0.84375,0.453125,-0.265625
1630573791531,-0.84375,0.4375,-0.265625
1630573791562,-0.859375,0.453125,-0.265625
1630573791593,-0.859375,0.4375,-0.28125
1630573791625,-0.84375,0.453125,-0.265625
1630573791656,-0.859375,0.453125,-0.28125
1630573791687,-0.84375,0.453125,-0.28125
1630573791718,-0.84375,0.4375,-0.265625
1630573791750,-0.84375,0.453125,-0.265625
1630573791781,-0.859375,0.4375,-0.28125
1630573791812,-0.84375,0.453125,-0.265625
1630573791843,-0.859375,0.4375,-0.265625
1630573791875,-0.84375,0.453125,-0.28125
1630573791906,-0.84375,0.4375,-0.28125
1630573791937,-0.84375,0.453125,-0.28125
1630573791968,-0.859375,0.4375,-0.265625
1630573792000,-0.859375,0.4375,-0.28125
1630573792031,-0.84375,0.453125,-0.265625
1630573792062,-0.859375,0.453125,-0.28125
