timestamp,ax,ay,az
1629724800000,-0.671875,0.359375,0.609375
1629724800031,-0.6875,0.359375,0.625
1629724800062,-0.6875,0.375,0.625
1629724800093,-0.6875,0.359375,0.625
1629724800125,-0.6875,0.375,0.625
1629724800156,-0.671875,0.375,0.625
1629724800187,-0.671875,0.359375,0.625
1629724800218,-0.671875,0.359375,0.625
1629724800250,-0.671875,0.359375,0.625
1629724800281,-0.671875,0.359375,0.625
1629724800312,-0.671875,0.34375,0.625
1629724800343,-0.6875,0.34375,0.625
1629724800375,-0.703125,0.34375,0.640625
1629724800406,-0.6875,0.34375,0.625
1629724800437,-0.6875,0.34375,0.625
1629724800468,-0.6875,0.359375,0.625
1629724800500,-0.6875,0.359375,0.609375
1629724800531,-0.6875,0.359375,0.609375
1629724800562,-0.6875,0.359375,0.609375
1629724800593,-0.6875,0.359375,0.609375
1629724800625,-0.6875,0.359375,0.625
1629724800656,-0.6875,0.359375,0.625
1629724800687,-0.6875,0.359375,0.625
1629724800718,-0.6875,0.359375,0.625
1629724800750,-0.6875,0.359375,0.625
1629724800781,-0.6875,0.359375,0.625
1629724800812,-0.6875,0.359375,0.625
1629724800843,-0.6875,0.359375,0.625
1629724800875,-0.6875,0.359375,0.625
1629724800906,-0.6875,0.359375,0.625
1629724800937,-0.6875,0.359375,0.625
1629724800968,-0.671875,0.359375,0.625
1629724801000,-0.671875,0.375,0.625
1629724801031,-0.6875,0.359375,0.609375
1629724801062,-0.703125,0.359375,0.609375
1629724801093,-0.71875,0.359375,0.609375
1629724801125,-0.703125,0.359375,0.59375
1629724801156,-0.640625,0.359375,0.625
1629724801187,-0.609375,0.359375,0.671875
1629724801218,-0.65625,0.359375,0.6875
1629724801250,-0.671875,0.375,0.6875
1629724801281,-0.65625,0.390625,0.640625
1629724801312,-0.640625,0.390625,0.640625
1629724801343,-0.625,0.390625,0.65625
1629724801375,-0.625,0.390625,0.671875
1629724801406,-0.640625,0.390625,0.671875
1629724801437,-0.65625,0.375,0.640625
1629724801468,-0.671875,0.375,0.625
1629724801500,-0.640625,0.390625,0.640625
1629724801531,-0.640625,0.390625,0.65625
1629724801562,-0.640625,0.390625,0.65625
1629724801593,-0.640625,0.390625,0.671875
1629724801625,-0.609375,0.390625,0.671875
1629724801656,-0.625,0.390625,0.65625
1629724801687,-0.625,0.390625,0.65625
1629724801718,-0.625,0.390625,0.671875
1629724801750,-0.609375,0.375,0.671875
1629724801781,-0.578125,0.375,0.671875
1629724801812,-0.5625,0.375,0.6875
1629724801843,-0.578125,0.390625,0.703125
1629724801875,-0.609375,0.375,0.6875
1629724801906,-0.609375,0.390625,0.703125
1629724801937,-0.5625,0.40625,0.6875
1629724801968,-0.578125,0.40625,0.6875
1629724802000,-0.59375,0.40625,0.6875
1629724802031,-0.609375,0.40625,0.6875
1629724802062,-0.59375,0.390625,0.671875
1629724802093,-0.609375,0.390625,0.671875
1629724802125,-0.609375,0.40625,0.671875
1629724802156,-0.609375,0.40625,0.671875
1629724802187,-0.609375,0.40625,0.671875
1629724802218,-0.625,0.390625,0.671875
1629724802250,-0.625,0.390625,0.671875
1629724802281,-0.640625,0.375,0.65625
1629724802312,-0.65625,0.375,0.65625
1629724802343,-0.640625,0.375,0.65625
1629724802375,-0.640625,0.375,0.65625
1629724802406,-0.640625,0.375,0.65625
1629724802437,-0.640625,0.390625,0.65625
1629724802468,-0.640625,0.390625,0.640625
1629724802500,-0.640625,0.390625,0.640625
1629724802531,-0.640625,0.390625,0.640625
1629724802562,-0.65625,0.375,0.640625
1629724802593,-0.640625,0.390625,0.640625
1629724802625,-0.640625,0.390625,0.65625
1629724802656,-0.640625,0.390625,0.640625
1629724802687,-0.640625,0.390625,0.640625
1629724802718,-0.640625,0.375,0.640625
1629724802750,-0.640625,0.375,0.640625
1629724802781,-0.65625,0.390625,0.640625
1629724802812,-0.640625,0.390625,0.640625
1629724802843,-0.640625,0.390625,0.640625
1629724802875,-0.640625,0.390625,0.640625
1629724802906,-0.65625,0.390625,0.640625
1629724802937,-0.640625,0.390625,0.640625
1629724802968,-0.65625,0.390625,0.640625
1629724803000,-0.640625,0.390625,0.640625
1629724803031,-0.640625,0.390625,0.640625
1629724803062,-0.640625,0.390625,0.640625
1629724803093,-0.640625,0.390625,0.640625
1629724803125,-0.65625,0.390625,0.640625
1629724803156,-0.65625,0.390625,0.640625
1629724803187,-0.640625,0.390625,0.640625
1629724803218,-0.640625,0.390625,0.640625
1629724803250,-0.640625,0.390625,0.640625
1629724803281,-0.640625,0.390625,0.640625
1629724803312,-0.640625,0.390625,0.640625
1629724803343,-0.640625,0.390625,0.640625
1629724803375,-0.65625,0.390625,0.640625
1629724803406,-0.65625,0.390625,0.65625
1629724803437,-0.640625,0.390625,0.640625
1629724803468,-0.640625,0.390625,0.640625
1629724803500,-0.671875,0.390625,0.640625
1629724803531,-0.65625,0.40625,0.640625
1629724803562,-0.640625,0.390625,0.625
1629724803593,-0.640625,0.390625,0.625
1629724803625,-0.65625,0.390625,0.640625
1629724803656,-0.65625,0.390625,0.640625
1629724803687,-0.640625,0.390625,0.640625
1629724803718,-0.640625,0.375,0.640625
1629724803750,-0.65625,0.375,0.65625
1629724803781,-0.65625,0.375,0.65625
1629724803812,-0.640625,0.375,0.65625
1629724803843,-0.640625,0.390625,0.640625
1629724803875,-0.640625,0.390625,0.640625
1629724803906,-0.640625,0.390625,0.625
1629724803937,-0.65625,0.390625,0.625
1629724803968,-0.671875,0.40625,0.625
1629724804000,-0.65625,0.390625,0.625
1629724804031,-0.65625,0.390625,0.640625
1629724804062,-0.65625,0.390625,0.640625
1629724804093,-0.640625,0.390625,0.640625
1629724804125,-0.640625,0.390625,0.640625
1629724804156,-0.65625,0.375,0.640625
1629724804187,-0.65625,0.375,0.640625
1629724804218,-0.640625,0.375,0.65625
1629724804250,-0.640625,0.375,0.640625
1629724804281,-0.65625,0.375,0.65625
1629724804312,-0.65625,0.375,0.640625
1629724804343,-0.65625,0.375,0.640625
1629724804375,-0.65625,0.390625,0.640625
1629724804406,-0.65625,0.390625,0.625
1629724804437,-0.65625,0.390625,0.625
1629724804468,-0.65625,0.390625,0.640625
1629724804500,-0.65625,0.390625,0.640625
1629724804531,-0.65625,0.390625,0.625
1629724804562,-0.65625,0.375,0.640625
1629724804593,-0.65625,0.375,0.640625
1629724804625,-0.65625,0.375,0.65625
1629724804656,-0.65625,0.375,0.65625
1629724804687,-0.65625,0.375,0.640625
1629724804718,-0.65625,0.375,0.640625
1629724804750,-0.671875,0.375,0.640625
1629724804781,-0.65625,0.375,0.640625
1629724804812,-0.65625,0.375,0.640625
1629724804843,-0.65625,0.390625,0.625
1629724804875,-0.65625,0.375,0.625
1629724804906,-0.65625,0.375,0.640625
1629724804937,-0.65625,0.390625,0.640625
1629724804968,-0.65625,0.375,0.640625
1629724805000,-0.65625,0.375,0.640625
1629724805031,-0.65625,0.375,0.640625
1629724805062,-0.65625,0.375,0.640625
1629724805093,-0.65625,0.375,0.640625
1629724805125,-0.65625,0.375,0.640625
1629724805156,-0.671875,0.375,0.640625
1629724805187,-0.671875,0.375,0.640625
1629724805218,-0.65625,0.375,0.640625
1629724805250,-0.65625,0.375,0.640625
1629724805281,-0.671875,0.375,0.640625
1629724805312,-0.65625,0.375,0.640625
1629724805343,-0.65625,0.375,0.640625
1629724805375,-0.671875,0.375,0.640625
1629724805406,-0.65625,0.375,0.640625
1629724805437,-0.65625,0.375,0.640625
1629724805468,-0.65625,0.375,0.640625
1629724805500,-0.65625,0.375,0.640625
1629724805531,-0.65625,0.375,0.640625
1629724805562,-0.65625,0.375,0.640625
1629724805593,-0.65625,0.375,0.640625
1629724805625,-0.65625,0.375,0.640625
1629724805656,-0.671875,0.375,0.640625
1629724805687,-0.65625,0.375,0.640625
1629724805718,-0.65625,0.375,0.640625
1629724805750,-0.65625,0.375,0.640625
1629724805781,-0.65625,0.375,0.625
1629724805812,-0.65625,0.375,0.640625
1629724805843,-0.65625,0.375,0.640625
1629724805875,-0.65625,0.375,0.640625
1629724805906,-0.65625,0.375,0.640625
1629724805937,-0.65625,0.375,0.640625
1629724805968,-0.65625,0.375,0.640625
1629724806000,-0.65625,0.375,0.640625
1629724806031,-0.65625,0.375,0.640625
1629724806062,-0.65625,0.375,0.640625
1629724806093,-0.65625,0.375,0.640625
1629724806125,-0.671875,0.375,0.640625
1629724806156,-0.65625,0.375,0.640625
1629724806187,-0.65625,0.375,0.640625
1629724806218,-0.65625,0.375,0.640625
1629724806250,-0.65625,0.375,0.640625
1629724806281,-0.65625,0.375,0.640625
1629724806312,-0.65625,0.375,0.640625
1629724806343,-0.65625,0.375,0.640625
1629724806375,-0.65625,0.375,0.640625
1629724806406,-0.65625,0.375,0.640625
1629724806437,-0.65625,0.375,0.640625
1629724806468,-0.65625,0.375,0.640625
1629724806500,-0.65625,0.375,0.640625
1629724806531,-0.65625,0.375,0.640625
1629724806562,-0.65625,0.375,0.640625
1629724806593,-0.65625,0.375,0.640625
1629724806625,-0.65625,0.375,0.640625
1629724806656,-0.65625,0.375,0.640625
1629724806687,-0.65625,0.375,0.640625
1629724806718,-0.65625,0.375,0.640625
1629724806750,-0.65625,0.375,0.640625
1629724806781,-0.671875,0.375,0.640625
1629724806812,-0.65625,0.375,0.640625
1629724806843,-0.65625,0.375,0.640625
1629724806875,-0.65625,0.375,0.640625
1629724806906,-0.65625,0.375,0.640625
1629724806937,-0.65625,0.375,0.640625
1629724806968,-0.65625,0.375,0.640625
1629724807000,-0.65625,0.375,0.640625
1629724807031,-0.65625,0.375,0.640625
1629724807062,-0.65625,0.375,0.640625
1629724807093,-0.65625,0.375,0.640625
1629724807125,-0.65625,0.375,0.640625
1629724807156,-0.65625,0.375,0.640625
1629724807187,-0.65625,0.375,0.640625
1629724807218,-0.65625,0.375,0.640625
1629724807250,-0.671875,0.375,0.640625
1629724807281,-0.65625,0.375,0.640625
1629724807312,-0.65625,0.375,0.640625
1629724807343,-0.65625,0.375,0.640625
1629724807375,-0.65625,0.390625,0.640625
1629724807406,-0.65625,0.390625,0.640625
1629724807437,-0.65625,0.375,0.640625
1629724807468,-0.65625,0.390625,0.640625
1629724807500,-0.65625,0.375,0.640625
1629724807531,-0.65625,0.375,0.640625
1629724807562,-0.65625,0.390625,0.640625
1629724807593,-0.65625,0.390625,0.640625
1629724807625,-0.65625,0.390625,0.640625
1629724807656,-0.65625,0.390625,0.640625
1629724807687,-0.65625,0.390625,0.640625
1629724807718,-0.65625,0.390625,0.640625
1629724807750,-0.65625,0.390625,0.640625
1629724807781,-0.65625,0.375,0.640625
1629724807812,-0.65625,0.390625,0.640625
1629724807843,-0.65625,0.390625,0.640625
1629724807875,-0.65625,0.390625,0.640625
1629724807906,-0.65625,0.390625,0.640625
1629724807937,-0.65625,0.390625,0.640625
1629724807968,-0.65625,0.390625,0.640625
1629724808000,-0.65625,0.390625,0.640625
1629724808031,-0.65625,0.390625,0.640625
1629724808062,-0.65625,0.390625,0.640625
1629724808093,-0.640625,0.390625,0.640625
1629724808125,-0.65625,0.390625,0.640625
1629724808156,-0.65625,0.390625,0.640625
1629724808187,-0.65625,0.390625,0.640625
1629724808218,-0.65625,0.390625,0.640625
1629724808250,-0.65625,0.390625,0.640625
1629724808281,-0.640625,0.390625,0.640625
1629724808312,-0.640625,0.390625,0.640625
1629724808343,-0.640625,0.390625,0.640625
1629724808375,-0.65625,0.390625,0.640625
1629724808406,-0.65625,0.390625,0.640625
1629724808437,-0.640625,0.390625,0.640625
1629724808468,-0.640625,0.390625,0.640625
1629724808500,-0.65625,0.390625,0.640625
1629724808531,-0.65625,0.390625,0.640625
1629724808562,-0.65625,0.390625,0.640625
1629724808593,-0.65625,0.390625,0.640625
1629724808625,-0.65625,0.390625,0.640625
1629724808656,-0.65625,0.390625,0.640625
1629724808687,-0.65625,0.390625,0.640625
1629724808718,-0.65625,0.390625,0.640625
1629724808750,-0.65625,0.390625,0.640625
1629724808781,-0.65625,0.390625,0.640625
1629724808812,-0.65625,0.390625,0.640625
1629724808843,-0.65625,0.390625,0.640625
1629724808875,-0.65625,0.390625,0.640625
1629724808906,-0.65625,0.390625,0.640625
1629724808937,-0.640625,0.390625,0.640625
1629724808968,-0.65625,0.390625,0.640625
1629724809000,-0.65625,0.390625,0.640625
1629724809031,-0.65625,0.390625,0.640625
1629724809062,-0.640625,0.390625,0.640625
1629724809093,-0.65625,0.390625,0.640625
1629724809125,-0.65625,0.390625,0.640625
1629724809156,-0.640625,0.390625,0.640625
1629724809187,-0.640625,0.390625,0.640625
1629724809218,-0.65625,0.390625,0.640625
1629724809250,-0.65625,0.390625,0.640625
1629724809281,-0.65625,0.390625,0.640625
1629724809312,-0.65625,0.390625,0.640625
1629724809343,-0.65625,0.390625,0.640625
1629724809375,-0.65625,0.390625,0.640625
1629724809406,-0.65625,0.390625,0.640625
1629724809437,-0.640625,0.375,0.640625
1629724809468,-0.640625,0.390625,0.640625
1629724809500,-0.65625,0.375,0.640625
1629724809531,-0.65625,0.390625,0.640625
1629724809562,-0.640625,0.390625,0.640625
1629724809593,-0.65625,0.390625,0.640625
1629724809625,-0.65625,0.390625,0.640625
1629724809656,-0.640625,0.390625,0.640625
1629724809687,-0.65625,0.375,0.640625
1629724809718,-0.65625,0.375,0.640625
1629724809750,-0.65625,0.375,0.640625
1629724809781,-0.65625,0.390625,0.640625
1629724809812,-0.65625,0.375,0.640625
1629724809843,-0.65625,0.375,0.640625
1629724809875,-0.65625,0.375,0.640625
1629724809906,-0.65625,0.390625,0.640625
1629724809937,-0.65625,0.390625,0.640625
1629724809968,-0.65625,0.390625,0.640625
1629724810000,-0.65625,0.375,0.640625
1629724810031,-0.65625,0.375,0.640625
1629724810062,-0.65625,0.375,0.640625
1629724810093,-0.65625,0.375,0.640625
1629724810125,-0.640625,0.375,0.640625
1629724810156,-0.65625,0.375,0.640625
1629724810187,-0.65625,0.375,0.640625
1629724810218,-0.65625,0.390625,0.640625
1629724810250,-0.65625,0.375,0.640625
1629724810281,-0.65625,0.375,0.640625
1629724810312,-0.65625,0.375,0.640625
1629724810343,-0.65625,0.375,0.640625
1629724810375,-0.65625,0.375,0.640625
1629724810406,-0.65625,0.375,0.640625
1629724810437,-0.65625,0.375,0.640625
1629724810468,-0.65625,0.375,0.640625
1629724810500,-0.65625,0.375,0.640625
1629724810531,-0.65625,0.375,0.640625
1629724810562,-0.65625,0.375,0.640625
1629724810593,-0.65625,0.375,0.640625
1629724810625,-0.65625,0.375,0.640625
1629724810656,-0.65625,0.375,0.640625
1629724810687,-0.640625,0.375,0.640625
1629724810718,-0.65625,0.375,0.640625
1629724810750,-0.65625,0.375,0.640625
1629724810781,-0.65625,0.375,0.640625
1629724810812,-0.640625,0.375,0.640625
1629724810843,-0.65625,0.375,0.640625
1629724810875,-0.65625,0.375,0.640625
1629724810906,-0.65625,0.375,0.65625
1629724810937,-0.65625,0.375,0.640625
1629724810968,-0.65625,0.375,0.640625
1629724811000,-0.65625,0.375,0.640625
1629724811031,-0.65625,0.375,0.640625
1629724811062,-0.65625,0.375,0.640625
1629724811093,-0.65625,0.375,0.640625
1629724811125,-0.65625,0.375,0.640625
1629724811156,-0.65625,0.375,0.640625
1629724811187,-0.65625,0.375,0.640625
1629724811218,-0.65625,0.375,0.640625
1629724811250,-0.65625,0.375,0.640625
1629724811281,-0.65625,0.375,0.640625
1629724811312,-0.65625,0.375,0.640625
1629724811343,-0.640625,0.375,0.640625
1629724811375,-0.65625,0.375,0.640625
1629724811406,-0.65625,0.375,0.640625
1629724811437,-0.65625,0.375,0.640625
1629724811468,-0.65625,0.375,0.640625
1629724811500,-0.65625,0.375,0.640625
1629724811531,-0.65625,0.375,0.640625
1629724811562,-0.65625,0.375,0.640625
1629724811593,-0.65625,0.375,0.640625
1629724811625,-0.65625,0.375,0.65625
1629724811656,-0.65625,0.375,0.640625
1629724811687,-0.65625,0.375,0.640625
1629724811718,-0.65625,0.375,0.640625
1629724811750,-0.65625,0.375,0.640625
1629724811781,-0.65625,0.375,0.65625
1629724811812,-0.65625,0.375,0.640625
1629724811843,-0.65625,0.375,0.640625
1629724811875,-0.65625,0.375,0.65625
1629724811906,-0.65625,0.375,0.640625
1629724811937,-0.65625,0.375,0.640625
1629724811968,-0.65625,0.375,0.640625
1629724812000,-0.65625,0.375,0.640625
1629724812031,-0.640625,0.375,0.640625
1629724812062,-0.65625,0.375,0.640625
1629724812093,-0.65625,0.375,0.640625
1629724812125,-0.65625,0.375,0.640625
1629724812156,-0.65625,0.375,0.640625
1629724812187,-0.65625,0.375,0.640625
1629724812218,-0.65625,0.375,0.640625
1629724812250,-0.65625,0.375,0.640625
1629724812281,-0.65625,0.375,0.640625
1629724812312,-0.65625,0.375,0.640625
1629724812343,-0.65625,0.375,0.65625
1629724812375,-0.65625,0.375,0.640625
1629724812406,-0.65625,0.375,0.640625
1629724812437,-0.65625,0.375,0.640625
1629724812468,-0.65625,0.375,0.640625
1629724812500,-0.65625,0.375,0.640625
1629724812531,-0.65625,0.375,0.640625
1629724812562,-0.65625,0.375,0.640625
1629724812593,-0.65625,0.375,0.640625
1629724812625,-0.65625,0.375,0.65625
1629724812656,-0.65625,0.375,0.640625
1629724812687,-0.65625,0.375,0.640625
1629724812718,-0.65625,0.375,0.640625
1629724812750,-0.65625,0.375,0.65625
1629724812781,-0.65625,0.375,0.640625
1629724812812,-0.65625,0.375,0.640625
1629724812843,-0.65625,0.375,0.640625
1629724812875,-0.65625,0.375,0.640625
1629724812906,-0.65625,0.375,0.640625
1629724812937,-0.65625,0.375,0.640625
1629724812968,-0.65625,0.375,0.640625
1629724813000,-0.65625,0.375,0.640625
1629724813031,-0.65625,0.375,0.640625
1629724813062,-0.65625,0.375,0.640625
1629724813093,-0.65625,0.375,0.640625
1629724813125,-0.65625,0.375,0.640625
1629724813156,-0.65625,0.375,0.640625
1629724813187,-0.65625,0.375,0.640625
1629724813218,-0.65625,0.375,0.640625
1629724813250,-0.65625,0.375,0.640625
1629724813281,-0.65625,0.375,0.640625
1629724813312,-0.65625,0.375,0.640625
1629724813343,-0.65625,0.375,0.640625
1629724813375,-0.65625,0.375,0.640625
1629724813406,-0.65625,0.375,0.640625
1629724813437,-0.65625,0.375,0.640625
1629724813468,-0.65625,0.375,0.640625
1629724813500,-0.65625,0.375,0.640625
1629724813531,-0.65625,0.375,0.640625
1629724813562,-0.65625,0.375,0.640625
1629724813593,-0.65625,0.375,0.640625
1629724813625,-0.65625,0.375,0.640625
1629724813656,-0.65625,0.375,0.640625
1629724813687,-0.65625,0.375,0.640625
1629724813718,-0.65625,0.375,0.640625
1629724813750,-0.65625,0.375,0.640625
1629724813781,-0.65625,0.375,0.640625
1629724813812,-0.65625,0.375,0.640625
1629724813843,-0.65625,0.375,0.640625
1629724813875,-0.65625,0.375,0.640625
1629724813906,-0.65625,0.375,0.640625
1629724813937,-0.65625,0.375,0.640625
1629724813968,-0.65625,0.375,0.640625
1629724814000,-0.65625,0.375,0.640625
1629724814031,-0.65625,0.375,0.640625
1629724814062,-0.65625,0.375,0.640625
1629724814093,-0.65625,0.375,0.640625
1629724814125,-0.671875,0.375,0.640625
1629724814156,-0.65625,0.375,0.640625
1629724814187,-0.65625,0.375,0.640625
1629724814218,-0.65625,0.375,0.640625
1629724814250,-0.65625,0.375,0.640625
1629724814281,-0.65625,0.375,0.640625
1629724814312,-0.65625,0.375,0.640625
1629724814343,-0.65625,0.375,0.640625
1629724814375,-0.65625,0.375,0.640625
1629724814406,-0.65625,0.375,0.640625
1629724814437,-0.65625,0.375,0.640625
1629724814468,-0.65625,0.375,0.640625
1629724814500,-0.65625,0.375,0.640625
1629724814531,-0.65625,0.375,0.640625
1629724814562,-0.65625,0.375,0.640625
1629724814593,-0.65625,0.375,0.640625
1629724814625,-0.65625,0.375,0.640625
1629724814656,-0.65625,0.375,0.640625
1629724814687,-0.65625,0.375,0.640625
1629724814718,-0.65625,0.375,0.640625
1629724814750,-0.65625,0.375,0.640625
1629724814781,-0.65625,0.375,0.640625
1629724814812,-0.65625,0.375,0.640625
1629724814843,-0.65625,0.375,0.640625
1629724814875,-0.65625,0.375,0.640625
1629724814906,-0.65625,0.375,0.640625
1629724814937,-0.65625,0.375,0.640625
1629724814968,-0.65625,0.375,0.640625
1629724815000,-0.65625,0.375,0.640625
1629724815031,-0.65625,0.375,0.640625
1629724815062,-0.65625,0.375,0.640625
1629724815093,-0.65625,0.375,0.640625
1629724815125,-0.65625,0.375,0.640625
1629724815156,-0.65625,0.375,0.640625
1629724815187,-0.65625,0.375,0.640625
1629724815218,-0.65625,0.375,0.640625
1629724815250,-0.65625,0.375,0.640625
1629724815281,-0.65625,0.375,0.640625
1629724815312,-0.65625,0.375,0.640625
1629724815343,-0.65625,0.375,0.640625
1629724815375,-0.65625,0.375,0.640625
1629724815406,-0.65625,0.375,0.640625
1629724815437,-0.65625,0.375,0.640625
1629724815468,-0.65625,0.375,0.640625
1629724815500,-0.65625,0.375,0.640625
1629724815531,-0.65625,0.375,0.640625
1629724815562,-0.65625,0.375,0.640625
1629724815593,-0.65625,0.375,0.640625
1629724815625,-0.65625,0.375,0.640625
1629724815656,-0.65625,0.375,0.640625
1629724815687,-0.65625,0.375,0.640625
1629724815718,-0.65625,0.375,0.640625
1629724815750,-0.65625,0.375,0.640625
1629724815781,-0.65625,0.375,0.640625
1629724815812,-0.65625,0.375,0.640625
1629724815843,-0.65625,0.375,0.640625
1629724815875,-0.65625,0.375,0.640625
1629724815906,-0.65625,0.375,0.640625
1629724815937,-0.65625,0.375,0.640625
1629724815968,-0.65625,0.375,0.640625
1629724816000,-0.65625,0.375,0.640625
1629724816031,-0.65625,0.375,0.640625
1629724816062,-0.65625,0.375,0.640625
1629724816093,-0.65625,0.375,0.640625
1629724816125,-0.65625,0.375,0.640625
1629724816156,-0.65625,0.375,0.640625
1629724816187,-0.65625,0.375,0.640625
1629724816218,-0.65625,0.375,0.640625
1629724816250,-0.65625,0.375,0.640625
1629724816281,-0.65625,0.375,0.65625
1629724816312,-0.65625,0.375,0.640625
1629724816343,-0.65625,0.375,0.640625
1629724816375,-0.65625,0.375,0.640625
1629724816406,-0.65625,0.375,0.640625
1629724816437,-0.65625,0.375,0.640625
1629724816468,-0.65625,0.375,0.65625
1629724816500,-0.65625,0.359375,0.640625
1629724816531,-0.65625,0.375,0.640625
1629724816562,-0.65625,0.375,0.640625
1629724816593,-0.65625,0.375,0.640625
1629724816625,-0.65625,0.375,0.640625
1629724816656,-0.65625,0.375,0.640625
1629724816687,-0.65625,0.375,0.640625
1629724816718,-0.65625,0.375,0.640625
1629724816750,-0.65625,0.375,0.640625
1629724816781,-0.65625,0.375,0.640625
1629724816812,-0.65625,0.375,0.640625
1629724816843,-0.65625,0.375,0.640625
1629724816875,-0.65625,0.375,0.65625
1629724816906,-0.65625,0.375,0.640625
1629724816937,-0.65625,0.375,0.640625
1629724816968,-0.65625,0.375,0.640625
1629724817000,-0.65625,0.375,0.640625
1629724817031,-0.65625,0.375,0.640625
1629724817062,-0.65625,0.375,0.640625
1629724817093,-0.65625,0.375,0.640625
1629724817125,-0.65625,0.375,0.65625
1629724817156,-0.65625,0.375,0.640625
1629724817187,-0.65625,0.359375,0.65625
1629724817218,-0.65625,0.375,0.640625
1629724817250,-0.65625,0.375,0.640625
1629724817281,-0.65625,0.375,0.65625
1629724817312,-0.65625,0.375,0.640625
1629724817343,-0.65625,0.375,0.640625
1629724817375,-0.65625,0.375,0.640625
1629724817406,-0.640625,0.375,0.640625
1629724817437,-0.65625,0.375,0.640625
1629724817468,-0.65625,0.375,0.65625
1629724817500,-0.65625,0.375,0.640625
1629724817531,-0.65625,0.375,0.640625
1629724817562,-0.65625,0.375,0.640625
1629724817593,-0.65625,0.375,0.65625
1629724817625,-0.65625,0.375,0.65625
1629724817656,-0.65625,0.375,0.65625
1629724817687,-0.65625,0.375,0.65625
1629724817718,-0.65625,0.375,0.65625
1629724817750,-0.65625,0.375,0.640625
1629724817781,-0.65625,0.375,0.640625
1629724817812,-0.65625,0.375,0.640625
1629724817843,-0.65625,0.375,0.640625
1629724817875,-0.65625,0.375,0.65625
1629724817906,-0.65625,0.375,0.65625
1629724817937,-0.65625,0.375,0.640625
1629724817968,-0.65625,0.359375,0.65625
1629724818000,-0.65625,0.375,0.640625
1629724818031,-0.65625,0.375,0.65625
1629724818062,-0.65625,0.375,0.65625
1629724818093,-0.65625,0.375,0.640625
1629724818125,-0.65625,0.375,0.640625
1629724818156,-0.65625,0.375,0.640625
1629724818187,-0.65625,0.375,0.65625
1629724818218,-0.65625,0.375,0.640625
1629724818250,-0.65625,0.375,0.65625
1629724818281,-0.65625,0.375,0.640625
1629724818312,-0.65625,0.375,0.65625
1629724818343,-0.65625,0.375,0.65625
1629724818375,-0.65625,0.375,0.65625
1629724818406,-0.65625,0.375,0.65625
1629724818437,-0.65625,0.375,0.640625
1629724818468,-0.65625,0.375,0.640625
1629724818500,-0.640625,0.375,0.65625
1629724818531,-0.65625,0.359375,0.640625
1629724818562,-0.65625,0.375,0.640625
1629724818593,-0.65625,0.375,0.65625
1629724818625,-0.65625,0.375,0.640625
1629724818656,-0.65625,0.375,0.640625
1629724818687,-0.65625,0.375,0.65625
1629724818718,-0.65625,0.359375,0.65625
1629724818750,-0.65625,0.375,0.65625
1629724818781,-0.65625,0.375,0.65625
1629724818812,-0.65625,0.375,0.640625
1629724818843,-0.65625,0.375,0.640625
1629724818875,-0.65625,0.375,0.640625
1629724818906,-0.65625,0.375,0.65625
1629724818937,-0.65625,0.375,0.65625
1629724818968,-0.65625,0.375,0.640625
1629724819000,-0.65625,0.375,0.640625
1629724819031,-0.65625,0.375,0.65625
1629724819062,-0.65625,0.375,0.640625
1629724819093,-0.65625,0.375,0.65625
1629724819125,-0.65625,0.375,0.65625
1629724819156,-0.65625,0.375,0.65625
1629724819187,-0.65625,0.359375,0.640625
1629724819218,-0.65625,0.375,0.65625
1629724819250,-0.65625,0.375,0.640625
1629724819281,-0.65625,0.375,0.640625
1629724819312,-0.65625,0.375,0.640625
1629724819343,-0.65625,0.375,0.640625
1629724819375,-0.65625,0.375,0.640625
1629724819406,-0.671875,0.375,0.65625
1629724819437,-0.65625,0.375,0.640625
1629724819468,-0.65625,0.375,0.65625
1629724819500,-0.65625,0.375,0.640625
1629724819531,-0.65625,0.375,0.640625
1629724819562,-0.65625,0.375,0.640625
1629724819593,-0.65625,0.375,0.640625
1629724819625,-0.65625,0.375,0.640625
1629724819656,-0.65625,0.375,0.640625
1629724819687,-0.65625,0.375,0.640625
1629724819718,-0.65625,0.375,0.640625
1629724819750,-0.65625,0.375,0.640625
1629724819781,-0.65625,0.375,0.640625
1629724819812,-0.65625,0.375,0.640625
1629724819843,-0.65625,0.375,0.640625
1629724819875,-0.65625,0.375,0.640625
1629724819906,-0.65625,0.375,0.640625
1629724819937,-0.65625,0.375,0.640625
1629724819968,-0.65625,0.375,0.640625
1629724820000,-0.65625,0.375,0.640625
1629724820031,-0.65625,0.375,0.640625
1629724820062,-0.65625,0.375,0.640625
1629724820093,-0.65625,0.375,0.640625
1629724820125,-0.65625,0.375,0.640625
1629724820156,-0.65625,0.375,0.640625
1629724820187,-0.65625,0.375,0.640625
1629724820218,-0.65625,0.375,0.640625
1629724820250,-0.65625,0.375,0.640625
1629724820281,-0.65625,0.375,0.640625
1629724820312,-0.65625,0.375,0.640625
1629724820343,-0.65625,0.375,0.640625
1629724820375,-0.65625,0.375,0.640625
1629724820406,-0.65625,0.375,0.640625
1629724820437,-0.65625,0.375,0.640625
1629724820468,-0.65625,0.375,0.640625
1629724820500,-0.65625,0.375,0.640625
1629724820531,-0.65625,0.375,0.65625
1629724820562,-0.65625,0.375,0.640625
1629724820593,-0.65625,0.375,0.640625
1629724820625,-0.65625,0.375,0.640625
1629724820656,-0.65625,0.375,0.640625
1629724820687,-0.65625,0.375,0.640625
1629724820718,-0.65625,0.375,0.640625
1629724820750,-0.65625,0.375,0.640625
1629724820781,-0.65625,0.375,0.65625
1629724820812,-0.65625,0.375,0.640625
1629724820843,-0.640625,0.375,0.65625
1629724820875,-0.671875,0.375,0.640625
1629724820906,-0.65625,0.375,0.640625
1629724820937,-0.65625,0.375,0.640625
1629724820968,-0.65625,0.375,0.640625
1629724821000,-0.65625,0.375,0.640625
1629724821031,-0.65625,0.375,0.640625
1629724821062,-0.65625,0.375,0.640625
1629724821093,-0.65625,0.375,0.640625
1629724821125,-0.65625,0.375,0.640625
1629724821156,-0.65625,0.375,0.640625
1629724821187,-0.65625,0.375,0.640625
1629724821218,-0.65625,0.375,0.640625
1629724821250,-0.65625,0.375,0.640625
1629724821281,-0.65625,0.375,0.640625
1629724821312,-0.65625,0.375,0.640625
1629724821343,-0.65625,0.375,0.640625
1629724821375,-0.65625,0.375,0.640625
1629724821406,-0.65625,0.375,0.640625
1629724821437,-0.65625,0.375,0.640625
1629724821468,-0.65625,0.375,0.640625
1629724821500,-0.65625,0.375,0.640625
1629724821531,-0.65625,0.375,0.640625
1629724821562,-0.640625,0.375,0.640625
1629724821593,-0.65625,0.375,0.640625
1629724821625,-0.65625,0.375,0.65625
1629724821656,-0.65625,0.375,0.640625
1629724821687,-0.65625,0.375,0.640625
1629724821718,-0.65625,0.375,0.640625
1629724821750,-0.65625,0.375,0.640625
1629724821781,-0.65625,0.375,0.640625
1629724821812,-0.65625,0.375,0.640625
1629724821843,-0.65625,0.375,0.640625
1629724821875,-0.65625,0.375,0.640625
1629724821906,-0.65625,0.375,0.640625
1629724821937,-0.65625,0.375,0.640625
1629724821968,-0.65625,0.375,0.640625
1629724822000,-0.65625,0.375,0.640625
1629724822031,-0.65625,0.375,0.640625
1629724822062,-0.65625,0.375,0.640625
1629724822093,-0.65625,0.375,0.640625
1629724822125,-0.65625,0.375,0.640625
1629724822156,-0.65625,0.375,0.65625
1629724822187,-0.65625,0.375,0.640625
1629724822218,-0.65625,0.375,0.640625
1629724822250,-0.65625,0.375,0.640625
1629724822281,-0.65625,0.375,0.640625
1629724822312,-0.65625,0.375,0.640625
1629724822343,-0.65625,0.375,0.640625
1629724822375,-0.65625,0.375,0.640625
1629724822406,-0.65625,0.375,0.640625
1629724822437,-0.65625,0.375,0.640625
1629724822468,-0.65625,0.375,0.640625
1629724822500,-0.65625,0.375,0.640625
1629724822531,-0.65625,0.375,0.640625
1629724822562,-0.65625,0.375,0.640625
1629724822593,-0.65625,0.375,0.65625
1629724822625,-0.65625,0.375,0.640625
1629724822656,-0.65625,0.375,0.640625
1629724822687,-0.65625,0.375,0.640625
1629724822718,-0.65625,0.375,0.640625
1629724822750,-0.65625,0.375,0.640625
1629724822781,-0.65625,0.375,0.640625
1629724822812,-0.65625,0.375,0.640625
1629724822843,-0.65625,0.375,0.65625
1629724822875,-0.65625,0.375,0.640625
1629724822906,-0.65625,0.375,0.640625
1629724822937,-0.65625,0.375,0.640625
1629724822968,-0.65625,0.375,0.65625
1629724823000,-0.65625,0.375,0.640625
1629724823031,-0.65625,0.375,0.640625
1629724823062,-0.65625,0.375,0.640625
1629724823093,-0.65625,0.375,0.65625
1629724823125,-0.65625,0.375,0.65625
1629724823156,-0.65625,0.375,0.640625
1629724823187,-0.65625,0.375,0.65625
1629724823218,-0.65625,0.375,0.65625
1629724823250,-0.65625,0.359375,0.640625
1629724823281,-0.65625,0.375,0.640625
1629724823312,-0.65625,0.375,0.640625
1629724823343,-0.65625,0.375,0.640625
1629724823375,-0.65625,0.375,0.65625
1629724823406,-0.65625,0.375,0.65625
1629724823437,-0.65625,0.375,0.640625
1629724823468,-0.65625,0.375,0.65625
1629724823500,-0.65625,0.375,0.640625
1629724823531,-0.65625,0.375,0.640625
1629724823562,-0.65625,0.375,0.640625
1629724823593,-0.65625,0.375,0.640625
1629724823625,-0.640625,0.359375,0.65625
1629724823656,-0.65625,0.375,0.65625
1629724823687,-0.65625,0.359375,0.640625
1629724823718,-0.65625,0.375,0.640625
1629724823750,-0.65625,0.375,0.640625
1629724823781,-0.65625,0.375,0.640625
1629724823812,-0.65625,0.375,0.65625
1629724823843,-0.65625,0.375,0.65625
1629724823875,-0.65625,0.375,0.65625
1629724823906,-0.65625,0.375,0.65625
1629724823937,-0.65625,0.375,0.65625
1629724823968,-0.65625,0.375,0.640625
1629724824000,-0.65625,0.375,0.640625
1629724824031,-0.65625,0.375,0.65625
1629724824062,-0.65625,0.375,0.65625
1629724824093,-0.65625,0.375,0.65625
1629724824125,-0.65625,0.375,0.65625
1629724824156,-0.65625,0.375,0.65625
1629724824187,-0.65625,0.359375,0.65625
1629724824218,-0.65625,0.375,0.65625
1629724824250,-0.65625,0.359375,0.640625
1629724824281,-0.65625,0.375,0.640625
1629724824312,-0.65625,0.375,0.640625
1629724824343,-0.65625,0.375,0.65625
1629724824375,-0.65625,0.375,0.65625
1629724824406,-0.65625,0.375,0.65625
1629724824437,-0.65625,0.359375,0.640625
1629724824468,-0.65625,0.375,0.640625
1629724824500,-0.65625,0.375,0.65625
1629724824531,-0.65625,0.359375,0.65625
1629724824562,-0.65625,0.359375,0.640625
1629724824593,-0.65625,0.359375,0.65625
1629724824625,-0.65625,0.375,0.65625
1629724824656,-0.65625,0.359375,0.640625
1629724824687,-0.65625,0.375,0.640625
1629724824718,-0.65625,0.375,0.65625
1629724824750,-0.65625,0.375,0.65625
1629724824781,-0.65625,0.375,0.65625
1629724824812,-0.65625,0.359375,0.65625
1629724824843,-0.65625,0.359375,0.640625
1629724824875,-0.65625,0.359375,0.640625
1629724824906,-0.65625,0.359375,0.640625
1629724824937,-0.65625,0.375,0.640625
1629724824968,-0.65625,0.375,0.65625
1629724825000,-0.65625,0.375,0.65625
1629724825031,-0.65625,0.375,0.65625
1629724825062,-0.65625,0.359375,0.640625
1629724825093,-0.65625,0.359375,0.640625
1629724825125,-0.65625,0.375,0.640625
1629724825156,-0.65625,0.375,0.65625
1629724825187,-0.65625,0.375,0.65625
1629724825218,-0.65625,0.359375,0.65625
1629724825250,-0.65625,0.359375,0.65625
1629724825281,-0.65625,0.375,0.640625
1629724825312,-0.65625,0.375,0.65625
1629724825343,-0.65625,0.375,0.640625
1629724825375,-0.65625,0.375,0.640625
1629724825406,-0.65625,0.375,0.640625
1629724825437,-0.65625,0.375,0.65625
1629724825468,-0.65625,0.359375,0.65625
1629724825500,-0.65625,0.375,0.640625
1629724825531,-0.65625,0.375,0.65625
1629724825562,-0.640625,0.359375,0.65625
1629724825593,-0.65625,0.359375,0.640625
1629724825625,-0.65625,0.375,0.65625
1629724825656,-0.65625,0.375,0.65625
1629724825687,-0.65625,0.375,0.65625
1629724825718,-0.65625,0.375,0.65625
1629724825750,-0.65625,0.375,0.640625
1629724825781,-0.65625,0.359375,0.65625
1629724825812,-0.65625,0.375,0.65625
1629724825843,-0.65625,0.359375,0.65625
1629724825875,-0.65625,0.359375,0.640625
1629724825906,-0.65625,0.375,0.65625
1629724825937,-0.65625,0.359375,0.640625
1629724825968,-0.65625,0.375,0.65625
1629724826000,-0.65625,0.359375,0.65625
1629724826031,-0.65625,0.359375,0.65625
1629724826062,-0.65625,0.375,0.65625
1629724826093,-0.65625,0.375,0.65625
1629724826125,-0.65625,0.359375,0.65625
1629724826156,-0.65625,0.375,0.65625
1629724826187,-0.65625,0.375,0.65625
1629724826218,-0.65625,0.375,0.65625
1629724826250,-0.65625,0.359375,0.65625
1629724826281,-0.65625,0.359375,0.65625
1629724826312,-0.65625,0.375,0.640625
1629724826343,-0.65625,0.375,0.65625
1629724826375,-0.65625,0.375,0.65625
1629724826406,-0.65625,0.375,0.65625
1629724826437,-0.65625,0.375,0.65625
1629724826468,-0.65625,0.375,0.65625
1629724826500,-0.65625,0.375,0.65625
1629724826531,-0.65625,0.375,0.65625
1629724826562,-0.65625,0.375,0.65625
1629724826593,-0.65625,0.359375,0.65625
1629724826625,-0.65625,0.375,0.65625
1629724826656,-0.65625,0.375,0.65625
1629724826687,-0.65625,0.375,0.65625
1629724826718,-0.65625,0.375,0.65625
1629724826750,-0.65625,0.375,0.65625
1629724826781,-0.65625,0.375,0.65625
1629724826812,-0.65625,0.359375,0.640625
1629724826843,-0.65625,0.375,0.65625
1629724826875,-0.65625,0.375,0.65625
1629724826906,-0.65625,0.375,0.65625
1629724826937,-0.65625,0.375,0.65625
1629724826968,-0.65625,0.375,0.65625
1629724827000,-0.65625,0.375,0.640625
1629724827031,-0.65625,0.375,0.640625
1629724827062,-0.65625,0.375,0.640625
1629724827093,-0.65625,0.375,0.640625
1629724827125,-0.65625,0.375,0.640625
1629724827156,-0.65625,0.375,0.65625
1629724827187,-0.65625,0.375,0.65625
1629724827218,-0.65625,0.375,0.65625
1629724827250,-0.65625,0.375,0.65625
1629724827281,-0.65625,0.375,0.640625
1629724827312,-0.65625,0.375,0.640625
1629724827343,-0.65625,0.375,0.640625
1629724827375,-0.65625,0.375,0.640625
1629724827406,-0.65625,0.375,0.640625
1629724827437,-0.65625,0.375,0.640625
1629724827468,-0.65625,0.375,0.640625
1629724827500,-0.65625,0.375,0.640625
1629724827531,-0.65625,0.375,0.65625
1629724827562,-0.65625,0.375,0.640625
1629724827593,-0.65625,0.375,0.640625
1629724827625,-0.65625,0.375,0.65625
1629724827656,-0.65625,0.375,0.640625
1629724827687,-0.65625,0.375,0.65625
1629724827718,-0.65625,0.375,0.640625
1629724827750,-0.65625,0.375,0.640625
1629724827781,-0.65625,0.375,0.640625
1629724827812,-0.65625,0.375,0.640625
1629724827843,-0.65625,0.375,0.65625
1629724827875,-0.65625,0.375,0.65625
1629724827906,-0.65625,0.375,0.640625
1629724827937,-0.65625,0.375,0.640625
1629724827968,-0.65625,0.375,0.65625
1629724828000,-0.65625,0.375,0.640625
1629724828031,-0.65625,0.375,0.65625
1629724828062,-0.65625,0.375,0.640625
1629724828093,-0.65625,0.375,0.640625
1629724828125,-0.65625,0.375,0.640625
1629724828156,-0.65625,0.375,0.640625
1629724828187,-0.65625,0.375,0.640625
1629724828218,-0.65625,0.375,0.640625
1629724828250,-0.65625,0.375,0.65625
1629724828281,-0.65625,0.375,0.640625
1629724828312,-0.65625,0.375,0.640625
1629724828343,-0.640625,0.375,0.65625
1629724828375,-0.65625,0.375,0.640625
1629724828406,-0.671875,0.375,0.640625
1629724828437,-0.640625,0.375,0.640625
1629724828468,-0.65625,0.375,0.640625
1629724828500,-0.65625,0.375,0.640625
1629724828531,-0.65625,0.375,0.640625
1629724828562,-0.65625,0.375,0.640625
1629724828593,-0.65625,0.375,0.640625
1629724828625,-0.65625,0.375,0.640625
1629724828656,-0.65625,0.375,0.640625
1629724828687,-0.65625,0.375,0.640625
1629724828718,-0.65625,0.375,0.640625
1629724828750,-0.65625,0.375,0.640625
1629724828781,-0.65625,0.375,0.640625
1629724828812,-0.65625,0.375,0.640625
1629724828843,-0.65625,0.375,0.640625
1629724828875,-0.65625,0.375,0.640625
1629724828906,-0.65625,0.375,0.640625
1629724828937,-0.65625,0.375,0.640625
1629724828968,-0.65625,0.375,0.640625
1629724829000,-0.65625,0.375,0.640625
1629724829031,-0.65625,0.375,0.640625
1629724829062,-0.65625,0.375,0.65625
1629724829093,-0.65625,0.375,0.640625
1629724829125,-0.65625,0.375,0.640625
1629724829156,-0.65625,0.375,0.65625
1629724829187,-0.65625,0.375,0.640625
1629724829218,-0.65625,0.375,0.640625
1629724829250,-0.65625,0.375,0.640625
1629724829281,-0.640625,0.375,0.65625
1629724829312,-0.65625,0.375,0.640625
1629724829343,-0.65625,0.375,0.65625
1629724829375,-0.65625,0.375,0.640625
1629724829406,-0.65625,0.359375,0.640625
1629724829437,-0.65625,0.375,0.640625
1629724829468,-0.65625,0.375,0.65625
1629724829500,-0.65625,0.375,0.640625
1629724829531,-0.65625,0.375,0.640625
1629724829562,-0.65625,0.375,0.640625
1629724829593,-0.65625,0.375,0.640625
1629724829625,-0.65625,0.375,0.640625
1629724829656,-0.65625,0.375,0.640625
1629724829687,-0.65625,0.375,0.640625
1629724829718,-0.65625,0.375,0.640625
1629724829750,-0.65625,0.375,0.640625
1629724829781,-0.65625,0.375,0.65625
1629724829812,-0.65625,0.359375,0.640625
1629724829843,-0.65625,0.375,0.640625
1629724829875,-0.65625,0.375,0.640625
1629724829906,-0.65625,0.375,0.65625
1629724829937,-0.65625,0.375,0.640625
1629724829968,-0.65625,0.375,0.640625
1629724830000,-0.65625,0.375,0.640625
1629724830031,-0.65625,0.359375,0.640625
1629724830062,-0.65625,0.375,0.640625
1629724830093,-0.65625,0.375,0.65625
1629724830125,-0.65625,0.375,0.640625
1629724830156,-0.65625,0.375,0.640625
1629724830187,-0.65625,0.375,0.65625
1629724830218,-0.65625,0.375,0.65625
1629724830250,-0.65625,0.375,0.640625
1629724830281,-0.65625,0.375,0.65625
1629724830312,-0.65625,0.375,0.640625
1629724830343,-0.65625,0.375,0.640625
1629724830375,-0.65625,0.375,0.640625
1629724830406,-0.65625,0.375,0.640625
1629724830437,-0.65625,0.375,0.640625
1629724830468,-0.65625,0.375,0.640625
1629724830500,-0.65625,0.375,0.640625
1629724830531,-0.65625,0.375,0.65625
1629724830562,-0.65625,0.375,0.65625
1629724830593,-0.65625,0.375,0.65625
1629724830625,-0.65625,0.375,0.640625
1629724830656,-0.65625,0.375,0.640625
1629724830687,-0.65625,0.375,0.65625
1629724830718,-0.65625,0.375,0.65625
1629724830750,-0.65625,0.375,0.640625
1629724830781,-0.65625,0.375,0.65625
1629724830812,-0.65625,0.359375,0.640625
1629724830843,-0.65625,0.375,0.65625
1629724830875,-0.65625,0.359375,0.65625
1629724830906,-0.65625,0.359375,0.640625
1629724830937,-0.65625,0.375,0.65625
1629724830968,-0.65625,0.375,0.65625
1629724831000,-0.65625,0.375,0.65625
1629724831031,-0.640625,0.375,0.640625
1629724831062,-0.65625,0.359375,0.640625
1629724831093,-0.65625,0.359375,0.65625
1629724831125,-0.65625,0.375,0.65625
1629724831156,-0.65625,0.375,0.65625
1629724831187,-0.65625,0.359375,0.640625
1629724831218,-0.65625,0.359375,0.65625
1629724831250,-0.65625,0.375,0.65625
1629724831281,-0.65625,0.375,0.65625
1629724831312,-0.65625,0.375,0.65625
1629724831343,-0.65625,0.359375,0.65625
1629724831375,-0.65625,0.359375,0.65625
1629724831406,-0.65625,0.375,0.640625
1629724831437,-0.65625,0.375,0.65625
1629724831468,-0.65625,0.359375,0.640625
1629724831500,-0.65625,0.359375,0.640625
1629724831531,-0.65625,0.375,0.640625
1629724831562,-0.65625,0.375,0.65625
1629724831593,-0.65625,0.375,0.65625
1629724831625,-0.65625,0.375,0.640625
1629724831656,-0.65625,0.359375,0.640625
1629724831687,-0.65625,0.359375,0.65625
1629724831718,-0.65625,0.375,0.65625
1629724831750,-0.65625,0.359375,0.65625
1629724831781,-0.65625,0.359375,0.65625
1629724831812,-0.65625,0.359375,0.65625
1629724831843,-0.65625,0.375,0.640625
1629724831875,-0.65625,0.375,0.65625
1629724831906,-0.65625,0.359375,0.65625
1629724831937,-0.65625,0.359375,0.65625
1629724831968,-0.65625,0.359375,0.65625
1629724832000,-0.65625,0.375,0.65625
1629724832031,-0.65625,0.359375,0.65625
1629724832062,-0.640625,0.359375,0.65625
1629724832093,-0.65625,0.359375,0.65625
1629724832125,-0.65625,0.375,0.65625
1629724832156,-0.65625,0.359375,0.65625
1629724832187,-0.65625,0.359375,0.65625
1629724832218,-0.65625,0.359375,0.640625
1629724832250,-0.65625,0.359375,0.65625
1629724832281,-0.640625,0.359375,0.65625
1629724832312,-0.65625,0.375,0.65625
1629724832343,-0.65625,0.359375,0.65625
1629724832375,-0.65625,0.359375,0.65625
1629724832406,-0.65625,0.375,0.65625
1629724832437,-0.65625,0.375,0.65625
1629724832468,-0.65625,0.359375,0.65625
1629724832500,-0.65625,0.359375,0.65625
1629724832531,-0.65625,0.359375,0.65625
1629724832562,-0.65625,0.359375,0.65625
1629724832593,-0.65625,0.359375,0.65625
1629724832625,-0.65625,0.375,0.65625
1629724832656,-0.65625,0.359375,0.65625
1629724832687,-0.65625,0.359375,0.65625
1629724832718,-0.65625,0.359375,0.65625
1629724832750,-0.65625,0.359375,0.65625
1629724832781,-0.65625,0.359375,0.65625
1629724832812,-0.65625,0.359375,0.65625
1629724832843,-0.65625,0.359375,0.640625
1629724832875,-0.65625,0.359375,0.65625
1629724832906,-0.65625,0.359375,0.640625
1629724832937,-0.65625,0.359375,0.65625
1629724832968,-0.65625,0.359375,0.65625
1629724833000,-0.65625,0.359375,0.640625
1629724833031,-0.65625,0.359375,0.65625
1629724833062,-0.640625,0.359375,0.65625
1629724833093,-0.640625,0.359375,0.65625
1629724833125,-0.65625,0.359375,0.640625
1629724833156,-0.65625,0.359375,0.640625
1629724833187,-0.65625,0.375,0.640625
1629724833218,-0.65625,0.359375,0.65625
1629724833250,-0.65625,0.359375,0.65625
1629724833281,-0.65625,0.359375,0.65625
1629724833312,-0.65625,0.359375,0.65625
1629724833343,-0.65625,0.359375,0.65625
1629724833375,-0.65625,0.375,0.640625
1629724833406,-0.65625,0.359375,0.65625
1629724833437,-0.65625,0.359375,0.65625
1629724833468,-0.65625,0.359375,0.65625
1629724833500,-0.65625,0.359375,0.65625
1629724833531,-0.65625,0.359375,0.65625
1629724833562,-0.65625,0.359375,0.65625
1629724833593,-0.65625,0.359375,0.640625
1629724833625,-0.65625,0.359375,0.65625
1629724833656,-0.65625,0.359375,0.65625
1629724833687,-0.65625,0.375,0.65625
1629724833718,-0.65625,0.359375,0.65625
1629724833750,-0.65625,0.359375,0.65625
1629724833781,-0.65625,0.359375,0.640625
1629724833812,-0.65625,0.375,0.640625
1629724833843,-0.65625,0.359375,0.65625
1629724833875,-0.65625,0.359375,0.65625
1629724833906,-0.65625,0.359375,0.640625
1629724833937,-0.65625,0.359375,0.640625
1629724833968,-0.65625,0.359375,0.65625
1629724834000,-0.65625,0.359375,0.65625
1629724834031,-0.65625,0.359375,0.65625
1629724834062,-0.65625,0.359375,0.640625
1629724834093,-0.65625,0.359375,0.65625
1629724834125,-0.640625,0.359375,0.65625
1629724834156,-0.65625,0.359375,0.65625
1629724834187,-0.65625,0.359375,0.65625
1629724834218,-0.65625,0.375,0.65625
1629724834250,-0.65625,0.359375,0.65625
1629724834281,-0.65625,0.359375,0.65625
1629724834312,-0.65625,0.359375,0.65625
1629724834343,-0.65625,0.375,0.65625
1629724834375,-0.65625,0.375,0.65625
1629724834406,-0.65625,0.359375,0.65625
1629724834437,-0.65625,0.359375,0.65625
1629724834468,-0.65625,0.359375,0.640625
1629724834500,-0.65625,0.359375,0.65625
1629724834531,-0.65625,0.359375,0.65625
1629724834562,-0.65625,0.375,0.65625
1629724834593,-0.65625,0.359375,0.65625
1629724834625,-0.65625,0.359375,0.640625
1629724834656,-0.65625,0.359375,0.640625
1629724834687,-0.65625,0.375,0.640625
1629724834718,-0.65625,0.375,0.640625
1629724834750,-0.65625,0.375,0.640625
1629724834781,-0.65625,0.359375,0.640625
1629724834812,-0.65625,0.375,0.640625
1629724834843,-0.65625,0.375,0.640625
1629724834875,-0.65625,0.375,0.65625
1629724834906,-0.65625,0.375,0.640625
1629724834937,-0.65625,0.359375,0.640625
1629724834968,-0.65625,0.375,0.65625
1629724835000,-0.65625,0.375,0.640625
1629724835031,-0.65625,0.375,0.640625
1629724835062,-0.65625,0.359375,0.640625
1629724835093,-0.65625,0.375,0.640625
1629724835125,-0.65625,0.359375,0.640625
1629724835156,-0.65625,0.375,0.640625
1629724835187,-0.65625,0.375,0.65625
1629724835218,-0.65625,0.375,0.640625
1629724835250,-0.65625,0.359375,0.640625
1629724835281,-0.65625,0.375,0.640625
1629724835312,-0.65625,0.359375,0.640625
1629724835343,-0.65625,0.375,0.65625
1629724835375,-0.65625,0.375,0.640625
1629724835406,-0.65625,0.375,0.640625
1629724835437,-0.65625,0.359375,0.640625
1629724835468,-0.65625,0.375,0.640625
1629724835500,-0.65625,0.375,0.640625
1629724835531,-0.65625,0.375,0.640625
1629724835562,-0.65625,0.375,0.65625
1629724835593,-0.65625,0.359375,0.640625
1629724835625,-0.65625,0.375,0.640625
1629724835656,-0.65625,0.375,0.640625
1629724835687,-0.65625,0.375,0.640625
1629724835718,-0.65625,0.375,0.640625
1629724835750,-0.65625,0.375,0.65625
1629724835781,-0.65625,0.375,0.640625
1629724835812,-0.65625,0.375,0.640625
1629724835843,-0.65625,0.375,0.640625
1629724835875,-0.65625,0.375,0.65625
1629724835906,-0.65625,0.375,0.640625
1629724835937,-0.65625,0.375,0.640625
1629724835968,-0.65625,0.375,0.65625
1629724836000,-0.65625,0.375,0.640625
1629724836031,-0.65625,0.359375,0.640625
1629724836062,-0.65625,0.375,0.65625
1629724836093,-0.65625,0.375,0.640625
1629724836125,-0.65625,0.375,0.640625
1629724836156,-0.65625,0.375,0.640625
1629724836187,-0.65625,0.375,0.65625
1629724836218,-0.65625,0.375,0.640625
1629724836250,-0.65625,0.375,0.640625
1629724836281,-0.65625,0.375,0.640625
1629724836312,-0.65625,0.359375,0.640625
1629724836343,-0.65625,0.375,0.640625
1629724836375,-0.65625,0.375,0.640625
1629724836406,-0.65625,0.375,0.640625
1629724836437,-0.65625,0.375,0.640625
1629724836468,-0.65625,0.359375,0.640625
1629724836500,-0.65625,0.375,0.65625
1629724836531,-0.65625,0.375,0.640625
1629724836562,-0.65625,0.375,0.640625
1629724836593,-0.65625,0.375,0.640625
1629724836625,-0.65625,0.359375,0.640625
1629724836656,-0.65625,0.375,0.65625
1629724836687,-0.65625,0.375,0.640625
1629724836718,-0.65625,0.375,0.640625
1629724836750,-0.65625,0.375,0.640625
1629724836781,-0.65625,0.375,0.640625
1629724836812,-0.65625,0.359375,0.640625
1629724836843,-0.65625,0.375,0.640625
1629724836875,-0.65625,0.359375,0.640625
1629724836906,-0.65625,0.375,0.640625
1629724836937,-0.65625,0.375,0.640625
1629724836968,-0.65625,0.375,0.640625
1629724837000,-0.65625,0.375,0.640625
1629724837031,-0.65625,0.375,0.640625
1629724837062,-0.65625,0.375,0.640625
1629724837093,-0.65625,0.375,0.65625
1629724837125,-0.65625,0.375,0.65625
1629724837156,-0.65625,0.375,0.640625
1629724837187,-0.65625,0.375,0.640625
1629724837218,-0.65625,0.375,0.640625
1629724837250,-0.65625,0.375,0.65625
1629724837281,-0.65625,0.375,0.640625
1629724837312,-0.65625,0.359375,0.640625
1629724837343,-0.65625,0.359375,0.640625
1629724837375,-0.65625,0.359375,0.640625
1629724837406,-0.65625,0.359375,0.640625
1629724837437,-0.65625,0.375,0.640625
1629724837468,-0.65625,0.375,0.640625
1629724837500,-0.65625,0.359375,0.640625
1629724837531,-0.65625,0.359375,0.640625
1629724837562,-0.65625,0.359375,0.640625
1629724837593,-0.65625,0.375,0.65625
1629724837625,-0.65625,0.359375,0.640625
1629724837656,-0.65625,0.375,0.65625
1629724837687,-0.65625,0.375,0.640625
1629724837718,-0.65625,0.375,0.65625
1629724837750,-0.65625,0.359375,0.65625
1629724837781,-0.65625,0.359375,0.640625
1629724837812,-0.65625,0.375,0.640625
1629724837843,-0.65625,0.375,0.640625
1629724837875,-0.65625,0.375,0.65625
1629724837906,-0.65625,0.375,0.640625
1629724837937,-0.65625,0.359375,0.65625
1629724837968,-0.65625,0.359375,0.65625
1629724838000,-0.65625,0.375,0.65625
1629724838031,-0.65625,0.375,0.65625
1629724838062,-0.65625,0.375,0.640625
1629724838093,-0.65625,0.359375,0.640625
1629724838125,-0.65625,0.359375,0.640625
1629724838156,-0.65625,0.359375,0.640625
1629724838187,-0.65625,0.359375,0.640625
1629724838218,-0.65625,0.359375,0.640625
1629724838250,-0.65625,0.359375,0.640625
1629724838281,-0.65625,0.375,0.640625
1629724838312,-0.65625,0.375,0.65625
1629724838343,-0.65625,0.359375,0.65625
1629724838375,-0.65625,0.375,0.65625
1629724838406,-0.65625,0.359375,0.65625
1629724838437,-0.65625,0.375,0.640625
1629724838468,-0.65625,0.359375,0.65625
1629724838500,-0.65625,0.359375,0.640625
1629724838531,-0.65625,0.359375,0.65625
1629724838562,-0.65625,0.359375,0.640625
1629724838593,-0.65625,0.375,0.65625
1629724838625,-0.65625,0.359375,0.640625
1629724838656,-0.65625,0.359375,0.640625
1629724838687,-0.65625,0.359375,0.65625
1629724838718,-0.65625,0.359375,0.65625
1629724838750,-0.65625,0.359375,0.640625
1629724838781,-0.65625,0.359375,0.65625
1629724838812,-0.65625,0.359375,0.640625
1629724838843,-0.65625,0.359375,0.65625
1629724838875,-0.65625,0.359375,0.640625
1629724838906,-0.65625,0.375,0.65625
1629724838937,-0.65625,0.359375,0.65625
1629724838968,-0.65625,0.375,0.65625
1629724839000,-0.65625,0.359375,0.65625
1629724839031,-0.65625,0.359375,0.640625
1629724839062,-0.65625,0.359375,0.65625
1629724839093,-0.65625,0.359375,0.65625
1629724839125,-0.65625,0.359375,0.65625
1629724839156,-0.65625,0.359375,0.640625
1629724839187,-0.65625,0.359375,0.65625
1629724839218,-0.65625,0.359375,0.65625
1629724839250,-0.65625,0.359375,0.65625
1629724839281,-0.65625,0.359375,0.65625
1629724839312,-0.65625,0.359375,0.65625
1629724839343,-0.65625,0.359375,0.640625
1629724839375,-0.65625,0.359375,0.65625
1629724839406,-0.65625,0.359375,0.65625
1629724839437,-0.65625,0.359375,0.65625
1629724839468,-0.65625,0.359375,0.65625
1629724839500,-0.640625,0.359375,0.65625
1629724839531,-0.65625,0.359375,0.640625
1629724839562,-0.65625,0.359375,0.65625
1629724839593,-0.65625,0.359375,0.65625
1629724839625,-0.65625,0.359375,0.65625
1629724839656,-0.65625,0.359375,0.640625
1629724839687,-0.640625,0.359375,0.65625
1629724839718,-0.640625,0.359375,0.640625
1629724839750,-0.65625,0.375,0.65625
1629724839781,-0.65625,0.375,0.65625
1629724839812,-0.65625,0.359375,0.65625
1629724839843,-0.65625,0.359375,0.65625
1629724839875,-0.65625,0.359375,0.65625
1629724839906,-0.65625,0.359375,0.65625
1629724839937,-0.65625,0.359375,0.65625
1629724839968,-0.65625,0.359375,0.65625
1629724840000,-0.65625,0.359375,0.65625
1629724840031,-0.65625,0.359375,0.65625
1629724840062,-0.65625,0.359375,0.65625
1629724840093,-0.65625,0.359375,0.65625
1629724840125,-0.65625,0.359375,0.65625
1629724840156,-0.65625,0.359375,0.65625
1629724840187,-0.65625,0.359375,0.65625
1629724840218,-0.65625,0.359375,0.65625
1629724840250,-0.65625,0.359375,0.65625
1629724840281,-0.65625,0.359375,0.65625
1629724840312,-0.65625,0.359375,0.65625
1629724840343,-0.65625,0.359375,0.65625
1629724840375,-0.65625,0.359375,0.65625
1629724840406,-0.65625,0.359375,0.65625
1629724840437,-0.65625,0.359375,0.65625
1629724840468,-0.65625,0.359375,0.640625
1629724840500,-0.65625,0.359375,0.65625
1629724840531,-0.65625,0.359375,0.65625
1629724840562,-0.65625,0.359375,0.65625
1629724840593,-0.65625,0.359375,0.65625
1629724840625,-0.65625,0.359375,0.640625
1629724840656,-0.65625,0.359375,0.65625
1629724840687,-0.65625,0.359375,0.65625
1629724840718,-0.65625,0.359375,0.640625
1629724840750,-0.65625,0.359375,0.640625
1629724840781,-0.65625,0.359375,0.65625
1629724840812,-0.65625,0.359375,0.65625
1629724840843,-0.65625,0.359375,0.640625
1629724840875,-0.65625,0.359375,0.65625
1629724840906,-0.65625,0.359375,0.65625
1629724840937,-0.65625,0.359375,0.65625
1629724840968,-0.65625,0.359375,0.65625
1629724841000,-0.65625,0.359375,0.65625
1629724841031,-0.65625,0.359375,0.640625
1629724841062,-0.65625,0.359375,0.65625
1629724841093,-0.65625,0.359375,0.65625
1629724841125,-0.65625,0.359375,0.65625
1629724841156,-0.65625,0.359375,0.65625
1629724841187,-0.65625,0.359375,0.65625
1629724841218,-0.65625,0.359375,0.65625
1629724841250,-0.65625,0.359375,0.65625
1629724841281,-0.65625,0.359375,0.65625
1629724841312,-0.65625,0.359375,0.65625
1629724841343,-0.65625,0.359375,0.640625
1629724841375,-0.65625,0.359375,0.65625
1629724841406,-0.65625,0.359375,0.65625
1629724841437,-0.65625,0.359375,0.640625
1629724841468,-0.65625,0.359375,0.65625
1629724841500,-0.65625,0.359375,0.65625
1629724841531,-0.65625,0.359375,0.65625
1629724841562,-0.65625,0.359375,0.65625
1629724841593,-0.65625,0.375,0.65625
1629724841625,-0.65625,0.359375,0.65625
1629724841656,-0.65625,0.359375,0.640625
1629724841687,-0.65625,0.359375,0.65625
1629724841718,-0.65625,0.359375,0.640625
1629724841750,-0.65625,0.359375,0.640625
1629724841781,-0.65625,0.359375,0.65625
1629724841812,-0.65625,0.359375,0.640625
1629724841843,-0.65625,0.359375,0.65625
1629724841875,-0.65625,0.375,0.65625
1629724841906,-0.65625,0.359375,0.640625
1629724841937,-0.65625,0.359375,0.65625
1629724841968,-0.65625,0.375,0.65625
1629724842000,-0.65625,0.359375,0.65625
1629724842031,-0.65625,0.359375,0.640625
1629724842062,-0.65625,0.359375,0.65625
1629724842093,-0.65625,0.359375,0.640625
1629724842125,-0.65625,0.359375,0.65625
1629724842156,-0.65625,0.375,0.65625
1629724842187,-0.65625,0.359375,0.640625
1629724842218,-0.65625,0.359375,0.640625
1629724842250,-0.65625,0.359375,0.640625
1629724842281,-0.65625,0.359375,0.640625
1629724842312,-0.65625,0.375,0.640625
1629724842343,-0.65625,0.375,0.640625
1629724842375,-0.65625,0.375,0.640625
1629724842406,-0.65625,0.375,0.640625
1629724842437,-0.65625,0.375,0.640625
1629724842468,-0.65625,0.359375,0.640625
1629724842500,-0.65625,0.359375,0.640625
1629724842531,-0.65625,0.359375,0.640625
1629724842562,-0.65625,0.375,0.640625
1629724842593,-0.65625,0.359375,0.640625
1629724842625,-0.65625,0.359375,0.640625
1629724842656,-0.65625,0.359375,0.640625
1629724842687,-0.65625,0.359375,0.640625
1629724842718,-0.65625,0.359375,0.65625
1629724842750,-0.65625,0.375,0.640625
1629724842781,-0.65625,0.359375,0.640625
1629724842812,-0.65625,0.359375,0.640625
1629724842843,-0.65625,0.375,0.640625
1629724842875,-0.65625,0.375,0.65625
1629724842906,-0.65625,0.375,0.65625
1629724842937,-0.65625,0.359375,0.640625
1629724842968,-0.65625,0.359375,0.640625
1629724843000,-0.65625,0.375,0.640625
1629724843031,-0.65625,0.359375,0.640625
1629724843062,-0.65625,0.359375,0.640625
1629724843093,-0.65625,0.359375,0.640625
1629724843125,-0.65625,0.359375,0.640625
1629724843156,-0.65625,0.359375,0.640625
1629724843187,-0.65625,0.359375,0.640625
1629724843218,-0.65625,0.375,0.640625
1629724843250,-0.65625,0.375,0.65625
1629724843281,-0.65625,0.359375,0.640625
1629724843312,-0.65625,0.375,0.640625
1629724843343,-0.65625,0.375,0.640625
1629724843375,-0.65625,0.375,0.640625
1629724843406,-0.671875,0.375,0.640625
1629724843437,-0.65625,0.375,0.640625
1629724843468,-0.65625,0.375,0.640625
1629724843500,-0.65625,0.359375,0.65625
1629724843531,-0.65625,0.359375,0.640625
1629724843562,-0.65625,0.359375,0.640625
1629724843593,-0.65625,0.375,0.640625
1629724843625,-0.65625,0.375,0.65625
1629724843656,-0.65625,0.359375,0.640625
1629724843687,-0.65625,0.359375,0.640625
1629724843718,-0.65625,0.375,0.65625
1629724843750,-0.65625,0.375,0.640625
1629724843781,-0.65625,0.375,0.65625
1629724843812,-0.65625,0.359375,0.640625
1629724843843,-0.65625,0.359375,0.65625
1629724843875,-0.65625,0.375,0.640625
1629724843906,-0.65625,0.359375,0.65625
1629724843937,-0.65625,0.359375,0.640625
1629724843968,-0.65625,0.359375,0.640625
1629724844000,-0.65625,0.359375,0.640625
1629724844031,-0.65625,0.359375,0.640625
1629724844062,-0.65625,0.359375,0.640625
1629724844093,-0.65625,0.359375,0.640625
1629724844125,-0.65625,0.359375,0.640625
1629724844156,-0.65625,0.359375,0.640625
1629724844187,-0.65625,0.375,0.640625
1629724844218,-0.65625,0.359375,0.640625
1629724844250,-0.65625,0.359375,0.640625
1629724844281,-0.65625,0.359375,0.65625
1629724844312,-0.671875,0.359375,0.640625
1629724844343,-0.65625,0.359375,0.65625
1629724844375,-0.65625,0.359375,0.65625
1629724844406,-0.65625,0.359375,0.640625
1629724844437,-0.65625,0.359375,0.640625
1629724844468,-0.65625,0.359375,0.65625
1629724844500,-0.65625,0.375,0.640625
1629724844531,-0.65625,0.359375,0.640625
1629724844562,-0.65625,0.359375,0.65625
1629724844593,-0.65625,0.359375,0.640625
1629724844625,-0.65625,0.359375,0.640625
1629724844656,-0.65625,0.359375,0.640625
1629724844687,-0.65625,0.359375,0.65625
1629724844718,-0.65625,0.359375,0.65625
1629724844750,-0.65625,0.359375,0.640625
1629724844781,-0.65625,0.359375,0.640625
1629724844812,-0.65625,0.359375,0.65625
1629724844843,-0.65625,0.359375,0.640625
1629724844875,-0.65625,0.359375,0.65625
1629724844906,-0.65625,0.359375,0.640625
1629724844937,-0.65625,0.359375,0.640625
1629724844968,-0.65625,0.359375,0.65625
1629724845000,-0.65625,0.359375,0.640625
1629724845031,-0.65625,0.359375,0.640625
1629724845062,-0.65625,0.359375,0.640625
1629724845093,-0.65625,0.359375,0.640625
1629724845125,-0.65625,0.359375,0.640625
1629724845156,-0.65625,0.359375,0.640625
1629724845187,-0.65625,0.359375,0.640625
1629724845218,-0.65625,0.359375,0.640625
1629724845250,-0.65625,0.359375,0.640625
1629724845281,-0.65625,0.359375,0.65625
1629724845312,-0.65625,0.359375,0.640625
1629724845343,-0.65625,0.359375,0.65625
1629724845375,-0.65625,0.359375,0.640625
1629724845406,-0.65625,0.359375,0.65625
1629724845437,-0.65625,0.359375,0.65625
1629724845468,-0.65625,0.359375,0.640625
1629724845500,-0.65625,0.359375,0.65625
1629724845531,-0.65625,0.359375,0.640625
1629724845562,-0.65625,0.359375,0.65625
1629724845593,-0.65625,0.359375,0.65625
1629724845625,-0.65625,0.359375,0.65625
1629724845656,-0.65625,0.359375,0.65625
1629724845687,-0.65625,0.359375,0.65625
1629724845718,-0.65625,0.359375,0.65625
1629724845750,-0.65625,0.359375,0.65625
1629724845781,-0.65625,0.359375,0.65625
1629724845812,-0.65625,0.359375,0.640625
1629724845843,-0.65625,0.359375,0.65625
1629724845875,-0.65625,0.359375,0.65625
1629724845906,-0.65625,0.359375,0.65625
1629724845937,-0.65625,0.359375,0.65625
1629724845968,-0.65625,0.359375,0.65625
1629724846000,-0.65625,0.359375,0.65625
1629724846031,-0.65625,0.359375,0.65625
1629724846062,-0.65625,0.359375,0.640625
1629724846093,-0.671875,0.359375,0.65625
1629724846125,-0.65625,0.359375,0.65625
1629724846156,-0.65625,0.359375,0.65625
1629724846187,-0.65625,0.359375,0.65625
1629724846218,-0.65625,0.359375,0.65625
1629724846250,-0.65625,0.359375,0.65625
1629724846281,-0.65625,0.359375,0.65625
1629724846312,-0.65625,0.359375,0.65625
1629724846343,-0.65625,0.359375,0.65625
1629724846375,-0.65625,0.359375,0.65625
1629724846406,-0.671875,0.359375,0.65625
1629724846437,-0.640625,0.359375,0.640625
1629724846468,-0.671875,0.359375,0.640625
1629724846500,-0.65625,0.359375,0.65625
1629724846531,-0.65625,0.359375,0.65625
1629724846562,-0.65625,0.359375,0.640625
1629724846593,-0.65625,0.359375,0.65625
1629724846625,-0.65625,0.359375,0.65625
1629724846656,-0.671875,0.359375,0.65625
1629724846687,-0.65625,0.359375,0.65625
1629724846718,-0.65625,0.359375,0.65625
1629724846750,-0.65625,0.359375,0.65625
1629724846781,-0.65625,0.359375,0.65625
1629724846812,-0.65625,0.359375,0.65625
1629724846843,-0.65625,0.359375,0.640625
1629724846875,-0.65625,0.359375,0.65625
1629724846906,-0.65625,0.359375,0.640625
1629724846937,-0.65625,0.359375,0.65625
1629724846968,-0.65625,0.359375,0.65625
1629724847000,-0.65625,0.359375,0.65625
1629724847031,-0.65625,0.359375,0.65625
1629724847062,-0.65625,0.359375,0.640625
1629724847093,-0.65625,0.359375,0.65625
1629724847125,-0.65625,0.359375,0.65625
1629724847156,-0.65625,0.359375,0.65625
1629724847187,-0.65625,0.359375,0.65625
1629724847218,-0.65625,0.359375,0.65625
1629724847250,-0.65625,0.359375,0.65625
1629724847281,-0.65625,0.359375,0.65625
1629724847312,-0.65625,0.359375,0.65625
1629724847343,-0.65625,0.359375,0.65625
1629724847375,-0.65625,0.359375,0.65625
1629724847406,-0.65625,0.359375,0.65625
1629724847437,-0.65625,0.359375,0.65625
1629724847468,-0.65625,0.359375,0.640625
1629724847500,-0.65625,0.359375,0.65625
1629724847531,-0.65625,0.359375,0.65625
1629724847562,-0.65625,0.359375,0.65625
1629724847593,-0.65625,0.359375,0.65625
1629724847625,-0.65625,0.359375,0.65625
1629724847656,-0.65625,0.359375,0.65625
1629724847687,-0.65625,0.359375,0.65625
1629724847718,-0.65625,0.359375,0.65625
1629724847750,-0.65625,0.359375,0.65625
1629724847781,-0.65625,0.359375,0.640625
1629724847812,-0.65625,0.359375,0.65625
1629724847843,-0.65625,0.359375,0.65625
1629724847875,-0.65625,0.359375,0.65625
1629724847906,-0.65625,0.359375,0.65625
1629724847937,-0.65625,0.359375,0.640625
1629724847968,-0.65625,0.359375,0.65625
1629724848000,-0.65625,0.359375,0.65625
1629724848031,-0.65625,0.359375,0.65625
1629724848062,-0.65625,0.359375,0.65625
1629724848093,-0.65625,0.359375,0.65625
1629724848125,-0.65625,0.359375,0.65625
1629724848156,-0.65625,0.359375,0.640625
1629724848187,-0.65625,0.359375,0.65625
1629724848218,-0.65625,0.359375,0.65625
1629724848250,-0.65625,0.359375,0.640625
1629724848281,-0.65625,0.359375,0.65625
1629724848312,-0.65625,0.359375,0.65625
1629724848343,-0.65625,0.359375,0.640625
1629724848375,-0.65625,0.359375,0.65625
1629724848406,-0.65625,0.359375,0.65625
1629724848437,-0.65625,0.359375,0.65625
1629724848468,-0.65625,0.375,0.640625
1629724848500,-0.65625,0.359375,0.65625
1629724848531,-0.65625,0.359375,0.640625
1629724848562,-0.65625,0.359375,0.65625
1629724848593,-0.65625,0.359375,0.640625
1629724848625,-0.65625,0.359375,0.640625
1629724848656,-0.65625,0.375,0.65625
1629724848687,-0.65625,0.359375,0.65625
1629724848718,-0.65625,0.359375,0.65625
1629724848750,-0.65625,0.359375,0.640625
1629724848781,-0.65625,0.359375,0.65625
1629724848812,-0.65625,0.359375,0.640625
1629724848843,-0.65625,0.359375,0.640625
1629724848875,-0.65625,0.359375,0.640625
1629724848906,-0.65625,0.359375,0.640625
1629724848937,-0.65625,0.359375,0.640625
1629724848968,-0.65625,0.359375,0.65625
1629724849000,-0.65625,0.359375,0.640625
1629724849031,-0.65625,0.359375,0.640625
1629724849062,-0.65625,0.359375,0.640625
1629724849093,-0.65625,0.359375,0.640625
1629724849125,-0.65625,0.359375,0.640625
1629724849156,-0.65625,0.359375,0.640625
1629724849187,-0.65625,0.359375,0.65625
1629724849218,-0.65625,0.359375,0.640625
1629724849250,-0.65625,0.359375,0.65625
1629724849281,-0.65625,0.359375,0.640625
1629724849312,-0.65625,0.359375,0.640625
1629724849343,-0.65625,0.359375,0.640625
1629724849375,-0.65625,0.359375,0.640625
1629724849406,-0.65625,0.359375,0.640625
1629724849437,-0.65625,0.359375,0.640625
1629724849468,-0.65625,0.359375,0.640625
1629724849500,-0.65625,0.359375,0.65625
1629724849531,-0.65625,0.359375,0.640625
1629724849562,-0.65625,0.375,0.65625
1629724849593,-0.65625,0.359375,0.640625
1629724849625,-0.65625,0.359375,0.640625
1629724849656,-0.65625,0.359375,0.640625
1629724849687,-0.65625,0.359375,0.65625
1629724849718,-0.65625,0.359375,0.640625
1629724849750,-0.65625,0.359375,0.640625
1629724849781,-0.65625,0.359375,0.640625
1629724849812,-0.65625,0.359375,0.640625
1629724849843,-0.65625,0.359375,0.640625
1629724849875,-0.65625,0.359375,0.640625
1629724849906,-0.65625,0.359375,0.65625
1629724849937,-0.65625,0.359375,0.65625
1629724849968,-0.65625,0.359375,0.640625
1629724850000,-0.65625,0.359375,0.640625
1629724850031,-0.65625,0.359375,0.640625
1629724850062,-0.65625,0.359375,0.640625
1629724850093,-0.671875,0.359375,0.65625
1629724850125,-0.65625,0.359375,0.65625
1629724850156,-0.671875,0.359375,0.640625
1629724850187,-0.65625,0.359375,0.65625
1629724850218,-0.65625,0.359375,0.640625
1629724850250,-0.65625,0.359375,0.640625
1629724850281,-0.65625,0.359375,0.640625
1629724850312,-0.65625,0.359375,0.65625
1629724850343,-0.65625,0.359375,0.640625
1629724850375,-0.65625,0.359375,0.640625
1629724850406,-0.65625,0.359375,0.65625
1629724850437,-0.65625,0.359375,0.640625
1629724850468,-0.65625,0.359375,0.65625
1629724850500,-0.65625,0.375,0.65625
1629724850531,-0.65625,0.359375,0.640625
1629724850562,-0.65625,0.359375,0.640625
1629724850593,-0.65625,0.359375,0.65625
1629724850625,-0.65625,0.359375,0.65625
1629724850656,-0.65625,0.359375,0.640625
1629724850687,-0.65625,0.359375,0.640625
1629724850718,-0.65625,0.359375,0.640625
1629724850750,-0.65625,0.359375,0.640625
1629724850781,-0.65625,0.359375,0.65625
1629724850812,-0.65625,0.359375,0.65625
1629724850843,-0.65625,0.359375,0.65625
1629724850875,-0.65625,0.359375,0.65625
1629724850906,-0.65625,0.359375,0.65625
1629724850937,-0.65625,0.359375,0.640625
1629724850968,-0.65625,0.359375,0.640625
1629724851000,-0.65625,0.359375,0.65625
1629724851031,-0.65625,0.359375,0.640625
1629724851062,-0.65625,0.359375,0.640625
1629724851093,-0.65625,0.359375,0.640625
1629724851125,-0.65625,0.359375,0.65625
1629724851156,-0.65625,0.359375,0.65625
1629724851187,-0.65625,0.359375,0.640625
1629724851218,-0.65625,0.359375,0.640625
1629724851250,-0.65625,0.359375,0.65625
1629724851281,-0.65625,0.359375,0.65625
1629724851312,-0.65625,0.359375,0.640625
1629724851343,-0.65625,0.359375,0.65625
1629724851375,-0.65625,0.359375,0.65625
1629724851406,-0.671875,0.359375,0.65625
1629724851437,-0.65625,0.359375,0.640625
1629724851468,-0.65625,0.359375,0.65625
1629724851500,-0.65625,0.359375,0.640625
1629724851531,-0.65625,0.359375,0.640625
1629724851562,-0.65625,0.359375,0.65625
1629724851593,-0.65625,0.359375,0.65625
1629724851625,-0.65625,0.359375,0.640625
1629724851656,-0.65625,0.359375,0.65625
1629724851687,-0.65625,0.359375,0.640625
1629724851718,-0.65625,0.359375,0.640625
1629724851750,-0.65625,0.359375,0.65625
1629724851781,-0.65625,0.359375,0.640625
1629724851812,-0.65625,0.359375,0.65625
1629724851843,-0.671875,0.359375,0.65625
1629724851875,-0.65625,0.359375,0.65625
1629724851906,-0.65625,0.359375,0.65625
1629724851937,-0.65625,0.359375,0.640625
1629724851968,-0.65625,0.359375,0.640625
1629724852000,-0.65625,0.359375,0.65625
1629724852031,-0.65625,0.359375,0.65625
1629724852062,-0.65625,0.359375,0.65625
1629724852093,-0.65625,0.359375,0.65625
1629724852125,-0.65625,0.359375,0.65625
1629724852156,-0.65625,0.359375,0.640625
1629724852187,-0.65625,0.359375,0.65625
1629724852218,-0.65625,0.359375,0.65625
1629724852250,-0.65625,0.359375,0.65625
1629724852281,-0.65625,0.359375,0.65625
1629724852312,-0.65625,0.359375,0.65625
1629724852343,-0.65625,0.359375,0.65625
1629724852375,-0.65625,0.359375,0.65625
1629724852406,-0.65625,0.359375,0.65625
1629724852437,-0.65625,0.359375,0.65625
1629724852468,-0.65625,0.359375,0.65625
1629724852500,-0.65625,0.359375,0.65625
1629724852531,-0.65625,0.359375,0.65625
1629724852562,-0.65625,0.359375,0.65625
1629724852593,-0.65625,0.359375,0.65625
1629724852625,-0.65625,0.359375,0.65625
1629724852656,-0.65625,0.359375,0.640625
1629724852687,-0.65625,0.359375,0.640625
1629724852718,-0.65625,0.359375,0.65625
1629724852750,-0.65625,0.359375,0.65625
1629724852781,-0.65625,0.359375,0.65625
1629724852812,-0.65625,0.359375,0.65625
1629724852843,-0.65625,0.359375,0.65625
1629724852875,-0.65625,0.359375,0.65625
1629724852906,-0.65625,0.359375,0.65625
1629724852937,-0.65625,0.359375,0.640625
1629724852968,-0.65625,0.359375,0.65625
1629724853000,-0.65625,0.359375,0.65625
1629724853031,-0.65625,0.359375,0.65625
1629724853062,-0.65625,0.359375,0.65625
1629724853093,-0.65625,0.359375,0.65625
1629724853125,-0.65625,0.359375,0.65625
1629724853156,-0.65625,0.359375,0.65625
1629724853187,-0.65625,0.359375,0.65625
1629724853218,-0.65625,0.359375,0.65625
1629724853250,-0.65625,0.359375,0.65625
1629724853281,-0.65625,0.359375,0.65625
1629724853312,-0.65625,0.359375,0.65625
1629724853343,-0.65625,0.359375,0.65625
1629724853375,-0.65625,0.359375,0.65625
1629724853406,-0.65625,0.359375,0.65625
1629724853437,-0.65625,0.359375,0.640625
1629724853468,-0.65625,0.359375,0.65625
1629724853500,-0.65625,0.359375,0.65625
1629724853531,-0.65625,0.359375,0.65625
1629724853562,-0.65625,0.359375,0.65625
1629724853593,-0.65625,0.359375,0.65625
1629724853625,-0.65625,0.359375,0.65625
1629724853656,-0.65625,0.359375,0.65625
1629724853687,-0.65625,0.359375,0.65625
1629724853718,-0.65625,0.359375,0.65625
1629724853750,-0.65625,0.359375,0.65625
1629724853781,-0.65625,0.359375,0.65625
1629724853812,-0.65625,0.359375,0.640625
1629724853843,-0.65625,0.359375,0.65625
1629724853875,-0.65625,0.359375,0.65625
1629724853906,-0.65625,0.359375,0.65625
1629724853937,-0.65625,0.359375,0.65625
1629724853968,-0.65625,0.359375,0.65625
1629724854000,-0.65625,0.359375,0.65625
1629724854031,-0.671875,0.359375,0.640625
1629724854062,-0.65625,0.359375,0.65625
1629724854093,-0.65625,0.359375,0.640625
1629724854125,-0.65625,0.359375,0.65625
1629724854156,-0.65625,0.359375,0.65625
1629724854187,-0.671875,0.359375,0.65625
1629724854218,-0.65625,0.359375,0.65625
1629724854250,-0.65625,0.359375,0.640625
1629724854281,-0.65625,0.359375,0.65625
1629724854312,-0.65625,0.359375,0.65625
1629724854343,-0.65625,0.359375,0.65625
1629724854375,-0.65625,0.359375,0.65625
1629724854406,-0.65625,0.359375,0.65625
1629724854437,-0.65625,0.359375,0.65625
1629724854468,-0.65625,0.359375,0.65625
1629724854500,-0.65625,0.359375,0.65625
1629724854531,-0.65625,0.359375,0.65625
1629724854562,-0.65625,0.359375,0.65625
1629724854593,-0.65625,0.359375,0.65625
1629724854625,-0.65625,0.359375,0.65625
1629724854656,-0.65625,0.359375,0.65625
1629724854687,-0.65625,0.359375,0.640625
1629724854718,-0.65625,0.359375,0.640625
1629724854750,-0.65625,0.359375,0.65625
1629724854781,-0.65625,0.359375,0.65625
1629724854812,-0.65625,0.359375,0.640625
1629724854843,-0.65625,0.359375,0.640625
1629724854875,-0.65625,0.359375,0.640625
1629724854906,-0.65625,0.359375,0.65625
1629724854937,-0.671875,0.359375,0.65625
1629724854968,-0.65625,0.359375,0.640625
1629724855000,-0.65625,0.359375,0.65625
1629724855031,-0.65625,0.359375,0.640625
1629724855062,-0.65625,0.359375,0.65625
1629724855093,-0.671875,0.359375,0.640625
1629724855125,-0.671875,0.359375,0.640625
1629724855156,-0.671875,0.359375,0.640625
1629724855187,-0.65625,0.359375,0.640625
1629724855218,-0.671875,0.359375,0.640625
1629724855250,-0.65625,0.359375,0.640625
1629724855281,-0.671875,0.359375,0.640625
1629724855312,-0.671875,0.359375,0.640625
1629724855343,-0.671875,0.359375,0.640625
1629724855375,-0.671875,0.359375,0.640625
1629724855406,-0.671875,0.359375,0.640625
1629724855437,-0.671875,0.359375,0.640625
1629724855468,-0.671875,0.359375,0.640625
1629724855500,-0.671875,0.359375,0.640625
1629724855531,-0.671875,0.359375,0.640625
1629724855562,-0.671875,0.359375,0.640625
1629724855593,-0.671875,0.359375,0.640625
1629724855625,-0.671875,0.359375,0.640625
1629724855656,-0.671875,0.359375,0.640625
1629724855687,-0.671875,0.359375,0.640625
1629724855718,-0.671875,0.359375,0.640625
1629724855750,-0.671875,0.359375,0.640625
1629724855781,-0.671875,0.34375,0.640625
1629724855812,-0.671875,0.359375,0.640625
1629724855843,-0.671875,0.359375,0.640625
1629724855875,-0.671875,0.359375,0.640625
1629724855906,-0.671875,0.359375,0.640625
1629724855937,-0.671875,0.34375,0.640625
1629724855968,-0.671875,0.359375,0.640625
1629724856000,-0.671875,0.359375,0.640625
1629724856031,-0.671875,0.359375,0.640625
1629724856062,-0.671875,0.359375,0.640625
1629724856093,-0.671875,0.34375,0.640625
1629724856125,-0.671875,0.359375,0.640625
1629724856156,-0.671875,0.359375,0.640625
1629724856187,-0.671875,0.359375,0.640625
1629724856218,-0.671875,0.359375,0.640625
1629724856250,-0.671875,0.359375,0.640625
1629724856281,-0.671875,0.34375,0.640625
1629724856312,-0.671875,0.34375,0.640625
1629724856343,-0.671875,0.359375,0.640625
1629724856375,-0.671875,0.359375,0.640625
1629724856406,-0.671875,0.359375,0.640625
1629724856437,-0.671875,0.34375,0.640625
1629724856468,-0.671875,0.359375,0.640625
1629724856500,-0.671875,0.359375,0.640625
1629724856531,-0.671875,0.359375,0.640625
1629724856562,-0.671875,0.359375,0.640625
1629724856593,-0.671875,0.34375,0.640625
1629724856625,-0.671875,0.34375,0.640625
1629724856656,-0.671875,0.359375,0.640625
1629724856687,-0.671875,0.359375,0.640625
1629724856718,-0.671875,0.359375,0.65625
1629724856750,-0.671875,0.359375,0.640625
1629724856781,-0.671875,0.34375,0.640625
1629724856812,-0.671875,0.359375,0.640625
1629724856843,-0.671875,0.34375,0.640625
1629724856875,-0.671875,0.359375,0.640625
1629724856906,-0.671875,0.359375,0.640625
1629724856937,-0.671875,0.359375,0.640625
1629724856968,-0.671875,0.359375,0.640625
1629724857000,-0.671875,0.34375,0.640625
1629724857031,-0.65625,0.34375,0.640625
1629724857062,-0.671875,0.359375,0.640625
1629724857093,-0.671875,0.359375,0.65625
1629724857125,-0.671875,0.359375,0.640625
1629724857156,-0.65625,0.34375,0.640625
1629724857187,-0.671875,0.359375,0.640625
1629724857218,-0.671875,0.34375,0.640625
1629724857250,-0.671875,0.34375,0.640625
1629724857281,-0.671875,0.34375,0.640625
1629724857312,-0.671875,0.34375,0.640625
1629724857343,-0.671875,0.359375,0.640625
1629724857375,-0.671875,0.359375,0.65625
1629724857406,-0.671875,0.34375,0.65625
1629724857437,-0.671875,0.359375,0.640625
1629724857468,-0.671875,0.34375,0.640625
1629724857500,-0.671875,0.34375,0.640625
1629724857531,-0.671875,0.359375,0.65625
1629724857562,-0.671875,0.34375,0.640625
1629724857593,-0.671875,0.34375,0.65625
1629724857625,-0.671875,0.34375,0.65625
1629724857656,-0.671875,0.359375,0.640625
1629724857687,-0.671875,0.34375,0.640625
1629724857718,-0.671875,0.34375,0.65625
1629724857750,-0.671875,0.34375,0.640625
1629724857781,-0.671875,0.34375,0.640625
1629724857812,-0.65625,0.34375,0.640625
1629724857843,-0.671875,0.34375,0.640625
1629724857875,-0.671875,0.359375,0.640625
1629724857906,-0.671875,0.359375,0.65625
1629724857937,-0.671875,0.34375,0.640625
1629724857968,-0.671875,0.34375,0.65625
1629724858000,-0.65625,0.34375,0.640625
1629724858031,-0.671875,0.359375,0.65625
1629724858062,-0.671875,0.34375,0.65625
1629724858093,-0.671875,0.359375,0.65625
1629724858125,-0.65625,0.359375,0.640625
1629724858156,-0.671875,0.34375,0.65625
1629724858187,-0.671875,0.359375,0.640625
1629724858218,-0.671875,0.359375,0.65625
1629724858250,-0.671875,0.34375,0.65625
1629724858281,-0.671875,0.34375,0.640625
1629724858312,-0.671875,0.359375,0.640625
1629724858343,-0.671875,0.359375,0.65625
1629724858375,-0.65625,0.34375,0.65625
1629724858406,-0.671875,0.359375,0.65625
1629724858437,-0.671875,0.34375,0.65625
1629724858468,-0.671875,0.34375,0.640625
1629724858500,-0.671875,0.34375,0.65625
1629724858531,-0.671875,0.359375,0.65625
1629724858562,-0.671875,0.34375,0.640625
1629724858593,-0.671875,0.34375,0.640625
1629724858625,-0.671875,0.34375,0.65625
1629724858656,-0.671875,0.359375,0.640625
1629724858687,-0.65625,0.34375,0.65625
1629724858718,-0.671875,0.359375,0.640625
1629724858750,-0.671875,0.34375,0.65625
1629724858781,-0.671875,0.34375,0.65625
1629724858812,-0.671875,0.34375,0.640625
1629724858843,-0.671875,0.359375,0.65625
1629724858875,-0.671875,0.359375,0.65625
1629724858906,-0.671875,0.359375,0.65625
1629724858937,-0.65625,0.34375,0.65625
1629724858968,-0.65625,0.34375,0.65625
1629724859000,-0.671875,0.34375,0.640625
1629724859031,-0.671875,0.34375,0.65625
1629724859062,-0.671875,0.359375,0.65625
1629724859093,-0.65625,0.34375,0.640625
1629724859125,-0.671875,0.34375,0.640625
1629724859156,-0.65625,0.359375,0.65625
1629724859187,-0.671875,0.34375,0.65625
1629724859218,-0.671875,0.359375,0.65625
1629724859250,-0.671875,0.34375,0.65625
1629724859281,-0.671875,0.34375,0.65625
1629724859312,-0.671875,0.34375,0.640625
1629724859343,-0.671875,0.34375,0.65625
1629724859375,-0.65625,0.359375,0.65625
1629724859406,-0.671875,0.359375,0.65625
1629724859437,-0.671875,0.359375,0.640625
1629724859468,-0.671875,0.34375,0.640625
1629724859500,-0.671875,0.34375,0.65625
1629724859531,-0.65625,0.34375,0.65625
1629724859562,-0.671875,0.359375,0.640625
1629724859593,-0.671875,0.359375,0.65625
1629724859625,-0.671875,0.34375,0.65625
1629724859656,-0.671875,0.34375,0.640625
1629724859687,-0.671875,0.359375,0.640625
1629724859718,-0.671875,0.359375,0.640625
1629724859750,-0.671875,0.359375,0.640625
1629724859781,-0.65625,0.359375,0.640625
1629724859812,-0.65625,0.34375,0.640625
1629724859843,-0.671875,0.359375,0.65625
1629724859875,-0.671875,0.359375,0.640625
1629724859906,-0.671875,0.359375,0.640625
1629724859937,-0.671875,0.359375,0.640625
1629724859968,-0.671875,0.34375,0.65625
1629724860000,-0.671875,0.34375,0.640625
1629724860031,-0.671875,0.359375,0.640625
1629724860062,-0.671875,0.359375,0.65625
1629724860093,-0.65625,0.359375,0.640625
1629724860125,-0.65625,0.359375,0.640625
1629724860156,-0.671875,0.359375,0.640625
1629724860187,-0.671875,0.359375,0.65625
1629724860218,-0.671875,0.359375,0.640625
1629724860250,-0.671875,0.359375,0.640625
1629724860281,-0.671875,0.359375,0.640625
1629724860312,-0.65625,0.359375,0.65625
1629724860343,-0.671875,0.359375,0.640625
1629724860375,-0.671875,0.34375,0.640625
1629724860406,-0.671875,0.359375,0.640625
1629724860437,-0.671875,0.359375,0.65625
1629724860468,-0.65625,0.359375,0.640625
1629724860500,-0.671875,0.359375,0.640625
1629724860531,-0.671875,0.359375,0.640625
1629724860562,-0.671875,0.359375,0.640625
1629724860593,-0.671875,0.359375,0.65625
1629724860625,-0.65625,0.359375,0.640625
1629724860656,-0.671875,0.359375,0.640625
1629724860687,-0.65625,0.359375,0.65625
1629724860718,-0.671875,0.359375,0.640625
1629724860750,-0.671875,0.359375,0.640625
1629724860781,-0.671875,0.359375,0.640625
1629724860812,-0.671875,0.359375,0.640625
1629724860843,-0.671875,0.359375,0.640625
1629724860875,-0.65625,0.359375,0.640625
1629724860906,-0.671875,0.359375,0.640625
1629724860937,-0.671875,0.359375,0.640625
1629724860968,-0.671875,0.359375,0.640625
1629724861000,-0.65625,0.359375,0.640625
1629724861031,-0.671875,0.359375,0.640625
1629724861062,-0.65625,0.359375,0.640625
1629724861093,-0.671875,0.359375,0.640625
1629724861125,-0.671875,0.359375,0.640625
1629724861156,-0.671875,0.359375,0.640625
1629724861187,-0.671875,0.359375,0.640625
1629724861218,-0.671875,0.359375,0.65625
1629724861250,-0.65625,0.359375,0.640625
1629724861281,-0.65625,0.359375,0.640625
1629724861312,-0.671875,0.359375,0.640625
1629724861343,-0.671875,0.359375,0.640625
1629724861375,-0.65625,0.359375,0.640625
1629724861406,-0.671875,0.359375,0.640625
1629724861437,-0.65625,0.359375,0.640625
1629724861468,-0.671875,0.359375,0.65625
1629724861500,-0.671875,0.359375,0.640625
1629724861531,-0.671875,0.359375,0.640625
1629724861562,-0.671875,0.359375,0.65625
1629724861593,-0.671875,0.359375,0.640625
1629724861625,-0.671875,0.359375,0.640625
1629724861656,-0.671875,0.359375,0.640625
1629724861687,-0.671875,0.359375,0.640625
1629724861718,-0.671875,0.359375,0.640625
1629724861750,-0.65625,0.359375,0.640625
1629724861781,-0.671875,0.359375,0.640625
1629724861812,-0.671875,0.359375,0.640625
1629724861843,-0.671875,0.359375,0.640625
1629724861875,-0.671875,0.359375,0.640625
1629724861906,-0.671875,0.359375,0.640625
1629724861937,-0.671875,0.359375,0.640625
1629724861968,-0.671875,0.359375,0.640625
1629724862000,-0.671875,0.359375,0.640625
1629724862031,-0.671875,0.359375,0.640625
1629724862062,-0.671875,0.359375,0.640625
1629724862093,-0.671875,0.359375,0.640625
1629724862125,-0.65625,0.359375,0.640625
1629724862156,-0.671875,0.359375,0.640625
1629724862187,-0.671875,0.359375,0.640625
1629724862218,-0.671875,0.359375,0.640625
1629724862250,-0.671875,0.359375,0.640625
1629724862281,-0.671875,0.359375,0.640625
1629724862312,-0.671875,0.359375,0.640625
1629724862343,-0.671875,0.359375,0.640625
1629724862375,-0.671875,0.359375,0.65625
1629724862406,-0.671875,0.359375,0.640625
1629724862437,-0.65625,0.359375,0.640625
1629724862468,-0.671875,0.34375,0.65625
1629724862500,-0.65625,0.359375,0.640625
1629724862531,-0.671875,0.359375,0.640625
1629724862562,-0.65625,0.359375,0.65625
1629724862593,-0.671875,0.359375,0.640625
1629724862625,-0.671875,0.359375,0.640625
1629724862656,-0.671875,0.359375,0.640625
1629724862687,-0.65625,0.359375,0.640625
1629724862718,-0.671875,0.359375,0.640625
1629724862750,-0.671875,0.359375,0.65625
1629724862781,-0.671875,0.34375,0.640625
1629724862812,-0.65625,0.359375,0.640625
1629724862843,-0.671875,0.359375,0.640625
1629724862875,-0.671875,0.359375,0.640625
1629724862906,-0.671875,0.359375,0.65625
1629724862937,-0.671875,0.359375,0.640625
1629724862968,-0.671875,0.359375,0.640625
1629724863000,-0.671875,0.359375,0.640625
1629724863031,-0.671875,0.359375,0.640625
1629724863062,-0.671875,0.359375,0.640625
1629724863093,-0.671875,0.359375,0.65625
1629724863125,-0.671875,0.359375,0.640625
1629724863156,-0.671875,0.359375,0.640625
1629724863187,-0.671875,0.34375,0.640625
1629724863218,-0.671875,0.34375,0.640625
1629724863250,-0.671875,0.34375,0.640625
1629724863281,-0.671875,0.34375,0.65625
1629724863312,-0.671875,0.359375,0.640625
1629724863343,-0.65625,0.359375,0.640625
1629724863375,-0.671875,0.359375,0.640625
1629724863406,-0.671875,0.359375,0.65625
1629724863437,-0.65625,0.34375,0.65625
1629724863468,-0.65625,0.359375,0.640625
1629724863500,-0.65625,0.359375,0.65625
1629724863531,-0.671875,0.34375,0.640625
1629724863562,-0.671875,0.359375,0.640625
1629724863593,-0.671875,0.359375,0.65625
1629724863625,-0.65625,0.34375,0.65625
1629724863656,-0.65625,0.34375,0.640625
1629724863687,-0.671875,0.34375,0.640625
1629724863718,-0.671875,0.359375,0.65625
1629724863750,-0.65625,0.359375,0.65625
1629724863781,-0.65625,0.34375,0.640625
1629724863812,-0.671875,0.34375,0.640625
1629724863843,-0.671875,0.34375,0.65625
1629724863875,-0.671875,0.359375,0.65625
1629724863906,-0.671875,0.34375,0.640625
1629724863937,-0.671875,0.34375,0.65625
1629724863968,-0.671875,0.359375,0.640625
1629724864000,-0.671875,0.359375,0.65625
1629724864031,-0.671875,0.359375,0.65625
1629724864062,-0.671875,0.359375,0.65625
1629724864093,-0.671875,0.34375,0.65625
1629724864125,-0.671875,0.34375,0.640625
1629724864156,-0.671875,0.359375,0.65625
1629724864187,-0.671875,0.34375,0.65625
1629724864218,-0.65625,0.34375,0.65625
1629724864250,-0.671875,0.34375,0.640625
1629724864281,-0.65625,0.34375,0.65625
1629724864312,-0.671875,0.34375,0.65625
1629724864343,-0.671875,0.34375,0.640625
1629724864375,-0.65625,0.34375,0.65625
1629724864406,-0.671875,0.34375,0.65625
1629724864437,-0.671875,0.359375,0.640625
1629724864468,-0.65625,0.359375,0.65625
1629724864500,-0.671875,0.34375,0.640625
1629724864531,-0.65625,0.359375,0.65625
1629724864562,-0.671875,0.359375,0.640625
1629724864593,-0.671875,0.359375,0.640625
1629724864625,-0.65625,0.34375,0.640625
1629724864656,-0.65625,0.34375,0.65625
1629724864687,-0.65625,0.359375,0.65625
1629724864718,-0.671875,0.34375,0.65625
1629724864750,-0.671875,0.34375,0.65625
1629724864781,-0.65625,0.34375,0.640625
1629724864812,-0.671875,0.34375,0.640625
1629724864843,-0.671875,0.34375,0.65625
1629724864875,-0.671875,0.34375,0.640625
1629724864906,-0.671875,0.359375,0.65625
1629724864937,-0.65625,0.34375,0.640625
1629724864968,-0.671875,0.34375,0.640625
1629724865000,-0.65625,0.34375,0.65625
1629724865031,-0.65625,0.34375,0.65625
1629724865062,-0.671875,0.359375,0.640625
1629724865093,-0.671875,0.34375,0.65625
1629724865125,-0.671875,0.359375,0.640625
1629724865156,-0.671875,0.34375,0.65625
1629724865187,-0.65625,0.34375,0.65625
1629724865218,-0.671875,0.34375,0.640625
1629724865250,-0.671875,0.359375,0.65625
1629724865281,-0.671875,0.34375,0.640625
1629724865312,-0.671875,0.34375,0.640625
1629724865343,-0.671875,0.359375,0.65625
1629724865375,-0.65625,0.34375,0.65625
1629724865406,-0.671875,0.34375,0.65625
1629724865437,-0.671875,0.34375,0.640625
1629724865468,-0.65625,0.34375,0.65625
1629724865500,-0.65625,0.359375,0.640625
1629724865531,-0.671875,0.359375,0.640625
1629724865562,-0.671875,0.359375,0.640625
1629724865593,-0.671875,0.34375,0.65625
1629724865625,-0.671875,0.359375,0.640625
1629724865656,-0.65625,0.359375,0.640625
1629724865687,-0.65625,0.359375,0.640625
1629724865718,-0.671875,0.359375,0.640625
1629724865750,-0.671875,0.359375,0.65625
1629724865781,-0.671875,0.34375,0.640625
1629724865812,-0.671875,0.34375,0.640625
1629724865843,-0.671875,0.34375,0.640625
1629724865875,-0.671875,0.34375,0.640625
1629724865906,-0.671875,0.359375,0.65625
1629724865937,-0.671875,0.34375,0.640625
1629724865968,-0.671875,0.359375,0.65625
1629724866000,-0.65625,0.34375,0.640625
1629724866031,-0.671875,0.359375,0.640625
1629724866062,-0.671875,0.34375,0.65625
1629724866093,-0.671875,0.359375,0.65625
1629724866125,-0.65625,0.359375,0.640625
1629724866156,-0.671875,0.359375,0.65625
1629724866187,-0.671875,0.34375,0.640625
1629724866218,-0.671875,0.359375,0.640625
1629724866250,-0.671875,0.359375,0.640625
1629724866281,-0.671875,0.359375,0.640625
1629724866312,-0.671875,0.359375,0.640625
1629724866343,-0.671875,0.359375,0.65625
1629724866375,-0.65625,0.359375,0.640625
1629724866406,-0.671875,0.359375,0.640625
1629724866437,-0.671875,0.359375,0.640625
1629724866468,-0.65625,0.34375,0.640625
1629724866500,-0.671875,0.359375,0.640625
1629724866531,-0.671875,0.359375,0.640625
1629724866562,-0.671875,0.359375,0.640625
1629724866593,-0.671875,0.359375,0.65625
1629724866625,-0.671875,0.359375,0.640625
1629724866656,-0.65625,0.359375,0.640625
1629724866687,-0.65625,0.359375,0.640625
1629724866718,-0.671875,0.359375,0.640625
1629724866750,-0.671875,0.359375,0.640625
1629724866781,-0.671875,0.359375,0.640625
1629724866812,-0.65625,0.359375,0.640625
1629724866843,-0.671875,0.359375,0.640625
1629724866875,-0.671875,0.359375,0.640625
1629724866906,-0.671875,0.359375,0.640625
1629724866937,-0.671875,0.359375,0.640625
1629724866968,-0.65625,0.359375,0.640625
1629724867000,-0.671875,0.359375,0.640625
1629724867031,-0.671875,0.359375,0.640625
1629724867062,-0.671875,0.359375,0.640625
1629724867093,-0.671875,0.359375,0.640625
1629724867125,-0.671875,0.359375,0.640625
1629724867156,-0.671875,0.359375,0.640625
1629724867187,-0.671875,0.359375,0.640625
1629724867218,-0.671875,0.359375,0.640625
1629724867250,-0.671875,0.359375,0.640625
1629724867281,-0.671875,0.359375,0.640625
1629724867312,-0.671875,0.359375,0.640625
1629724867343,-0.671875,0.359375,0.640625
1629724867375,-0.671875,0.34375,0.640625
1629724867406,-0.671875,0.359375,0.640625
1629724867437,-0.671875,0.359375,0.640625
1629724867468,-0.671875,0.359375,0.640625
1629724867500,-0.65625,0.359375,0.640625
1629724867531,-0.671875,0.359375,0.640625
1629724867562,-0.671875,0.359375,0.640625
1629724867593,-0.671875,0.359375,0.640625
1629724867625,-0.671875,0.359375,0.640625
1629724867656,-0.671875,0.359375,0.640625
1629724867687,-0.65625,0.34375,0.640625
1629724867718,-0.671875,0.34375,0.640625
1629724867750,-0.671875,0.359375,0.640625
1629724867781,-0.671875,0.359375,0.640625
1629724867812,-0.671875,0.359375,0.640625
1629724867843,-0.671875,0.359375,0.640625
1629724867875,-0.671875,0.359375,0.640625
1629724867906,-0.65625,0.359375,0.640625
1629724867937,-0.671875,0.359375,0.65625
1629724867968,-0.671875,0.359375,0.640625
1629724868000,-0.671875,0.359375,0.640625
1629724868031,-0.671875,0.359375,0.640625
1629724868062,-0.65625,0.359375,0.640625
1629724868093,-0.671875,0.34375,0.640625
1629724868125,-0.671875,0.359375,0.640625
1629724868156,-0.671875,0.359375,0.640625
1629724868187,-0.671875,0.359375,0.65625
1629724868218,-0.671875,0.359375,0.640625
1629724868250,-0.65625,0.359375,0.65625
1629724868281,-0.65625,0.359375,0.65625
1629724868312,-0.671875,0.34375,0.640625
1629724868343,-0.671875,0.359375,0.640625
1629724868375,-0.671875,0.34375,0.640625
1629724868406,-0.671875,0.34375,0.640625
1629724868437,-0.671875,0.359375,0.65625
1629724868468,-0.65625,0.34375,0.640625
1629724868500,-0.671875,0.359375,0.640625
1629724868531,-0.671875,0.359375,0.640625
1629724868562,-0.671875,0.359375,0.640625
1629724868593,-0.65625,0.34375,0.640625
1629724868625,-0.671875,0.359375,0.640625
1629724868656,-0.671875,0.359375,0.65625
1629724868687,-0.671875,0.359375,0.640625
1629724868718,-0.671875,0.359375,0.640625
1629724868750,-0.671875,0.359375,0.640625
1629724868781,-0.671875,0.359375,0.65625
1629724868812,-0.671875,0.359375,0.640625
1629724868843,-0.671875,0.359375,0.65625
1629724868875,-0.671875,0.359375,0.640625
1629724868906,-0.671875,0.359375,0.65625
1629724868937,-0.671875,0.359375,0.640625
1629724868968,-0.671875,0.34375,0.640625
1629724869000,-0.671875,0.34375,0.640625
1629724869031,-0.671875,0.359375,0.640625
1629724869062,-0.671875,0.34375,0.640625
1629724869093,-0.671875,0.34375,0.640625
1629724869125,-0.671875,0.34375,0.65625
1629724869156,-0.671875,0.359375,0.640625
1629724869187,-0.671875,0.34375,0.640625
1629724869218,-0.65625,0.34375,0.65625
1629724869250,-0.65625,0.34375,0.640625
1629724869281,-0.671875,0.359375,0.640625
1629724869312,-0.671875,0.34375,0.640625
1629724869343,-0.65625,0.359375,0.65625
1629724869375,-0.65625,0.34375,0.640625
1629724869406,-0.671875,0.34375,0.65625
1629724869437,-0.65625,0.34375,0.640625
1629724869468,-0.671875,0.359375,0.65625
1629724869500,-0.671875,0.359375,0.640625
1629724869531,-0.65625,0.34375,0.640625
1629724869562,-0.671875,0.34375,0.65625
1629724869593,-0.671875,0.34375,0.65625
1629724869625,-0.671875,0.34375,0.640625
1629724869656,-0.671875,0.34375,0.640625
1629724869687,-0.671875,0.34375,0.65625
1629724869718,-0.65625,0.34375,0.65625
1629724869750,-0.671875,0.34375,0.65625
1629724869781,-0.65625,0.34375,0.65625
1629724869812,-0.671875,0.34375,0.65625
1629724869843,-0.671875,0.34375,0.65625
1629724869875,-0.671875,0.34375,0.640625
1629724869906,-0.671875,0.34375,0.65625
1629724869937,-0.671875,0.34375,0.640625
1629724869968,-0.65625,0.34375,0.65625
1629724870000,-0.671875,0.359375,0.640625
1629724870031,-0.671875,0.34375,0.65625
1629724870062,-0.65625,0.34375,0.65625
1629724870093,-0.671875,0.359375,0.640625
1629724870125,-0.671875,0.34375,0.65625
1629724870156,-0.671875,0.34375,0.65625
1629724870187,-0.671875,0.34375,0.65625
1629724870218,-0.65625,0.34375,0.65625
1629724870250,-0.671875,0.34375,0.640625
1629724870281,-0.671875,0.359375,0.640625
1629724870312,-0.671875,0.34375,0.65625
1629724870343,-0.671875,0.34375,0.640625
1629724870375,-0.671875,0.359375,0.65625
1629724870406,-0.65625,0.34375,0.640625
1629724870437,-0.65625,0.34375,0.65625
1629724870468,-0.671875,0.34375,0.65625
1629724870500,-0.671875,0.359375,0.65625
1629724870531,-0.65625,0.34375,0.640625
1629724870562,-0.65625,0.34375,0.640625
1629724870593,-0.671875,0.34375,0.640625
1629724870625,-0.671875,0.34375,0.65625
1629724870656,-0.671875,0.34375,0.640625
1629724870687,-0.65625,0.34375,0.65625
1629724870718,-0.671875,0.34375,0.65625
1629724870750,-0.671875,0.34375,0.640625
1629724870781,-0.65625,0.34375,0.640625
1629724870812,-0.671875,0.34375,0.640625
1629724870843,-0.671875,0.34375,0.65625
1629724870875,-0.671875,0.359375,0.65625
1629724870906,-0.671875,0.34375,0.65625
1629724870937,-0.671875,0.34375,0.65625
1629724870968,-0.671875,0.34375,0.65625
1629724871000,-0.65625,0.34375,0.640625
1629724871031,-0.671875,0.359375,0.640625
1629724871062,-0.65625,0.34375,0.640625
1629724871093,-0.671875,0.34375,0.65625
1629724871125,-0.671875,0.34375,0.65625
1629724871156,-0.671875,0.34375,0.65625
1629724871187,-0.65625,0.34375,0.640625
1629724871218,-0.65625,0.34375,0.65625
1629724871250,-0.671875,0.34375,0.640625
1629724871281,-0.671875,0.359375,0.65625
1629724871312,-0.671875,0.359375,0.640625
1629724871343,-0.671875,0.34375,0.640625
1629724871375,-0.671875,0.34375,0.640625
1629724871406,-0.671875,0.34375,0.640625
1629724871437,-0.671875,0.34375,0.640625
1629724871468,-0.671875,0.34375,0.65625
1629724871500,-0.671875,0.359375,0.640625
1629724871531,-0.65625,0.34375,0.65625
1629724871562,-0.671875,0.34375,0.640625
1629724871593,-0.65625,0.34375,0.640625
1629724871625,-0.671875,0.359375,0.640625
1629724871656,-0.65625,0.359375,0.65625
1629724871687,-0.671875,0.359375,0.640625
1629724871718,-0.671875,0.359375,0.640625
1629724871750,-0.65625,0.359375,0.65625
1629724871781,-0.671875,0.359375,0.65625
1629724871812,-0.671875,0.359375,0.640625
1629724871843,-0.65625,0.359375,0.640625
1629724871875,-0.671875,0.359375,0.640625
1629724871906,-0.671875,0.359375,0.640625
1629724871937,-0.671875,0.359375,0.640625
1629724871968,-0.671875,0.34375,0.640625
1629724872000,-0.671875,0.359375,0.640625
1629724872031,-0.671875,0.34375,0.640625
1629724872062,-0.671875,0.359375,0.640625
1629724872093,-0.671875,0.359375,0.640625
1629724872125,-0.671875,0.359375,0.640625
1629724872156,-0.65625,0.34375,0.65625
1629724872187,-0.65625,0.359375,0.65625
1629724872218,-0.671875,0.34375,0.640625
1629724872250,-0.671875,0.359375,0.640625
1629724872281,-0.671875,0.359375,0.640625
1629724872312,-0.671875,0.359375,0.640625
1629724872343,-0.65625,0.359375,0.65625
1629724872375,-0.65625,0.359375,0.640625
1629724872406,-0.671875,0.359375,0.65625
1629724872437,-0.671875,0.359375,0.65625
1629724872468,-0.671875,0.34375,0.640625
1629724872500,-0.671875,0.359375,0.640625
1629724872531,-0.671875,0.359375,0.640625
1629724872562,-0.671875,0.359375,0.640625
1629724872593,-0.671875,0.359375,0.640625
1629724872625,-0.671875,0.359375,0.640625
1629724872656,-0.671875,0.359375,0.640625
1629724872687,-0.65625,0.359375,0.640625
1629724872718,-0.671875,0.359375,0.640625
1629724872750,-0.671875,0.359375,0.640625
1629724872781,-0.671875,0.359375,0.640625
1629724872812,-0.671875,0.359375,0.640625
1629724872843,-0.671875,0.359375,0.640625
1629724872875,-0.671875,0.359375,0.640625
1629724872906,-0.671875,0.359375,0.640625
1629724872937,-0.671875,0.359375,0.640625
1629724872968,-0.671875,0.359375,0.640625
1629724873000,-0.671875,0.359375,0.640625
1629724873031,-0.65625,0.34375,0.65625
1629724873062,-0.671875,0.359375,0.640625
1629724873093,-0.671875,0.359375,0.640625
1629724873125,-0.65625,0.359375,0.640625
1629724873156,-0.65625,0.34375,0.640625
1629724873187,-0.671875,0.34375,0.640625
1629724873218,-0.671875,0.359375,0.640625
1629724873250,-0.671875,0.359375,0.65625
1629724873281,-0.671875,0.359375,0.65625
1629724873312,-0.671875,0.359375,0.640625
1629724873343,-0.65625,0.359375,0.640625
1629724873375,-0.671875,0.359375,0.640625
1629724873406,-0.671875,0.359375,0.640625
1629724873437,-0.671875,0.359375,0.640625
1629724873468,-0.671875,0.359375,0.640625
1629724873500,-0.671875,0.359375,0.640625
1629724873531,-0.671875,0.34375,0.640625
1629724873562,-0.671875,0.34375,0.640625
1629724873593,-0.671875,0.359375,0.640625
1629724873625,-0.671875,0.359375,0.640625
1629724873656,-0.65625,0.359375,0.640625
1629724873687,-0.671875,0.359375,0.640625
1629724873718,-0.671875,0.34375,0.640625
1629724873750,-0.671875,0.34375,0.640625
1629724873781,-0.671875,0.34375,0.640625
1629724873812,-0.671875,0.359375,0.65625
1629724873843,-0.671875,0.359375,0.640625
1629724873875,-0.671875,0.359375,0.640625
1629724873906,-0.65625,0.34375,0.640625
1629724873937,-0.65625,0.359375,0.65625
1629724873968,-0.671875,0.34375,0.640625
1629724874000,-0.671875,0.34375,0.65625
1629724874031,-0.671875,0.359375,0.65625
1629724874062,-0.65625,0.34375,0.65625
1629724874093,-0.671875,0.359375,0.65625
1629724874125,-0.65625,0.34375,0.640625
1629724874156,-0.65625,0.359375,0.65625
1629724874187,-0.671875,0.359375,0.65625
1629724874218,-0.671875,0.359375,0.640625
1629724874250,-0.65625,0.34375,0.640625
1629724874281,-0.671875,0.34375,0.640625
1629724874312,-0.671875,0.34375,0.640625
1629724874343,-0.671875,0.34375,0.65625
1629724874375,-0.671875,0.34375,0.640625
1629724874406,-0.671875,0.34375,0.65625
1629724874437,-0.671875,0.34375,0.640625
1629724874468,-0.65625,0.359375,0.640625
1629724874500,-0.65625,0.34375,0.65625
1629724874531,-0.671875,0.359375,0.640625
1629724874562,-0.671875,0.359375,0.640625
1629724874593,-0.671875,0.34375,0.65625
1629724874625,-0.671875,0.359375,0.640625
1629724874656,-0.671875,0.359375,0.640625
1629724874687,-0.671875,0.34375,0.65625
1629724874718,-0.671875,0.34375,0.640625
1629724874750,-0.671875,0.34375,0.640625
1629724874781,-0.671875,0.359375,0.640625
1629724874812,-0.671875,0.34375,0.65625
1629724874843,-0.65625,0.34375,0.65625
1629724874875,-0.65625,0.34375,0.640625
1629724874906,-0.65625,0.34375,0.640625
1629724874937,-0.671875,0.34375,0.65625
1629724874968,-0.671875,0.34375,0.640625
1629724875000,-0.671875,0.34375,0.640625
1629724875031,-0.671875,0.34375,0.640625
1629724875062,-0.671875,0.359375,0.65625
1629724875093,-0.65625,0.34375,0.65625
1629724875125,-0.671875,0.359375,0.65625
1629724875156,-0.671875,0.359375,0.65625
1629724875187,-0.671875,0.34375,0.65625
1629724875218,-0.65625,0.34375,0.640625
1629724875250,-0.671875,0.34375,0.640625
1629724875281,-0.671875,0.34375,0.65625
1629724875312,-0.671875,0.34375,0.640625
1629724875343,-0.65625,0.34375,0.65625
1629724875375,-0.671875,0.34375,0.640625
1629724875406,-0.65625,0.34375,0.640625
1629724875437,-0.671875,0.359375,0.65625
1629724875468,-0.671875,0.34375,0.65625
1629724875500,-0.671875,0.34375,0.640625
1629724875531,-0.65625,0.34375,0.65625
1629724875562,-0.671875,0.34375,0.65625
1629724875593,-0.671875,0.34375,0.65625
1629724875625,-0.671875,0.34375,0.640625
1629724875656,-0.671875,0.34375,0.640625
1629724875687,-0.671875,0.34375,0.65625
1629724875718,-0.671875,0.34375,0.640625
1629724875750,-0.671875,0.359375,0.640625
1629724875781,-0.671875,0.34375,0.640625
1629724875812,-0.671875,0.34375,0.65625
1629724875843,-0.671875,0.34375,0.65625
1629724875875,-0.65625,0.34375,0.65625
1629724875906,-0.65625,0.34375,0.640625
1629724875937,-0.671875,0.34375,0.65625
1629724875968,-0.671875,0.34375,0.640625
1629724876000,-0.671875,0.34375,0.65625
1629724876031,-0.671875,0.34375,0.640625
1629724876062,-0.65625,0.34375,0.65625
1629724876093,-0.65625,0.34375,0.65625
1629724876125,-0.671875,0.34375,0.65625
1629724876156,-0.671875,0.34375,0.65625
1629724876187,-0.65625,0.34375,0.65625
1629724876218,-0.65625,0.34375,0.65625
1629724876250,-0.671875,0.34375,0.65625
1629724876281,-0.65625,0.34375,0.65625
1629724876312,-0.671875,0.34375,0.65625
1629724876343,-0.65625,0.34375,0.65625
1629724876375,-0.65625,0.34375,0.640625
1629724876406,-0.671875,0.34375,0.65625
1629724876437,-0.671875,0.34375,0.65625
1629724876468,-0.671875,0.34375,0.65625
1629724876500,-0.671875,0.34375,0.65625
1629724876531,-0.671875,0.34375,0.65625
1629724876562,-0.671875,0.34375,0.640625
1629724876593,-0.671875,0.34375,0.65625
1629724876625,-0.671875,0.34375,0.65625
1629724876656,-0.671875,0.34375,0.65625
1629724876687,-0.671875,0.34375,0.640625
1629724876718,-0.65625,0.34375,0.65625
1629724876750,-0.671875,0.34375,0.640625
1629724876781,-0.671875,0.34375,0.65625
1629724876812,-0.671875,0.34375,0.65625
1629724876843,-0.671875,0.34375,0.65625
1629724876875,-0.65625,0.34375,0.640625
1629724876906,-0.65625,0.34375,0.640625
1629724876937,-0.671875,0.34375,0.65625
1629724876968,-0.671875,0.359375,0.640625
1629724877000,-0.671875,0.34375,0.65625
1629724877031,-0.671875,0.34375,0.640625
1629724877062,-0.671875,0.34375,0.65625
1629724877093,-0.671875,0.34375,0.65625
1629724877125,-0.671875,0.359375,0.65625
1629724877156,-0.671875,0.359375,0.640625
1629724877187,-0.65625,0.34375,0.640625
1629724877218,-0.671875,0.34375,0.640625
1629724877250,-0.671875,0.359375,0.640625
1629724877281,-0.671875,0.34375,0.65625
1629724877312,-0.671875,0.34375,0.65625
1629724877343,-0.65625,0.34375,0.640625
1629724877375,-0.671875,0.359375,0.640625
1629724877406,-0.671875,0.359375,0.640625
1629724877437,-0.65625,0.34375,0.65625
1629724877468,-0.671875,0.34375,0.640625
1629724877500,-0.671875,0.359375,0.640625
1629724877531,-0.671875,0.34375,0.640625
1629724877562,-0.671875,0.34375,0.65625
1629724877593,-0.65625,0.34375,0.640625
1629724877625,-0.671875,0.359375,0.640625
1629724877656,-0.671875,0.34375,0.640625
1629724877687,-0.671875,0.359375,0.640625
1629724877718,-0.671875,0.359375,0.65625
1629724877750,-0.671875,0.34375,0.640625
1629724877781,-0.671875,0.359375,0.640625
1629724877812,-0.671875,0.359375,0.65625
1629724877843,-0.671875,0.34375,0.640625
1629724877875,-0.671875,0.359375,0.640625
1629724877906,-0.671875,0.34375,0.640625
1629724877937,-0.671875,0.359375,0.640625
1629724877968,-0.671875,0.34375,0.640625
1629724878000,-0.671875,0.359375,0.640625
1629724878031,-0.671875,0.359375,0.65625
1629724878062,-0.671875,0.359375,0.640625
1629724878093,-0.671875,0.359375,0.65625
1629724878125,-0.65625,0.359375,0.65625
1629724878156,-0.671875,0.359375,0.65625
1629724878187,-0.671875,0.359375,0.65625
1629724878218,-0.671875,0.34375,0.640625
1629724878250,-0.671875,0.359375,0.640625
1629724878281,-0.671875,0.359375,0.640625
1629724878312,-0.671875,0.34375,0.640625
1629724878343,-0.671875,0.34375,0.640625
1629724878375,-0.65625,0.359375,0.640625
1629724878406,-0.671875,0.359375,0.640625
1629724878437,-0.671875,0.359375,0.640625
1629724878468,-0.671875,0.359375,0.640625
1629724878500,-0.671875,0.359375,0.640625
1629724878531,-0.671875,0.359375,0.65625
1629724878562,-0.671875,0.359375,0.640625
1629724878593,-0.671875,0.359375,0.640625
1629724878625,-0.671875,0.34375,0.640625
1629724878656,-0.671875,0.34375,0.640625
1629724878687,-0.65625,0.34375,0.640625
1629724878718,-0.671875,0.359375,0.640625
1629724878750,-0.671875,0.359375,0.640625
1629724878781,-0.671875,0.359375,0.640625
1629724878812,-0.671875,0.34375,0.640625
1629724878843,-0.65625,0.359375,0.640625
1629724878875,-0.65625,0.34375,0.640625
1629724878906,-0.65625,0.359375,0.640625
1629724878937,-0.671875,0.359375,0.640625
1629724878968,-0.671875,0.359375,0.640625
1629724879000,-0.671875,0.34375,0.640625
1629724879031,-0.671875,0.34375,0.640625
1629724879062,-0.671875,0.359375,0.640625
1629724879093,-0.671875,0.359375,0.640625
1629724879125,-0.671875,0.34375,0.640625
1629724879156,-0.671875,0.34375,0.640625
1629724879187,-0.671875,0.359375,0.640625
1629724879218,-0.671875,0.34375,0.640625
1629724879250,-0.671875,0.34375,0.640625
1629724879281,-0.671875,0.359375,0.640625
1629724879312,-0.671875,0.359375,0.640625
1629724879343,-0.671875,0.34375,0.640625
1629724879375,-0.671875,0.359375,0.640625
1629724879406,-0.671875,0.34375,0.640625
1629724879437,-0.671875,0.359375,0.65625
1629724879468,-0.671875,0.359375,0.640625
1629724879500,-0.671875,0.359375,0.640625
1629724879531,-0.671875,0.34375,0.640625
1629724879562,-0.671875,0.34375,0.65625
1629724879593,-0.671875,0.34375,0.640625
1629724879625,-0.671875,0.34375,0.640625
1629724879656,-0.671875,0.359375,0.65625
1629724879687,-0.671875,0.34375,0.640625
1629724879718,-0.671875,0.34375,0.640625
1629724879750,-0.671875,0.34375,0.640625
1629724879781,-0.65625,0.34375,0.640625
1629724879812,-0.671875,0.34375,0.65625
1629724879843,-0.671875,0.359375,0.65625
1629724879875,-0.671875,0.34375,0.65625
1629724879906,-0.671875,0.34375,0.640625
1629724879937,-0.671875,0.34375,0.640625
1629724879968,-0.671875,0.359375,0.65625
1629724880000,-0.671875,0.34375,0.640625
1629724880031,-0.671875,0.34375,0.640625
1629724880062,-0.671875,0.34375,0.65625
1629724880093,-0.671875,0.34375,0.640625
1629724880125,-0.671875,0.34375,0.640625
1629724880156,-0.671875,0.34375,0.65625
1629724880187,-0.671875,0.34375,0.65625
1629724880218,-0.671875,0.34375,0.65625
1629724880250,-0.671875,0.34375,0.65625
1629724880281,-0.671875,0.34375,0.65625
1629724880312,-0.671875,0.34375,0.640625
1629724880343,-0.671875,0.34375,0.640625
1629724880375,-0.671875,0.34375,0.65625
1629724880406,-0.671875,0.34375,0.65625
1629724880437,-0.671875,0.34375,0.640625
1629724880468,-0.671875,0.34375,0.65625
1629724880500,-0.671875,0.34375,0.65625
1629724880531,-0.671875,0.34375,0.640625
1629724880562,-0.671875,0.34375,0.640625
1629724880593,-0.671875,0.34375,0.65625
1629724880625,-0.671875,0.34375,0.65625
1629724880656,-0.671875,0.34375,0.640625
1629724880687,-0.65625,0.34375,0.65625
1629724880718,-0.65625,0.34375,0.640625
1629724880750,-0.671875,0.34375,0.65625
1629724880781,-0.671875,0.34375,0.65625
1629724880812,-0.671875,0.34375,0.640625
1629724880843,-0.671875,0.34375,0.65625
1629724880875,-0.671875,0.34375,0.640625
1629724880906,-0.671875,0.34375,0.65625
1629724880937,-0.671875,0.34375,0.640625
1629724880968,-0.671875,0.34375,0.65625
1629724881000,-0.671875,0.34375,0.65625
1629724881031,-0.65625,0.34375,0.65625
1629724881062,-0.671875,0.34375,0.640625
1629724881093,-0.671875,0.34375,0.640625
1629724881125,-0.671875,0.34375,0.65625
1629724881156,-0.65625,0.34375,0.65625
1629724881187,-0.671875,0.34375,0.65625
1629724881218,-0.671875,0.34375,0.640625
1629724881250,-0.671875,0.34375,0.65625
1629724881281,-0.671875,0.34375,0.640625
1629724881312,-0.671875,0.34375,0.65625
1629724881343,-0.671875,0.34375,0.65625
1629724881375,-0.671875,0.34375,0.640625
1629724881406,-0.671875,0.34375,0.65625
1629724881437,-0.671875,0.34375,0.65625
1629724881468,-0.65625,0.34375,0.65625
1629724881500,-0.671875,0.34375,0.640625
1629724881531,-0.671875,0.359375,0.640625
1629724881562,-0.671875,0.34375,0.65625
1629724881593,-0.671875,0.34375,0.65625
1629724881625,-0.671875,0.34375,0.65625
1629724881656,-0.671875,0.34375,0.640625
1629724881687,-0.65625,0.34375,0.65625
1629724881718,-0.671875,0.34375,0.65625
1629724881750,-0.671875,0.34375,0.65625
1629724881781,-0.671875,0.34375,0.65625
1629724881812,-0.65625,0.34375,0.65625
1629724881843,-0.671875,0.34375,0.65625
1629724881875,-0.671875,0.34375,0.65625
1629724881906,-0.671875,0.34375,0.640625
1629724881937,-0.671875,0.34375,0.65625
1629724881968,-0.671875,0.34375,0.65625
1629724882000,-0.671875,0.34375,0.65625
1629724882031,-0.671875,0.359375,0.65625
1629724882062,-0.671875,0.34375,0.65625
1629724882093,-0.671875,0.34375,0.65625
1629724882125,-0.671875,0.34375,0.65625
1629724882156,-0.671875,0.34375,0.640625
1629724882187,-0.671875,0.34375,0.65625
1629724882218,-0.671875,0.34375,0.65625
1629724882250,-0.671875,0.34375,0.640625
1629724882281,-0.671875,0.34375,0.640625
1629724882312,-0.671875,0.34375,0.65625
1629724882343,-0.671875,0.34375,0.65625
1629724882375,-0.671875,0.34375,0.65625
1629724882406,-0.671875,0.34375,0.65625
1629724882437,-0.671875,0.34375,0.65625
1629724882468,-0.65625,0.34375,0.640625
1629724882500,-0.671875,0.34375,0.65625
1629724882531,-0.671875,0.34375,0.640625
1629724882562,-0.671875,0.34375,0.65625
1629724882593,-0.671875,0.34375,0.640625
1629724882625,-0.671875,0.34375,0.640625
1629724882656,-0.65625,0.34375,0.65625
1629724882687,-0.671875,0.34375,0.640625
1629724882718,-0.671875,0.34375,0.65625
1629724882750,-0.65625,0.34375,0.640625
1629724882781,-0.65625,0.34375,0.640625
1629724882812,-0.671875,0.359375,0.65625
1629724882843,-0.671875,0.34375,0.640625
1629724882875,-0.671875,0.34375,0.65625
1629724882906,-0.671875,0.359375,0.640625
1629724882937,-0.671875,0.34375,0.640625
1629724882968,-0.671875,0.34375,0.640625
1629724883000,-0.671875,0.34375,0.640625
1629724883031,-0.671875,0.34375,0.640625
1629724883062,-0.65625,0.34375,0.640625
1629724883093,-0.671875,0.34375,0.640625
1629724883125,-0.671875,0.34375,0.65625
1629724883156,-0.671875,0.359375,0.640625
1629724883187,-0.671875,0.34375,0.640625
1629724883218,-0.671875,0.34375,0.640625
1629724883250,-0.671875,0.34375,0.640625
1629724883281,-0.671875,0.34375,0.640625
1629724883312,-0.671875,0.34375,0.640625
1629724883343,-0.671875,0.359375,0.65625
1629724883375,-0.671875,0.34375,0.65625
1629724883406,-0.65625,0.34375,0.640625
1629724883437,-0.671875,0.34375,0.640625
1629724883468,-0.671875,0.359375,0.640625
1629724883500,-0.671875,0.34375,0.65625
1629724883531,-0.65625,0.34375,0.640625
1629724883562,-0.671875,0.34375,0.640625
1629724883593,-0.671875,0.34375,0.640625
1629724883625,-0.671875,0.34375,0.640625
1629724883656,-0.671875,0.359375,0.65625
1629724883687,-0.65625,0.359375,0.640625
1629724883718,-0.671875,0.34375,0.640625
1629724883750,-0.671875,0.359375,0.640625
1629724883781,-0.671875,0.34375,0.65625
1629724883812,-0.671875,0.359375,0.640625
1629724883843,-0.671875,0.359375,0.640625
1629724883875,-0.671875,0.34375,0.640625
1629724883906,-0.671875,0.359375,0.640625
1629724883937,-0.671875,0.34375,0.640625
1629724883968,-0.671875,0.359375,0.640625
1629724884000,-0.671875,0.34375,0.65625
1629724884031,-0.671875,0.359375,0.640625
1629724884062,-0.671875,0.359375,0.640625
1629724884093,-0.671875,0.359375,0.640625
1629724884125,-0.671875,0.359375,0.640625
1629724884156,-0.671875,0.359375,0.640625
1629724884187,-0.671875,0.34375,0.640625
1629724884218,-0.671875,0.359375,0.65625
1629724884250,-0.671875,0.34375,0.65625
1629724884281,-0.671875,0.34375,0.640625
1629724884312,-0.671875,0.34375,0.640625
1629724884343,-0.671875,0.359375,0.640625
1629724884375,-0.671875,0.34375,0.65625
1629724884406,-0.671875,0.359375,0.640625
1629724884437,-0.65625,0.34375,0.640625
1629724884468,-0.671875,0.359375,0.640625
1629724884500,-0.671875,0.34375,0.640625
1629724884531,-0.671875,0.359375,0.65625
1629724884562,-0.671875,0.34375,0.640625
1629724884593,-0.65625,0.34375,0.65625
1629724884625,-0.671875,0.34375,0.640625
1629724884656,-0.671875,0.34375,0.65625
1629724884687,-0.671875,0.359375,0.640625
1629724884718,-0.671875,0.359375,0.65625
1629724884750,-0.671875,0.34375,0.640625
1629724884781,-0.671875,0.34375,0.640625
1629724884812,-0.671875,0.359375,0.640625
1629724884843,-0.671875,0.359375,0.640625
1629724884875,-0.671875,0.34375,0.640625
1629724884906,-0.671875,0.359375,0.65625
1629724884937,-0.671875,0.34375,0.640625
1629724884968,-0.671875,0.34375,0.640625
1629724885000,-0.671875,0.359375,0.65625
1629724885031,-0.671875,0.34375,0.640625
1629724885062,-0.671875,0.34375,0.640625
1629724885093,-0.671875,0.34375,0.640625
1629724885125,-0.671875,0.34375,0.640625
1629724885156,-0.671875,0.34375,0.640625
1629724885187,-0.671875,0.34375,0.640625
1629724885218,-0.671875,0.359375,0.640625
1629724885250,-0.671875,0.34375,0.640625
1629724885281,-0.671875,0.359375,0.640625
1629724885312,-0.65625,0.34375,0.640625
1629724885343,-0.671875,0.359375,0.640625
1629724885375,-0.671875,0.359375,0.640625
1629724885406,-0.671875,0.34375,0.640625
1629724885437,-0.65625,0.34375,0.65625
1629724885468,-0.671875,0.34375,0.640625
1629724885500,-0.671875,0.34375,0.65625
1629724885531,-0.671875,0.34375,0.640625
1629724885562,-0.671875,0.34375,0.640625
1629724885593,-0.671875,0.34375,0.65625
1629724885625,-0.671875,0.34375,0.640625
1629724885656,-0.671875,0.34375,0.640625
1629724885687,-0.671875,0.34375,0.640625
1629724885718,-0.671875,0.34375,0.65625
1629724885750,-0.671875,0.34375,0.640625
1629724885781,-0.671875,0.34375,0.640625
1629724885812,-0.671875,0.34375,0.640625
1629724885843,-0.671875,0.34375,0.640625
1629724885875,-0.671875,0.34375,0.65625
1629724885906,-0.671875,0.34375,0.65625
1629724885937,-0.671875,0.34375,0.640625
1629724885968,-0.671875,0.34375,0.65625
1629724886000,-0.671875,0.34375,0.65625
1629724886031,-0.671875,0.34375,0.640625
1629724886062,-0.671875,0.34375,0.640625
1629724886093,-0.671875,0.34375,0.65625
1629724886125,-0.671875,0.359375,0.65625
1629724886156,-0.671875,0.34375,0.640625
1629724886187,-0.671875,0.34375,0.640625
1629724886218,-0.65625,0.34375,0.65625
1629724886250,-0.671875,0.34375,0.640625
1629724886281,-0.671875,0.34375,0.640625
1629724886312,-0.671875,0.34375,0.65625
1629724886343,-0.65625,0.34375,0.640625
1629724886375,-0.671875,0.34375,0.640625
1629724886406,-0.671875,0.34375,0.65625
1629724886437,-0.671875,0.34375,0.65625
1629724886468,-0.671875,0.34375,0.65625
1629724886500,-0.671875,0.34375,0.65625
1629724886531,-0.671875,0.34375,0.640625
1629724886562,-0.671875,0.34375,0.65625
1629724886593,-0.671875,0.34375,0.65625
1629724886625,-0.671875,0.34375,0.640625
1629724886656,-0.671875,0.34375,0.65625
1629724886687,-0.671875,0.34375,0.65625
1629724886718,-0.671875,0.34375,0.65625
1629724886750,-0.671875,0.34375,0.640625
1629724886781,-0.671875,0.34375,0.65625
1629724886812,-0.671875,0.34375,0.65625
1629724886843,-0.671875,0.34375,0.65625
1629724886875,-0.671875,0.34375,0.640625
1629724886906,-0.671875,0.34375,0.65625
1629724886937,-0.671875,0.34375,0.65625
1629724886968,-0.65625,0.34375,0.65625
1629724887000,-0.671875,0.34375,0.640625
1629724887031,-0.671875,0.34375,0.65625
1629724887062,-0.671875,0.34375,0.65625
1629724887093,-0.671875,0.34375,0.65625
1629724887125,-0.65625,0.34375,0.65625
1629724887156,-0.671875,0.34375,0.65625
1629724887187,-0.671875,0.34375,0.65625
1629724887218,-0.671875,0.34375,0.65625
1629724887250,-0.671875,0.34375,0.65625
1629724887281,-0.671875,0.34375,0.65625
1629724887312,-0.671875,0.34375,0.65625
1629724887343,-0.671875,0.34375,0.640625
1629724887375,-0.671875,0.34375,0.65625
1629724887406,-0.671875,0.34375,0.640625
1629724887437,-0.671875,0.34375,0.640625
1629724887468,-0.671875,0.34375,0.65625
1629724887500,-0.671875,0.34375,0.65625
1629724887531,-0.671875,0.34375,0.640625
1629724887562,-0.671875,0.34375,0.65625
1629724887593,-0.671875,0.34375,0.65625
1629724887625,-0.671875,0.34375,0.65625
1629724887656,-0.671875,0.34375,0.65625
1629724887687,-0.671875,0.34375,0.65625
1629724887718,-0.671875,0.34375,0.65625
1629724887750,-0.671875,0.34375,0.640625
1629724887781,-0.671875,0.34375,0.65625
1629724887812,-0.671875,0.34375,0.65625
1629724887843,-0.671875,0.34375,0.640625
1629724887875,-0.671875,0.34375,0.65625
1629724887906,-0.671875,0.34375,0.65625
1629724887937,-0.671875,0.34375,0.65625
1629724887968,-0.671875,0.34375,0.640625
1629724888000,-0.671875,0.34375,0.640625
1629724888031,-0.671875,0.34375,0.65625
1629724888062,-0.65625,0.34375,0.65625
1629724888093,-0.671875,0.34375,0.640625
1629724888125,-0.671875,0.34375,0.640625
1629724888156,-0.671875,0.34375,0.65625
1629724888187,-0.671875,0.359375,0.65625
1629724888218,-0.671875,0.34375,0.65625
1629724888250,-0.65625,0.34375,0.65625
1629724888281,-0.671875,0.34375,0.65625
1629724888312,-0.671875,0.34375,0.65625
1629724888343,-0.671875,0.34375,0.65625
1629724888375,-0.671875,0.34375,0.640625
1629724888406,-0.671875,0.34375,0.65625
1629724888437,-0.671875,0.34375,0.65625
1629724888468,-0.671875,0.34375,0.65625
1629724888500,-0.671875,0.34375,0.640625
1629724888531,-0.65625,0.34375,0.640625
1629724888562,-0.671875,0.34375,0.640625
1629724888593,-0.671875,0.34375,0.640625
1629724888625,-0.671875,0.34375,0.65625
1629724888656,-0.65625,0.34375,0.640625
1629724888687,-0.671875,0.34375,0.640625
1629724888718,-0.671875,0.34375,0.640625
1629724888750,-0.671875,0.34375,0.640625
1629724888781,-0.671875,0.34375,0.65625
1629724888812,-0.671875,0.34375,0.640625
1629724888843,-0.671875,0.34375,0.65625
1629724888875,-0.65625,0.34375,0.65625
1629724888906,-0.671875,0.34375,0.640625
1629724888937,-0.671875,0.34375,0.640625
1629724888968,-0.671875,0.359375,0.65625
1629724889000,-0.671875,0.359375,0.640625
1629724889031,-0.671875,0.34375,0.640625
1629724889062,-0.671875,0.34375,0.640625
1629724889093,-0.671875,0.34375,0.640625
1629724889125,-0.671875,0.34375,0.65625
1629724889156,-0.671875,0.359375,0.65625
1629724889187,-0.65625,0.34375,0.65625
1629724889218,-0.671875,0.34375,0.65625
1629724889250,-0.671875,0.34375,0.640625
1629724889281,-0.671875,0.34375,0.640625
1629724889312,-0.671875,0.359375,0.65625
1629724889343,-0.671875,0.34375,0.640625
1629724889375,-0.671875,0.359375,0.640625
1629724889406,-0.671875,0.34375,0.640625
1629724889437,-0.671875,0.359375,0.640625
1629724889468,-0.671875,0.34375,0.65625
1629724889500,-0.671875,0.359375,0.640625
1629724889531,-0.671875,0.34375,0.640625
1629724889562,-0.671875,0.34375,0.640625
1629724889593,-0.671875,0.34375,0.640625
1629724889625,-0.671875,0.34375,0.640625
1629724889656,-0.671875,0.34375,0.640625
1629724889687,-0.671875,0.359375,0.640625
1629724889718,-0.671875,0.34375,0.65625
1629724889750,-0.671875,0.34375,0.65625
1629724889781,-0.671875,0.34375,0.640625
1629724889812,-0.671875,0.34375,0.640625
1629724889843,-0.671875,0.34375,0.640625
1629724889875,-0.671875,0.34375,0.640625
1629724889906,-0.671875,0.34375,0.640625
1629724889937,-0.65625,0.34375,0.640625
1629724889968,-0.671875,0.359375,0.640625
1629724890000,-0.671875,0.359375,0.640625
1629724890031,-0.671875,0.34375,0.65625
1629724890062,-0.671875,0.34375,0.640625
1629724890093,-0.671875,0.34375,0.640625
1629724890125,-0.671875,0.34375,0.640625
1629724890156,-0.671875,0.34375,0.640625
1629724890187,-0.671875,0.34375,0.640625
1629724890218,-0.671875,0.34375,0.640625
1629724890250,-0.671875,0.34375,0.640625
1629724890281,-0.671875,0.359375,0.640625
1629724890312,-0.671875,0.34375,0.65625
1629724890343,-0.671875,0.34375,0.640625
1629724890375,-0.671875,0.359375,0.640625
1629724890406,-0.671875,0.34375,0.640625
1629724890437,-0.671875,0.34375,0.640625
1629724890468,-0.671875,0.34375,0.65625
1629724890500,-0.671875,0.34375,0.65625
1629724890531,-0.671875,0.34375,0.640625
1629724890562,-0.671875,0.34375,0.640625
1629724890593,-0.671875,0.34375,0.640625
1629724890625,-0.671875,0.34375,0.640625
1629724890656,-0.671875,0.34375,0.640625
1629724890687,-0.671875,0.34375,0.65625
1629724890718,-0.671875,0.359375,0.640625
1629724890750,-0.671875,0.34375,0.640625
1629724890781,-0.671875,0.34375,0.640625
1629724890812,-0.671875,0.34375,0.640625
1629724890843,-0.671875,0.34375,0.65625
1629724890875,-0.671875,0.359375,0.65625
1629724890906,-0.671875,0.34375,0.65625
1629724890937,-0.671875,0.34375,0.640625
1629724890968,-0.671875,0.34375,0.640625
1629724891000,-0.671875,0.34375,0.65625
1629724891031,-0.671875,0.34375,0.640625
1629724891062,-0.671875,0.34375,0.640625
1629724891093,-0.671875,0.34375,0.640625
1629724891125,-0.671875,0.34375,0.65625
1629724891156,-0.671875,0.34375,0.65625
1629724891187,-0.671875,0.34375,0.65625
1629724891218,-0.671875,0.34375,0.640625
1629724891250,-0.671875,0.34375,0.640625
1629724891281,-0.671875,0.34375,0.640625
1629724891312,-0.671875,0.34375,0.65625
1629724891343,-0.671875,0.34375,0.65625
1629724891375,-0.671875,0.34375,0.640625
1629724891406,-0.671875,0.34375,0.65625
1629724891437,-0.671875,0.34375,0.640625
1629724891468,-0.671875,0.34375,0.65625
1629724891500,-0.671875,0.34375,0.65625
1629724891531,-0.671875,0.34375,0.65625
1629724891562,-0.671875,0.34375,0.640625
1629724891593,-0.671875,0.34375,0.640625
1629724891625,-0.671875,0.34375,0.65625
1629724891656,-0.671875,0.34375,0.65625
1629724891687,-0.671875,0.34375,0.640625
1629724891718,-0.65625,0.34375,0.65625
1629724891750,-0.671875,0.34375,0.65625
1629724891781,-0.671875,0.34375,0.65625
1629724891812,-0.671875,0.34375,0.65625
1629724891843,-0.671875,0.34375,0.65625
1629724891875,-0.671875,0.34375,0.65625
1629724891906,-0.671875,0.34375,0.65625
1629724891937,-0.671875,0.34375,0.65625
1629724891968,-0.671875,0.34375,0.640625
1629724892000,-0.671875,0.34375,0.640625
1629724892031,-0.671875,0.34375,0.65625
1629724892062,-0.671875,0.34375,0.640625
1629724892093,-0.671875,0.34375,0.640625
1629724892125,-0.671875,0.34375,0.65625
1629724892156,-0.671875,0.34375,0.65625
1629724892187,-0.671875,0.34375,0.65625
1629724892218,-0.671875,0.34375,0.640625
1629724892250,-0.671875,0.34375,0.65625
1629724892281,-0.671875,0.34375,0.65625
1629724892312,-0.671875,0.34375,0.65625
1629724892343,-0.671875,0.34375,0.65625
1629724892375,-0.671875,0.34375,0.65625
1629724892406,-0.671875,0.34375,0.65625
1629724892437,-0.671875,0.34375,0.65625
1629724892468,-0.671875,0.34375,0.65625
1629724892500,-0.65625,0.34375,0.65625
1629724892531,-0.671875,0.34375,0.640625
1629724892562,-0.671875,0.34375,0.640625
1629724892593,-0.671875,0.34375,0.65625
1629724892625,-0.671875,0.34375,0.65625
1629724892656,-0.65625,0.34375,0.65625
1629724892687,-0.671875,0.34375,0.65625
1629724892718,-0.671875,0.34375,0.65625
1629724892750,-0.671875,0.34375,0.65625
1629724892781,-0.671875,0.34375,0.65625
1629724892812,-0.671875,0.34375,0.65625
1629724892843,-0.65625,0.34375,0.65625
1629724892875,-0.671875,0.34375,0.65625
1629724892906,-0.671875,0.34375,0.65625
1629724892937,-0.671875,0.34375,0.65625
1629724892968,-0.671875,0.34375,0.65625
1629724893000,-0.671875,0.34375,0.640625
1629724893031,-0.671875,0.34375,0.65625
1629724893062,-0.671875,0.34375,0.65625
1629724893093,-0.671875,0.34375,0.65625
1629724893125,-0.671875,0.34375,0.65625
1629724893156,-0.671875,0.34375,0.65625
1629724893187,-0.671875,0.34375,0.65625
1629724893218,-0.671875,0.34375,0.65625
1629724893250,-0.671875,0.34375,0.65625
1629724893281,-0.671875,0.34375,0.65625
1629724893312,-0.671875,0.34375,0.640625
1629724893343,-0.671875,0.34375,0.65625
1629724893375,-0.671875,0.34375,0.65625
1629724893406,-0.671875,0.34375,0.640625
1629724893437,-0.671875,0.34375,0.65625
1629724893468,-0.671875,0.34375,0.65625
1629724893500,-0.65625,0.34375,0.640625
1629724893531,-0.671875,0.34375,0.640625
1629724893562,-0.671875,0.34375,0.65625
1629724893593,-0.671875,0.34375,0.65625
1629724893625,-0.65625,0.34375,0.65625
1629724893656,-0.671875,0.34375,0.65625
1629724893687,-0.671875,0.34375,0.65625
1629724893718,-0.671875,0.34375,0.65625
1629724893750,-0.671875,0.34375,0.65625
1629724893781,-0.671875,0.34375,0.65625
1629724893812,-0.65625,0.34375,0.65625
1629724893843,-0.671875,0.34375,0.65625
1629724893875,-0.671875,0.34375,0.65625
1629724893906,-0.671875,0.34375,0.65625
1629724893937,-0.671875,0.34375,0.65625
1629724893968,-0.671875,0.34375,0.640625
1629724894000,-0.671875,0.34375,0.640625
1629724894031,-0.671875,0.34375,0.640625
1629724894062,-0.671875,0.34375,0.65625
1629724894093,-0.671875,0.34375,0.65625
1629724894125,-0.671875,0.34375,0.65625
1629724894156,-0.671875,0.34375,0.640625
